Created as New Dataset,Sample 036 By Administrator Date Wednesday, November 24 2021
cm-1,A
7502.00,0.4757
7501.00,0.4743
7500.00,0.4734
7499.00,0.4733
7498.00,0.4739
7497.00,0.4753
7496.00,0.4771
7495.00,0.4794
7494.00,0.4824
7493.00,0.4862
7492.00,0.4901
7491.00,0.4940
7490.00,0.4979
7489.00,0.5023
7488.00,0.5073
7487.00,0.5128
7486.00,0.5188
7485.00,0.5253
7484.00,0.5324
7483.00,0.5400
7482.00,0.5478
7481.00,0.5560
7480.00,0.5645
7479.00,0.5733
7478.00,0.5821
7477.00,0.5904
7476.00,0.5982
7475.00,0.6058
7474.00,0.6138
7473.00,0.6224
7472.00,0.6314
7471.00,0.6405
7470.00,0.6497
7469.00,0.6589
7468.00,0.6680
7467.00,0.6770
7466.00,0.6863
7465.00,0.6959
7464.00,0.7055
7463.00,0.7146
7462.00,0.7233
7461.00,0.7320
7460.00,0.7409
7459.00,0.7497
7458.00,0.7581
7457.00,0.7658
7456.00,0.7729
7455.00,0.7802
7454.00,0.7884
7453.00,0.7975
7452.00,0.8062
7451.00,0.8136
7450.00,0.8197
7449.00,0.8258
7448.00,0.8325
7447.00,0.8393
7446.00,0.8456
7445.00,0.8513
7444.00,0.8567
7443.00,0.8622
7442.00,0.8677
7441.00,0.8728
7440.00,0.8776
7439.00,0.8819
7438.00,0.8855
7437.00,0.8887
7436.00,0.8918
7435.00,0.8949
7434.00,0.8976
7433.00,0.8991
7432.00,0.8995
7431.00,0.8994
7430.00,0.8994
7429.00,0.8997
7428.00,0.9002
7427.00,0.9012
7426.00,0.9026
7425.00,0.9036
7424.00,0.9037
7423.00,0.9028
7422.00,0.9013
7421.00,0.8995
7420.00,0.8966
7419.00,0.8924
7418.00,0.8871
7417.00,0.8813
7416.00,0.8755
7415.00,0.8697
7414.00,0.8638
7413.00,0.8579
7412.00,0.8520
7411.00,0.8465
7410.00,0.8414
7409.00,0.8367
7408.00,0.8318
7407.00,0.8267
7406.00,0.8217
7405.00,0.8167
7404.00,0.8111
7403.00,0.8047
7402.00,0.7976
7401.00,0.7903
7400.00,0.7829
7399.00,0.7750
7398.00,0.7665
7397.00,0.7582
7396.00,0.7505
7395.00,0.7436
7394.00,0.7371
7393.00,0.7304
7392.00,0.7233
7391.00,0.7162
7390.00,0.7094
7389.00,0.7032
7388.00,0.6973
7387.00,0.6917
7386.00,0.6866
7385.00,0.6821
7384.00,0.6781
7383.00,0.6739
7382.00,0.6693
7381.00,0.6645
7380.00,0.6598
7379.00,0.6556
7378.00,0.6515
7377.00,0.6470
7376.00,0.6416
7375.00,0.6358
7374.00,0.6301
7373.00,0.6249
7372.00,0.6198
7371.00,0.6149
7370.00,0.6102
7369.00,0.6062
7368.00,0.6029
7367.00,0.6002
7366.00,0.5978
7365.00,0.5955
7364.00,0.5931
7363.00,0.5910
7362.00,0.5896
7361.00,0.5892
7360.00,0.5896
7359.00,0.5902
7358.00,0.5908
7357.00,0.5914
7356.00,0.5925
7355.00,0.5941
7354.00,0.5962
7353.00,0.5986
7352.00,0.6014
7351.00,0.6045
7350.00,0.6082
7349.00,0.6125
7348.00,0.6171
7347.00,0.6217
7346.00,0.6264
7345.00,0.6317
7344.00,0.6379
7343.00,0.6449
7342.00,0.6524
7341.00,0.6600
7340.00,0.6675
7339.00,0.6751
7338.00,0.6826
7337.00,0.6900
7336.00,0.6971
7335.00,0.7042
7334.00,0.7116
7333.00,0.7195
7332.00,0.7279
7331.00,0.7369
7330.00,0.7463
7329.00,0.7560
7328.00,0.7656
7327.00,0.7752
7326.00,0.7849
7325.00,0.7948
7324.00,0.8047
7323.00,0.8142
7322.00,0.8233
7321.00,0.8322
7320.00,0.8411
7319.00,0.8500
7318.00,0.8590
7317.00,0.8678
7316.00,0.8763
7315.00,0.8844
7314.00,0.8926
7313.00,0.9011
7312.00,0.9097
7311.00,0.9180
7310.00,0.9261
7309.00,0.9339
7308.00,0.9415
7307.00,0.9487
7306.00,0.9553
7305.00,0.9614
7304.00,0.9673
7303.00,0.9736
7302.00,0.9801
7301.00,0.9865
7300.00,0.9925
7299.00,0.9980
7298.00,1.0030
7297.00,1.0076
7296.00,1.0117
7295.00,1.0152
7294.00,1.0183
7293.00,1.0212
7292.00,1.0241
7291.00,1.0273
7290.00,1.0307
7289.00,1.0337
7288.00,1.0361
7287.00,1.0379
7286.00,1.0394
7285.00,1.0404
7284.00,1.0408
7283.00,1.0405
7282.00,1.0400
7281.00,1.0395
7280.00,1.0390
7279.00,1.0386
7278.00,1.0384
7277.00,1.0380
7276.00,1.0370
7275.00,1.0353
7274.00,1.0330
7273.00,1.0303
7272.00,1.0273
7271.00,1.0240
7270.00,1.0203
7269.00,1.0163
7268.00,1.0118
7267.00,1.0071
7266.00,1.0020
7265.00,0.9963
7264.00,0.9902
7263.00,0.9838
7262.00,0.9777
7261.00,0.9718
7260.00,0.9654
7259.00,0.9586
7258.00,0.9516
7257.00,0.9447
7256.00,0.9376
7255.00,0.9300
7254.00,0.9221
7253.00,0.9140
7252.00,0.9059
7251.00,0.8976
7250.00,0.8893
7249.00,0.8809
7248.00,0.8724
7247.00,0.8636
7246.00,0.8548
7245.00,0.8462
7244.00,0.8377
7243.00,0.8292
7242.00,0.8209
7241.00,0.8127
7240.00,0.8044
7239.00,0.7958
7238.00,0.7873
7237.00,0.7791
7236.00,0.7715
7235.00,0.7639
7234.00,0.7563
7233.00,0.7488
7232.00,0.7419
7231.00,0.7358
7230.00,0.7302
7229.00,0.7247
7228.00,0.7192
7227.00,0.7139
7226.00,0.7090
7225.00,0.7047
7224.00,0.7009
7223.00,0.6975
7222.00,0.6945
7221.00,0.6919
7220.00,0.6895
7219.00,0.6876
7218.00,0.6864
7217.00,0.6856
7216.00,0.6850
7215.00,0.6844
7214.00,0.6844
7213.00,0.6852
7212.00,0.6868
7211.00,0.6888
7210.00,0.6911
7209.00,0.6941
7208.00,0.6978
7207.00,0.7022
7206.00,0.7070
7205.00,0.7121
7204.00,0.7174
7203.00,0.7228
7202.00,0.7284
7201.00,0.7341
7200.00,0.7400
7199.00,0.7461
7198.00,0.7526
7197.00,0.7595
7196.00,0.7669
7195.00,0.7747
7194.00,0.7828
7193.00,0.7911
7192.00,0.7994
7191.00,0.8077
7190.00,0.8161
7189.00,0.8248
7188.00,0.8337
7187.00,0.8425
7186.00,0.8513
7185.00,0.8600
7184.00,0.8688
7183.00,0.8774
7182.00,0.8858
7181.00,0.8943
7180.00,0.9031
7179.00,0.9122
7178.00,0.9214
7177.00,0.9304
7176.00,0.9390
7175.00,0.9472
7174.00,0.9551
7173.00,0.9630
7172.00,0.9704
7171.00,0.9773
7170.00,0.9841
7169.00,0.9910
7168.00,0.9977
7167.00,1.0039
7166.00,1.0097
7165.00,1.0156
7164.00,1.0219
7163.00,1.0281
7162.00,1.0341
7161.00,1.0399
7160.00,1.0455
7159.00,1.0507
7158.00,1.0552
7157.00,1.0589
7156.00,1.0619
7155.00,1.0645
7154.00,1.0673
7153.00,1.0706
7152.00,1.0741
7151.00,1.0769
7150.00,1.0786
7149.00,1.0798
7148.00,1.0810
7147.00,1.0822
7146.00,1.0831
7145.00,1.0834
7144.00,1.0834
7143.00,1.0832
7142.00,1.0829
7141.00,1.0821
7140.00,1.0807
7139.00,1.0786
7138.00,1.0764
7137.00,1.0744
7136.00,1.0728
7135.00,1.0713
7134.00,1.0694
7133.00,1.0667
7132.00,1.0631
7131.00,1.0587
7130.00,1.0537
7129.00,1.0485
7128.00,1.0431
7127.00,1.0376
7126.00,1.0318
7125.00,1.0258
7124.00,1.0196
7123.00,1.0135
7122.00,1.0075
7121.00,1.0014
7120.00,0.9951
7119.00,0.9884
7118.00,0.9815
7117.00,0.9742
7116.00,0.9664
7115.00,0.9581
7114.00,0.9495
7113.00,0.9410
7112.00,0.9328
7111.00,0.9248
7110.00,0.9167
7109.00,0.9088
7108.00,0.9010
7107.00,0.8929
7106.00,0.8845
7105.00,0.8758
7104.00,0.8671
7103.00,0.8584
7102.00,0.8498
7101.00,0.8415
7100.00,0.8335
7099.00,0.8257
7098.00,0.8181
7097.00,0.8105
7096.00,0.8030
7095.00,0.7956
7094.00,0.7886
7093.00,0.7817
7092.00,0.7749
7091.00,0.7681
7090.00,0.7616
7089.00,0.7555
7088.00,0.7496
7087.00,0.7439
7086.00,0.7384
7085.00,0.7332
7084.00,0.7286
7083.00,0.7244
7082.00,0.7209
7081.00,0.7178
7080.00,0.7151
7079.00,0.7126
7078.00,0.7106
7077.00,0.7092
7076.00,0.7084
7075.00,0.7081
7074.00,0.7081
7073.00,0.7084
7072.00,0.7094
7071.00,0.7110
7070.00,0.7132
7069.00,0.7158
7068.00,0.7185
7067.00,0.7214
7066.00,0.7250
7065.00,0.7292
7064.00,0.7340
7063.00,0.7389
7062.00,0.7442
7061.00,0.7501
7060.00,0.7566
7059.00,0.7635
7058.00,0.7705
7057.00,0.7775
7056.00,0.7848
7055.00,0.7922
7054.00,0.7998
7053.00,0.8075
7052.00,0.8155
7051.00,0.8237
7050.00,0.8321
7049.00,0.8407
7048.00,0.8494
7047.00,0.8583
7046.00,0.8677
7045.00,0.8772
7044.00,0.8867
7043.00,0.8960
7042.00,0.9051
7041.00,0.9140
7040.00,0.9226
7039.00,0.9311
7038.00,0.9397
7037.00,0.9484
7036.00,0.9571
7035.00,0.9657
7034.00,0.9743
7033.00,0.9830
7032.00,0.9915
7031.00,0.9998
7030.00,1.0078
7029.00,1.0153
7028.00,1.0228
7027.00,1.0304
7026.00,1.0381
7025.00,1.0457
7024.00,1.0528
7023.00,1.0594
7022.00,1.0658
7021.00,1.0721
7020.00,1.0782
7019.00,1.0840
7018.00,1.0895
7017.00,1.0948
7016.00,1.0998
7015.00,1.1044
7014.00,1.1088
7013.00,1.1130
7012.00,1.1169
7011.00,1.1203
7010.00,1.1235
7009.00,1.1268
7008.00,1.1300
7007.00,1.1333
7006.00,1.1364
7005.00,1.1389
7004.00,1.1406
7003.00,1.1415
7002.00,1.1421
7001.00,1.1425
7000.00,1.1424
6999.00,1.1416
6998.00,1.1404
6997.00,1.1393
6996.00,1.1382
6995.00,1.1369
6994.00,1.1353
6993.00,1.1333
6992.00,1.1310
6991.00,1.1285
6990.00,1.1259
6989.00,1.1231
6988.00,1.1200
6987.00,1.1162
6986.00,1.1118
6985.00,1.1071
6984.00,1.1023
6983.00,1.0972
6982.00,1.0912
6981.00,1.0847
6980.00,1.0780
6979.00,1.0712
6978.00,1.0641
6977.00,1.0566
6976.00,1.0488
6975.00,1.0412
6974.00,1.0339
6973.00,1.0264
6972.00,1.0182
6971.00,1.0095
6970.00,1.0005
6969.00,0.9914
6968.00,0.9822
6967.00,0.9729
6966.00,0.9637
6965.00,0.9549
6964.00,0.9460
6963.00,0.9370
6962.00,0.9276
6961.00,0.9182
6960.00,0.9089
6959.00,0.8995
6958.00,0.8901
6957.00,0.8808
6956.00,0.8718
6955.00,0.8630
6954.00,0.8545
6953.00,0.8462
6952.00,0.8383
6951.00,0.8306
6950.00,0.8232
6949.00,0.8161
6948.00,0.8090
6947.00,0.8019
6946.00,0.7949
6945.00,0.7882
6944.00,0.7821
6943.00,0.7766
6942.00,0.7718
6941.00,0.7676
6940.00,0.7638
6939.00,0.7602
6938.00,0.7569
6937.00,0.7540
6936.00,0.7515
6935.00,0.7497
6934.00,0.7484
6933.00,0.7478
6932.00,0.7479
6931.00,0.7483
6930.00,0.7493
6929.00,0.7507
6928.00,0.7526
6927.00,0.7549
6926.00,0.7578
6925.00,0.7612
6924.00,0.7652
6923.00,0.7694
6922.00,0.7739
6921.00,0.7788
6920.00,0.7841
6919.00,0.7899
6918.00,0.7963
6917.00,0.8030
6916.00,0.8101
6915.00,0.8174
6914.00,0.8249
6913.00,0.8327
6912.00,0.8408
6911.00,0.8489
6910.00,0.8571
6909.00,0.8657
6908.00,0.8746
6907.00,0.8837
6906.00,0.8928
6905.00,0.9018
6904.00,0.9108
6903.00,0.9200
6902.00,0.9292
6901.00,0.9382
6900.00,0.9470
6899.00,0.9554
6898.00,0.9639
6897.00,0.9724
6896.00,0.9810
6895.00,0.9895
6894.00,0.9983
6893.00,1.0073
6892.00,1.0163
6891.00,1.0251
6890.00,1.0333
6889.00,1.0411
6888.00,1.0484
6887.00,1.0555
6886.00,1.0626
6885.00,1.0696
6884.00,1.0766
6883.00,1.0835
6882.00,1.0902
6881.00,1.0968
6880.00,1.1027
6879.00,1.1079
6878.00,1.1127
6877.00,1.1174
6876.00,1.1220
6875.00,1.1263
6874.00,1.1300
6873.00,1.1334
6872.00,1.1365
6871.00,1.1394
6870.00,1.1423
6869.00,1.1449
6868.00,1.1472
6867.00,1.1493
6866.00,1.1512
6865.00,1.1528
6864.00,1.1538
6863.00,1.1542
6862.00,1.1542
6861.00,1.1541
6860.00,1.1540
6859.00,1.1534
6858.00,1.1522
6857.00,1.1504
6856.00,1.1480
6855.00,1.1454
6854.00,1.1427
6853.00,1.1399
6852.00,1.1366
6851.00,1.1326
6850.00,1.1283
6849.00,1.1242
6848.00,1.1202
6847.00,1.1156
6846.00,1.1103
6845.00,1.1049
6844.00,1.0997
6843.00,1.0944
6842.00,1.0885
6841.00,1.0817
6840.00,1.0744
6839.00,1.0669
6838.00,1.0595
6837.00,1.0520
6836.00,1.0441
6835.00,1.0359
6834.00,1.0273
6833.00,1.0188
6832.00,1.0102
6831.00,1.0013
6830.00,0.9922
6829.00,0.9831
6828.00,0.9741
6827.00,0.9651
6826.00,0.9561
6825.00,0.9470
6824.00,0.9377
6823.00,0.9282
6822.00,0.9188
6821.00,0.9096
6820.00,0.9005
6819.00,0.8916
6818.00,0.8829
6817.00,0.8743
6816.00,0.8660
6815.00,0.8577
6814.00,0.8494
6813.00,0.8412
6812.00,0.8330
6811.00,0.8250
6810.00,0.8171
6809.00,0.8096
6808.00,0.8024
6807.00,0.7955
6806.00,0.7888
6805.00,0.7826
6804.00,0.7768
6803.00,0.7715
6802.00,0.7664
6801.00,0.7618
6800.00,0.7576
6799.00,0.7539
6798.00,0.7506
6797.00,0.7478
6796.00,0.7453
6795.00,0.7432
6794.00,0.7416
6793.00,0.7405
6792.00,0.7399
6791.00,0.7397
6790.00,0.7400
6789.00,0.7410
6788.00,0.7427
6787.00,0.7449
6786.00,0.7475
6785.00,0.7505
6784.00,0.7543
6783.00,0.7584
6782.00,0.7629
6781.00,0.7676
6780.00,0.7727
6779.00,0.7781
6778.00,0.7839
6777.00,0.7902
6776.00,0.7970
6775.00,0.8042
6774.00,0.8118
6773.00,0.8198
6772.00,0.8282
6771.00,0.8366
6770.00,0.8449
6769.00,0.8533
6768.00,0.8620
6767.00,0.8709
6766.00,0.8799
6765.00,0.8889
6764.00,0.8978
6763.00,0.9069
6762.00,0.9160
6761.00,0.9253
6760.00,0.9347
6759.00,0.9443
6758.00,0.9540
6757.00,0.9638
6756.00,0.9734
6755.00,0.9827
6754.00,0.9918
6753.00,1.0008
6752.00,1.0099
6751.00,1.0189
6750.00,1.0280
6749.00,1.0369
6748.00,1.0458
6747.00,1.0544
6746.00,1.0626
6745.00,1.0702
6744.00,1.0775
6743.00,1.0850
6742.00,1.0927
6741.00,1.1002
6740.00,1.1074
6739.00,1.1142
6738.00,1.1210
6737.00,1.1276
6736.00,1.1337
6735.00,1.1395
6734.00,1.1449
6733.00,1.1501
6732.00,1.1550
6731.00,1.1595
6730.00,1.1636
6729.00,1.1673
6728.00,1.1706
6727.00,1.1736
6726.00,1.1765
6725.00,1.1792
6724.00,1.1817
6723.00,1.1836
6722.00,1.1848
6721.00,1.1854
6720.00,1.1859
6719.00,1.1865
6718.00,1.1869
6717.00,1.1866
6716.00,1.1855
6715.00,1.1844
6714.00,1.1835
6713.00,1.1825
6712.00,1.1810
6711.00,1.1789
6710.00,1.1768
6709.00,1.1750
6708.00,1.1730
6707.00,1.1703
6706.00,1.1667
6705.00,1.1624
6704.00,1.1577
6703.00,1.1526
6702.00,1.1471
6701.00,1.1411
6700.00,1.1346
6699.00,1.1280
6698.00,1.1214
6697.00,1.1148
6696.00,1.1080
6695.00,1.1009
6694.00,1.0937
6693.00,1.0862
6692.00,1.0787
6691.00,1.0708
6690.00,1.0626
6689.00,1.0539
6688.00,1.0449
6687.00,1.0355
6686.00,1.0261
6685.00,1.0166
6684.00,1.0070
6683.00,0.9974
6682.00,0.9875
6681.00,0.9775
6680.00,0.9672
6679.00,0.9569
6678.00,0.9469
6677.00,0.9370
6676.00,0.9272
6675.00,0.9173
6674.00,0.9076
6673.00,0.8980
6672.00,0.8883
6671.00,0.8787
6670.00,0.8692
6669.00,0.8602
6668.00,0.8516
6667.00,0.8434
6666.00,0.8355
6665.00,0.8278
6664.00,0.8202
6663.00,0.8129
6662.00,0.8060
6661.00,0.7996
6660.00,0.7937
6659.00,0.7882
6658.00,0.7833
6657.00,0.7789
6656.00,0.7749
6655.00,0.7714
6654.00,0.7684
6653.00,0.7660
6652.00,0.7641
6651.00,0.7627
6650.00,0.7618
6649.00,0.7616
6648.00,0.7620
6647.00,0.7629
6646.00,0.7643
6645.00,0.7661
6644.00,0.7685
6643.00,0.7715
6642.00,0.7749
6641.00,0.7789
6640.00,0.7834
6639.00,0.7884
6638.00,0.7940
6637.00,0.8002
6636.00,0.8066
6635.00,0.8132
6634.00,0.8202
6633.00,0.8276
6632.00,0.8352
6631.00,0.8429
6630.00,0.8508
6629.00,0.8590
6628.00,0.8676
6627.00,0.8763
6626.00,0.8852
6625.00,0.8941
6624.00,0.9033
6623.00,0.9127
6622.00,0.9222
6621.00,0.9318
6620.00,0.9413
6619.00,0.9508
6618.00,0.9601
6617.00,0.9693
6616.00,0.9785
6615.00,0.9876
6614.00,0.9967
6613.00,1.0058
6612.00,1.0149
6611.00,1.0240
6610.00,1.0334
6609.00,1.0426
6608.00,1.0515
6607.00,1.0598
6606.00,1.0677
6605.00,1.0754
6604.00,1.0829
6603.00,1.0899
6602.00,1.0967
6601.00,1.1036
6600.00,1.1107
6599.00,1.1176
6598.00,1.1242
6597.00,1.1304
6596.00,1.1362
6595.00,1.1417
6594.00,1.1471
6593.00,1.1521
6592.00,1.1567
6591.00,1.1609
6590.00,1.1649
6589.00,1.1687
6588.00,1.1721
6587.00,1.1748
6586.00,1.1770
6585.00,1.1791
6584.00,1.1811
6583.00,1.1828
6582.00,1.1840
6581.00,1.1849
6580.00,1.1856
6579.00,1.1860
6578.00,1.1860
6577.00,1.1857
6576.00,1.1849
6575.00,1.1835
6574.00,1.1816
6573.00,1.1792
6572.00,1.1766
6571.00,1.1739
6570.00,1.1709
6569.00,1.1677
6568.00,1.1640
6567.00,1.1597
6566.00,1.1550
6565.00,1.1502
6564.00,1.1453
6563.00,1.1401
6562.00,1.1345
6561.00,1.1285
6560.00,1.1224
6559.00,1.1160
6558.00,1.1091
6557.00,1.1016
6556.00,1.0937
6555.00,1.0858
6554.00,1.0781
6553.00,1.0703
6552.00,1.0622
6551.00,1.0537
6550.00,1.0448
6549.00,1.0356
6548.00,1.0261
6547.00,1.0164
6546.00,1.0066
6545.00,0.9967
6544.00,0.9869
6543.00,0.9772
6542.00,0.9676
6541.00,0.9580
6540.00,0.9483
6539.00,0.9384
6538.00,0.9286
6537.00,0.9188
6536.00,0.9092
6535.00,0.8996
6534.00,0.8899
6533.00,0.8803
6532.00,0.8709
6531.00,0.8617
6530.00,0.8529
6529.00,0.8442
6528.00,0.8356
6527.00,0.8273
6526.00,0.8193
6525.00,0.8116
6524.00,0.8040
6523.00,0.7967
6522.00,0.7899
6521.00,0.7837
6520.00,0.7779
6519.00,0.7723
6518.00,0.7672
6517.00,0.7624
6516.00,0.7581
6515.00,0.7541
6514.00,0.7506
6513.00,0.7477
6512.00,0.7454
6511.00,0.7436
6510.00,0.7425
6509.00,0.7420
6508.00,0.7420
6507.00,0.7426
6506.00,0.7436
6505.00,0.7451
6504.00,0.7470
6503.00,0.7495
6502.00,0.7525
6501.00,0.7562
6500.00,0.7604
6499.00,0.7651
6498.00,0.7702
6497.00,0.7757
6496.00,0.7816
6495.00,0.7879
6494.00,0.7946
6493.00,0.8019
6492.00,0.8095
6491.00,0.8176
6490.00,0.8261
6489.00,0.8349
6488.00,0.8438
6487.00,0.8528
6486.00,0.8619
6485.00,0.8713
6484.00,0.8808
6483.00,0.8903
6482.00,0.8998
6481.00,0.9093
6480.00,0.9187
6479.00,0.9283
6478.00,0.9382
6477.00,0.9482
6476.00,0.9583
6475.00,0.9683
6474.00,0.9783
6473.00,0.9883
6472.00,0.9982
6471.00,1.0079
6470.00,1.0174
6469.00,1.0269
6468.00,1.0364
6467.00,1.0457
6466.00,1.0548
6465.00,1.0636
6464.00,1.0721
6463.00,1.0802
6462.00,1.0885
6461.00,1.0969
6460.00,1.1051
6459.00,1.1127
6458.00,1.1199
6457.00,1.1269
6456.00,1.1337
6455.00,1.1401
6454.00,1.1460
6453.00,1.1517
6452.00,1.1572
6451.00,1.1625
6450.00,1.1675
6449.00,1.1721
6448.00,1.1766
6447.00,1.1808
6446.00,1.1846
6445.00,1.1879
6444.00,1.1908
6443.00,1.1932
6442.00,1.1952
6441.00,1.1970
6440.00,1.1987
6439.00,1.2003
6438.00,1.2017
6437.00,1.2029
6436.00,1.2039
6435.00,1.2044
6434.00,1.2044
6433.00,1.2039
6432.00,1.2032
6431.00,1.2020
6430.00,1.2003
6429.00,1.1981
6428.00,1.1954
6427.00,1.1923
6426.00,1.1890
6425.00,1.1855
6424.00,1.1819
6423.00,1.1779
6422.00,1.1734
6421.00,1.1686
6420.00,1.1636
6419.00,1.1584
6418.00,1.1527
6417.00,1.1464
6416.00,1.1396
6415.00,1.1325
6414.00,1.1252
6413.00,1.1177
6412.00,1.1099
6411.00,1.1020
6410.00,1.0939
6409.00,1.0855
6408.00,1.0768
6407.00,1.0676
6406.00,1.0581
6405.00,1.0483
6404.00,1.0385
6403.00,1.0286
6402.00,1.0185
6401.00,1.0082
6400.00,0.9975
6399.00,0.9865
6398.00,0.9755
6397.00,0.9645
6396.00,0.9536
6395.00,0.9427
6394.00,0.9319
6393.00,0.9214
6392.00,0.9110
6391.00,0.9007
6390.00,0.8904
6389.00,0.8801
6388.00,0.8699
6387.00,0.8598
6386.00,0.8500
6385.00,0.8405
6384.00,0.8313
6383.00,0.8224
6382.00,0.8141
6381.00,0.8063
6380.00,0.7990
6379.00,0.7918
6378.00,0.7849
6377.00,0.7784
6376.00,0.7726
6375.00,0.7671
6374.00,0.7622
6373.00,0.7578
6372.00,0.7541
6371.00,0.7511
6370.00,0.7488
6369.00,0.7470
6368.00,0.7457
6367.00,0.7450
6366.00,0.7449
6365.00,0.7456
6364.00,0.7467
6363.00,0.7483
6362.00,0.7503
6361.00,0.7530
6360.00,0.7563
6359.00,0.7601
6358.00,0.7644
6357.00,0.7693
6356.00,0.7747
6355.00,0.7806
6354.00,0.7871
6353.00,0.7940
6352.00,0.8014
6351.00,0.8091
6350.00,0.8170
6349.00,0.8252
6348.00,0.8336
6347.00,0.8420
6346.00,0.8505
6345.00,0.8593
6344.00,0.8685
6343.00,0.8782
6342.00,0.8882
6341.00,0.8984
6340.00,0.9086
6339.00,0.9189
6338.00,0.9291
6337.00,0.9392
6336.00,0.9492
6335.00,0.9591
6334.00,0.9691
6333.00,0.9792
6332.00,0.9892
6331.00,0.9991
6330.00,1.0090
6329.00,1.0190
6328.00,1.0287
6327.00,1.0382
6326.00,1.0476
6325.00,1.0567
6324.00,1.0655
6323.00,1.0739
6322.00,1.0821
6321.00,1.0902
6320.00,1.0982
6319.00,1.1061
6318.00,1.1139
6317.00,1.1215
6316.00,1.1284
6315.00,1.1345
6314.00,1.1403
6313.00,1.1461
6312.00,1.1517
6311.00,1.1569
6310.00,1.1615
6309.00,1.1657
6308.00,1.1699
6307.00,1.1739
6306.00,1.1777
6305.00,1.1811
6304.00,1.1842
6303.00,1.1872
6302.00,1.1900
6301.00,1.1922
6300.00,1.1936
6299.00,1.1941
6298.00,1.1942
6297.00,1.1944
6296.00,1.1947
6295.00,1.1947
6294.00,1.1944
6293.00,1.1937
6292.00,1.1927
6291.00,1.1911
6290.00,1.1889
6289.00,1.1861
6288.00,1.1831
6287.00,1.1801
6286.00,1.1768
6285.00,1.1730
6284.00,1.1686
6283.00,1.1640
6282.00,1.1589
6281.00,1.1534
6280.00,1.1474
6279.00,1.1413
6278.00,1.1351
6277.00,1.1289
6276.00,1.1224
6275.00,1.1153
6274.00,1.1078
6273.00,1.1001
6272.00,1.0922
6271.00,1.0840
6270.00,1.0754
6269.00,1.0665
6268.00,1.0575
6267.00,1.0484
6266.00,1.0390
6265.00,1.0294
6264.00,1.0195
6263.00,1.0094
6262.00,0.9992
6261.00,0.9890
6260.00,0.9787
6259.00,0.9683
6258.00,0.9579
6257.00,0.9473
6256.00,0.9365
6255.00,0.9257
6254.00,0.9150
6253.00,0.9045
6252.00,0.8940
6251.00,0.8837
6250.00,0.8736
6249.00,0.8636
6248.00,0.8537
6247.00,0.8437
6246.00,0.8339
6245.00,0.8243
6244.00,0.8152
6243.00,0.8063
6242.00,0.7976
6241.00,0.7893
6240.00,0.7813
6239.00,0.7737
6238.00,0.7664
6237.00,0.7595
6236.00,0.7530
6235.00,0.7471
6234.00,0.7417
6233.00,0.7368
6232.00,0.7326
6231.00,0.7289
6230.00,0.7257
6229.00,0.7232
6228.00,0.7212
6227.00,0.7198
6226.00,0.7189
6225.00,0.7186
6224.00,0.7190
6223.00,0.7201
6222.00,0.7219
6221.00,0.7243
6220.00,0.7273
6219.00,0.7308
6218.00,0.7348
6217.00,0.7394
6216.00,0.7445
6215.00,0.7502
6214.00,0.7564
6213.00,0.7632
6212.00,0.7704
6211.00,0.7779
6210.00,0.7856
6209.00,0.7937
6208.00,0.8021
6207.00,0.8108
6206.00,0.8198
6205.00,0.8292
6204.00,0.8389
6203.00,0.8487
6202.00,0.8586
6201.00,0.8686
6200.00,0.8788
6199.00,0.8891
6198.00,0.8995
6197.00,0.9098
6196.00,0.9202
6195.00,0.9305
6194.00,0.9409
6193.00,0.9513
6192.00,0.9617
6191.00,0.9720
6190.00,0.9823
6189.00,0.9926
6188.00,1.0028
6187.00,1.0129
6186.00,1.0228
6185.00,1.0325
6184.00,1.0421
6183.00,1.0517
6182.00,1.0615
6181.00,1.0712
6180.00,1.0806
6179.00,1.0895
6178.00,1.0979
6177.00,1.1054
6176.00,1.1124
6175.00,1.1191
6174.00,1.1258
6173.00,1.1328
6172.00,1.1397
6171.00,1.1463
6170.00,1.1525
6169.00,1.1582
6168.00,1.1634
6167.00,1.1685
6166.00,1.1736
6165.00,1.1786
6164.00,1.1830
6163.00,1.1866
6162.00,1.1894
6161.00,1.1917
6160.00,1.1937
6159.00,1.1958
6158.00,1.1980
6157.00,1.2003
6156.00,1.2023
6155.00,1.2037
6154.00,1.2046
6153.00,1.2049
6152.00,1.2046
6151.00,1.2037
6150.00,1.2025
6149.00,1.2010
6148.00,1.1991
6147.00,1.1966
6146.00,1.1939
6145.00,1.1912
6144.00,1.1884
6143.00,1.1851
6142.00,1.1814
6141.00,1.1775
6140.00,1.1735
6139.00,1.1691
6138.00,1.1642
6137.00,1.1588
6136.00,1.1531
6135.00,1.1468
6134.00,1.1400
6133.00,1.1328
6132.00,1.1255
6131.00,1.1179
6130.00,1.1101
6129.00,1.1020
6128.00,1.0936
6127.00,1.0848
6126.00,1.0758
6125.00,1.0663
6124.00,1.0565
6123.00,1.0463
6122.00,1.0358
6121.00,1.0249
6120.00,1.0138
6119.00,1.0027
6118.00,0.9917
6117.00,0.9808
6116.00,0.9699
6115.00,0.9586
6114.00,0.9473
6113.00,0.9358
6112.00,0.9243
6111.00,0.9126
6110.00,0.9009
6109.00,0.8894
6108.00,0.8781
6107.00,0.8669
6106.00,0.8558
6105.00,0.8449
6104.00,0.8341
6103.00,0.8236
6102.00,0.8134
6101.00,0.8037
6100.00,0.7942
6099.00,0.7852
6098.00,0.7766
6097.00,0.7685
6096.00,0.7607
6095.00,0.7533
6094.00,0.7465
6093.00,0.7403
6092.00,0.7346
6091.00,0.7295
6090.00,0.7249
6089.00,0.7208
6088.00,0.7173
6087.00,0.7145
6086.00,0.7124
6085.00,0.7110
6084.00,0.7105
6083.00,0.7108
6082.00,0.7118
6081.00,0.7135
6080.00,0.7157
6079.00,0.7184
6078.00,0.7217
6077.00,0.7257
6076.00,0.7301
6075.00,0.7351
6074.00,0.7406
6073.00,0.7468
6072.00,0.7534
6071.00,0.7603
6070.00,0.7676
6069.00,0.7754
6068.00,0.7838
6067.00,0.7924
6066.00,0.8014
6065.00,0.8106
6064.00,0.8201
6063.00,0.8299
6062.00,0.8399
6061.00,0.8501
6060.00,0.8604
6059.00,0.8710
6058.00,0.8817
6057.00,0.8925
6056.00,0.9033
6055.00,0.9140
6054.00,0.9248
6053.00,0.9358
6052.00,0.9467
6051.00,0.9575
6050.00,0.9680
6049.00,0.9785
6048.00,0.9891
6047.00,0.9995
6046.00,1.0095
6045.00,1.0193
6044.00,1.0290
6043.00,1.0383
6042.00,1.0474
6041.00,1.0563
6040.00,1.0650
6039.00,1.0737
6038.00,1.0824
6037.00,1.0909
6036.00,1.0990
6035.00,1.1068
6034.00,1.1144
6033.00,1.1215
6032.00,1.1281
6031.00,1.1345
6030.00,1.1407
6029.00,1.1471
6028.00,1.1533
6027.00,1.1590
6026.00,1.1640
6025.00,1.1685
6024.00,1.1726
6023.00,1.1762
6022.00,1.1796
6021.00,1.1829
6020.00,1.1862
6019.00,1.1894
6018.00,1.1921
6017.00,1.1941
6016.00,1.1955
6015.00,1.1964
6014.00,1.1970
6013.00,1.1973
6012.00,1.1971
6011.00,1.1966
6010.00,1.1958
6009.00,1.1949
6008.00,1.1938
6007.00,1.1925
6006.00,1.1910
6005.00,1.1891
6004.00,1.1867
6003.00,1.1837
6002.00,1.1801
6001.00,1.1762
6000.00,1.1720
5999.00,1.1674
5998.00,1.1625
5997.00,1.1572
5996.00,1.1515
5995.00,1.1454
5994.00,1.1389
5993.00,1.1321
5992.00,1.1252
5991.00,1.1179
5990.00,1.1103
5989.00,1.1023
5988.00,1.0939
5987.00,1.0852
5986.00,1.0762
5985.00,1.0669
5984.00,1.0574
5983.00,1.0473
5982.00,1.0368
5981.00,1.0260
5980.00,1.0149
5979.00,1.0037
5978.00,0.9924
5977.00,0.9812
5976.00,0.9701
5975.00,0.9590
5974.00,0.9478
5973.00,0.9366
5972.00,0.9251
5971.00,0.9134
5970.00,0.9016
5969.00,0.8899
5968.00,0.8785
5967.00,0.8672
5966.00,0.8564
5965.00,0.8460
5964.00,0.8360
5963.00,0.8263
5962.00,0.8168
5961.00,0.8077
5960.00,0.7989
5959.00,0.7905
5958.00,0.7826
5957.00,0.7753
5956.00,0.7685
5955.00,0.7620
5954.00,0.7559
5953.00,0.7499
5952.00,0.7442
5951.00,0.7386
5950.00,0.7333
5949.00,0.7282
5948.00,0.7235
5947.00,0.7192
5946.00,0.7153
5945.00,0.7119
5944.00,0.7090
5943.00,0.7068
5942.00,0.7054
5941.00,0.7048
5940.00,0.7050
5939.00,0.7059
5938.00,0.7076
5937.00,0.7101
5936.00,0.7133
5935.00,0.7171
5934.00,0.7216
5933.00,0.7269
5932.00,0.7329
5931.00,0.7394
5930.00,0.7463
5929.00,0.7536
5928.00,0.7614
5927.00,0.7697
5926.00,0.7785
5925.00,0.7877
5924.00,0.7974
5923.00,0.8073
5922.00,0.8175
5921.00,0.8277
5920.00,0.8381
5919.00,0.8486
5918.00,0.8594
5917.00,0.8705
5916.00,0.8818
5915.00,0.8932
5914.00,0.9045
5913.00,0.9158
5912.00,0.9270
5911.00,0.9383
5910.00,0.9495
5909.00,0.9607
5908.00,0.9719
5907.00,0.9830
5906.00,0.9940
5905.00,1.0048
5904.00,1.0154
5903.00,1.0258
5902.00,1.0361
5901.00,1.0465
5900.00,1.0567
5899.00,1.0665
5898.00,1.0760
5897.00,1.0850
5896.00,1.0936
5895.00,1.1019
5894.00,1.1098
5893.00,1.1176
5892.00,1.1254
5891.00,1.1331
5890.00,1.1406
5889.00,1.1478
5888.00,1.1545
5887.00,1.1607
5886.00,1.1664
5885.00,1.1715
5884.00,1.1764
5883.00,1.1810
5882.00,1.1857
5881.00,1.1901
5880.00,1.1943
5879.00,1.1979
5878.00,1.2011
5877.00,1.2036
5876.00,1.2056
5875.00,1.2069
5874.00,1.2077
5873.00,1.2083
5872.00,1.2091
5871.00,1.2100
5870.00,1.2108
5869.00,1.2112
5868.00,1.2113
5867.00,1.2106
5866.00,1.2092
5865.00,1.2069
5864.00,1.2042
5863.00,1.2011
5862.00,1.1978
5861.00,1.1940
5860.00,1.1898
5859.00,1.1854
5858.00,1.1811
5857.00,1.1769
5856.00,1.1724
5855.00,1.1675
5854.00,1.1620
5853.00,1.1559
5852.00,1.1491
5851.00,1.1417
5850.00,1.1339
5849.00,1.1260
5848.00,1.1182
5847.00,1.1104
5846.00,1.1026
5845.00,1.0947
5844.00,1.0863
5843.00,1.0772
5842.00,1.0676
5841.00,1.0576
5840.00,1.0474
5839.00,1.0370
5838.00,1.0267
5837.00,1.0165
5836.00,1.0060
5835.00,0.9952
5834.00,0.9840
5833.00,0.9726
5832.00,0.9610
5831.00,0.9492
5830.00,0.9374
5829.00,0.9256
5828.00,0.9139
5827.00,0.9021
5826.00,0.8904
5825.00,0.8786
5824.00,0.8667
5823.00,0.8549
5822.00,0.8432
5821.00,0.8317
5820.00,0.8206
5819.00,0.8099
5818.00,0.7995
5817.00,0.7895
5816.00,0.7799
5815.00,0.7706
5814.00,0.7616
5813.00,0.7531
5812.00,0.7451
5811.00,0.7377
5810.00,0.7307
5809.00,0.7244
5808.00,0.7187
5807.00,0.7136
5806.00,0.7093
5805.00,0.7057
5804.00,0.7027
5803.00,0.7004
5802.00,0.6987
5801.00,0.6978
5800.00,0.6977
5799.00,0.6983
5798.00,0.6997
5797.00,0.7017
5796.00,0.7043
5795.00,0.7074
5794.00,0.7111
5793.00,0.7156
5792.00,0.7208
5791.00,0.7266
5790.00,0.7329
5789.00,0.7397
5788.00,0.7471
5787.00,0.7549
5786.00,0.7633
5785.00,0.7722
5784.00,0.7815
5783.00,0.7911
5782.00,0.8008
5781.00,0.8108
5780.00,0.8212
5779.00,0.8319
5778.00,0.8429
5777.00,0.8540
5776.00,0.8653
5775.00,0.8765
5774.00,0.8878
5773.00,0.8992
5772.00,0.9108
5771.00,0.9226
5770.00,0.9345
5769.00,0.9464
5768.00,0.9581
5767.00,0.9695
5766.00,0.9808
5765.00,0.9920
5764.00,1.0031
5763.00,1.0142
5762.00,1.0252
5761.00,1.0361
5760.00,1.0467
5759.00,1.0569
5758.00,1.0667
5757.00,1.0761
5756.00,1.0853
5755.00,1.0944
5754.00,1.1034
5753.00,1.1123
5752.00,1.1212
5751.00,1.1298
5750.00,1.1379
5749.00,1.1455
5748.00,1.1526
5747.00,1.1592
5746.00,1.1653
5745.00,1.1711
5744.00,1.1766
5743.00,1.1820
5742.00,1.1871
5741.00,1.1919
5740.00,1.1964
5739.00,1.2005
5738.00,1.2045
5737.00,1.2081
5736.00,1.2112
5735.00,1.2136
5734.00,1.2154
5733.00,1.2169
5732.00,1.2182
5731.00,1.2193
5730.00,1.2202
5729.00,1.2207
5728.00,1.2209
5727.00,1.2205
5726.00,1.2196
5725.00,1.2182
5724.00,1.2167
5723.00,1.2150
5722.00,1.2127
5721.00,1.2100
5720.00,1.2069
5719.00,1.2035
5718.00,1.1998
5717.00,1.1958
5716.00,1.1917
5715.00,1.1871
5714.00,1.1819
5713.00,1.1759
5712.00,1.1694
5711.00,1.1624
5710.00,1.1552
5709.00,1.1478
5708.00,1.1401
5707.00,1.1324
5706.00,1.1246
5705.00,1.1164
5704.00,1.1076
5703.00,1.0982
5702.00,1.0885
5701.00,1.0784
5700.00,1.0681
5699.00,1.0575
5698.00,1.0468
5697.00,1.0358
5696.00,1.0243
5695.00,1.0122
5694.00,0.9998
5693.00,0.9873
5692.00,0.9746
5691.00,0.9618
5690.00,0.9490
5689.00,0.9362
5688.00,0.9233
5687.00,0.9104
5686.00,0.8975
5685.00,0.8845
5684.00,0.8716
5683.00,0.8588
5682.00,0.8461
5681.00,0.8337
5680.00,0.8214
5679.00,0.8095
5678.00,0.7978
5677.00,0.7864
5676.00,0.7754
5675.00,0.7646
5674.00,0.7543
5673.00,0.7446
5672.00,0.7354
5671.00,0.7267
5670.00,0.7184
5669.00,0.7107
5668.00,0.7036
5667.00,0.6971
5666.00,0.6913
5665.00,0.6862
5664.00,0.6818
5663.00,0.6781
5662.00,0.6752
5661.00,0.6730
5660.00,0.6717
5659.00,0.6711
5658.00,0.6714
5657.00,0.6725
5656.00,0.6743
5655.00,0.6769
5654.00,0.6803
5653.00,0.6844
5652.00,0.6892
5651.00,0.6947
5650.00,0.7008
5649.00,0.7077
5648.00,0.7151
5647.00,0.7231
5646.00,0.7317
5645.00,0.7407
5644.00,0.7501
5643.00,0.7600
5642.00,0.7702
5641.00,0.7809
5640.00,0.7920
5639.00,0.8034
5638.00,0.8149
5637.00,0.8266
5636.00,0.8384
5635.00,0.8504
5634.00,0.8624
5633.00,0.8745
5632.00,0.8865
5631.00,0.8986
5630.00,0.9108
5629.00,0.9231
5628.00,0.9354
5627.00,0.9478
5626.00,0.9602
5625.00,0.9726
5624.00,0.9848
5623.00,0.9967
5622.00,1.0084
5621.00,1.0199
5620.00,1.0314
5619.00,1.0426
5618.00,1.0538
5617.00,1.0647
5616.00,1.0754
5615.00,1.0857
5614.00,1.0956
5613.00,1.1050
5612.00,1.1142
5611.00,1.1231
5610.00,1.1318
5609.00,1.1401
5608.00,1.1481
5607.00,1.1557
5606.00,1.1631
5605.00,1.1701
5604.00,1.1770
5603.00,1.1835
5602.00,1.1898
5601.00,1.1957
5600.00,1.2013
5599.00,1.2065
5598.00,1.2114
5597.00,1.2157
5596.00,1.2196
5595.00,1.2227
5594.00,1.2252
5593.00,1.2272
5592.00,1.2289
5591.00,1.2306
5590.00,1.2321
5589.00,1.2335
5588.00,1.2345
5587.00,1.2351
5586.00,1.2353
5585.00,1.2349
5584.00,1.2342
5583.00,1.2331
5582.00,1.2317
5581.00,1.2299
5580.00,1.2277
5579.00,1.2251
5578.00,1.2220
5577.00,1.2183
5576.00,1.2141
5575.00,1.2094
5574.00,1.2045
5573.00,1.1995
5572.00,1.1945
5571.00,1.1891
5570.00,1.1834
5569.00,1.1770
5568.00,1.1700
5567.00,1.1624
5566.00,1.1544
5565.00,1.1460
5564.00,1.1374
5563.00,1.1284
5562.00,1.1191
5561.00,1.1095
5560.00,1.0995
5559.00,1.0891
5558.00,1.0783
5557.00,1.0673
5556.00,1.0562
5555.00,1.0448
5554.00,1.0329
5553.00,1.0207
5552.00,1.0082
5551.00,0.9953
5550.00,0.9823
5549.00,0.9693
5548.00,0.9562
5547.00,0.9431
5546.00,0.9299
5545.00,0.9164
5544.00,0.9027
5543.00,0.8890
5542.00,0.8756
5541.00,0.8622
5540.00,0.8491
5539.00,0.8363
5538.00,0.8237
5537.00,0.8113
5536.00,0.7992
5535.00,0.7874
5534.00,0.7761
5533.00,0.7653
5532.00,0.7549
5531.00,0.7451
5530.00,0.7359
5529.00,0.7273
5528.00,0.7193
5527.00,0.7119
5526.00,0.7052
5525.00,0.6991
5524.00,0.6938
5523.00,0.6891
5522.00,0.6853
5521.00,0.6823
5520.00,0.6801
5519.00,0.6788
5518.00,0.6784
5517.00,0.6788
5516.00,0.6801
5515.00,0.6822
5514.00,0.6851
5513.00,0.6888
5512.00,0.6933
5511.00,0.6985
5510.00,0.7045
5509.00,0.7112
5508.00,0.7186
5507.00,0.7266
5506.00,0.7351
5505.00,0.7442
5504.00,0.7537
5503.00,0.7636
5502.00,0.7740
5501.00,0.7848
5500.00,0.7960
5499.00,0.8075
5498.00,0.8193
5497.00,0.8314
5496.00,0.8436
5495.00,0.8559
5494.00,0.8685
5493.00,0.8815
5492.00,0.8946
5491.00,0.9078
5490.00,0.9209
5489.00,0.9339
5488.00,0.9467
5487.00,0.9594
5486.00,0.9721
5485.00,0.9849
5484.00,0.9978
5483.00,1.0105
5482.00,1.0228
5481.00,1.0348
5480.00,1.0466
5479.00,1.0580
5478.00,1.0692
5477.00,1.0803
5476.00,1.0914
5475.00,1.1024
5474.00,1.1132
5473.00,1.1237
5472.00,1.1339
5471.00,1.1434
5470.00,1.1525
5469.00,1.1611
5468.00,1.1695
5467.00,1.1774
5466.00,1.1849
5465.00,1.1920
5464.00,1.1989
5463.00,1.2055
5462.00,1.2118
5461.00,1.2177
5460.00,1.2233
5459.00,1.2284
5458.00,1.2331
5457.00,1.2374
5456.00,1.2415
5455.00,1.2455
5454.00,1.2492
5453.00,1.2523
5452.00,1.2548
5451.00,1.2568
5450.00,1.2584
5449.00,1.2597
5448.00,1.2606
5447.00,1.2612
5446.00,1.2613
5445.00,1.2610
5444.00,1.2602
5443.00,1.2592
5442.00,1.2576
5441.00,1.2556
5440.00,1.2529
5439.00,1.2500
5438.00,1.2469
5437.00,1.2434
5436.00,1.2395
5435.00,1.2353
5434.00,1.2309
5433.00,1.2264
5432.00,1.2216
5431.00,1.2162
5430.00,1.2103
5429.00,1.2037
5428.00,1.1965
5427.00,1.1889
5426.00,1.1812
5425.00,1.1733
5424.00,1.1652
5423.00,1.1567
5422.00,1.1478
5421.00,1.1384
5420.00,1.1284
5419.00,1.1177
5418.00,1.1064
5417.00,1.0947
5416.00,1.0827
5415.00,1.0702
5414.00,1.0576
5413.00,1.0450
5412.00,1.0323
5411.00,1.0193
5410.00,1.0060
5409.00,0.9925
5408.00,0.9787
5407.00,0.9648
5406.00,0.9508
5405.00,0.9368
5404.00,0.9227
5403.00,0.9086
5402.00,0.8945
5401.00,0.8804
5400.00,0.8664
5399.00,0.8524
5398.00,0.8386
5397.00,0.8251
5396.00,0.8119
5395.00,0.7989
5394.00,0.7864
5393.00,0.7742
5392.00,0.7625
5391.00,0.7514
5390.00,0.7410
5389.00,0.7312
5388.00,0.7220
5387.00,0.7135
5386.00,0.7056
5385.00,0.6985
5384.00,0.6922
5383.00,0.6865
5382.00,0.6817
5381.00,0.6777
5380.00,0.6747
5379.00,0.6724
5378.00,0.6711
5377.00,0.6708
5376.00,0.6715
5375.00,0.6730
5374.00,0.6754
5373.00,0.6786
5372.00,0.6826
5371.00,0.6874
5370.00,0.6930
5369.00,0.6994
5368.00,0.7066
5367.00,0.7144
5366.00,0.7228
5365.00,0.7318
5364.00,0.7412
5363.00,0.7512
5362.00,0.7617
5361.00,0.7727
5360.00,0.7842
5359.00,0.7960
5358.00,0.8082
5357.00,0.8207
5356.00,0.8333
5355.00,0.8459
5354.00,0.8588
5353.00,0.8719
5352.00,0.8852
5351.00,0.8988
5350.00,0.9124
5349.00,0.9261
5348.00,0.9397
5347.00,0.9532
5346.00,0.9665
5345.00,0.9799
5344.00,0.9933
5343.00,1.0066
5342.00,1.0198
5341.00,1.0326
5340.00,1.0451
5339.00,1.0576
5338.00,1.0701
5337.00,1.0828
5336.00,1.0952
5335.00,1.1072
5334.00,1.1185
5333.00,1.1291
5332.00,1.1395
5331.00,1.1499
5330.00,1.1602
5329.00,1.1702
5328.00,1.1798
5327.00,1.1889
5326.00,1.1977
5325.00,1.2062
5324.00,1.2143
5323.00,1.2218
5322.00,1.2290
5321.00,1.2358
5320.00,1.2424
5319.00,1.2488
5318.00,1.2549
5317.00,1.2605
5316.00,1.2657
5315.00,1.2703
5314.00,1.2744
5313.00,1.2780
5312.00,1.2811
5311.00,1.2836
5310.00,1.2859
5309.00,1.2880
5308.00,1.2898
5307.00,1.2914
5306.00,1.2925
5305.00,1.2931
5304.00,1.2929
5303.00,1.2922
5302.00,1.2913
5301.00,1.2904
5300.00,1.2894
5299.00,1.2881
5298.00,1.2862
5297.00,1.2834
5296.00,1.2799
5295.00,1.2760
5294.00,1.2720
5293.00,1.2678
5292.00,1.2634
5291.00,1.2586
5290.00,1.2533
5289.00,1.2473
5288.00,1.2409
5287.00,1.2342
5286.00,1.2272
5285.00,1.2199
5284.00,1.2121
5283.00,1.2039
5282.00,1.1953
5281.00,1.1862
5280.00,1.1768
5279.00,1.1670
5278.00,1.1570
5277.00,1.1466
5276.00,1.1358
5275.00,1.1245
5274.00,1.1129
5273.00,1.1009
5272.00,1.0885
5271.00,1.0757
5270.00,1.0624
5269.00,1.0488
5268.00,1.0350
5267.00,1.0210
5266.00,1.0069
5265.00,0.9926
5264.00,0.9783
5263.00,0.9639
5262.00,0.9497
5261.00,0.9355
5260.00,0.9214
5259.00,0.9074
5258.00,0.8935
5257.00,0.8797
5256.00,0.8660
5255.00,0.8524
5254.00,0.8390
5253.00,0.8260
5252.00,0.8135
5251.00,0.8015
5250.00,0.7899
5249.00,0.7787
5248.00,0.7678
5247.00,0.7576
5246.00,0.7481
5245.00,0.7392
5244.00,0.7309
5243.00,0.7234
5242.00,0.7167
5241.00,0.7109
5240.00,0.7060
5239.00,0.7020
5238.00,0.6990
5237.00,0.6968
5236.00,0.6955
5235.00,0.6951
5234.00,0.6957
5233.00,0.6971
5232.00,0.6995
5231.00,0.7027
5230.00,0.7069
5229.00,0.7119
5228.00,0.7177
5227.00,0.7243
5226.00,0.7317
5225.00,0.7398
5224.00,0.7487
5223.00,0.7584
5222.00,0.7686
5221.00,0.7794
5220.00,0.7907
5219.00,0.8024
5218.00,0.8146
5217.00,0.8273
5216.00,0.8402
5215.00,0.8535
5214.00,0.8669
5213.00,0.8805
5212.00,0.8942
5211.00,0.9080
5210.00,0.9219
5209.00,0.9359
5208.00,0.9499
5207.00,0.9640
5206.00,0.9784
5205.00,0.9930
5204.00,1.0075
5203.00,1.0218
5202.00,1.0359
5201.00,1.0497
5200.00,1.0631
5199.00,1.0763
5198.00,1.0894
5197.00,1.1024
5196.00,1.1151
5195.00,1.1274
5194.00,1.1392
5193.00,1.1506
5192.00,1.1615
5191.00,1.1720
5190.00,1.1823
5189.00,1.1924
5188.00,1.2022
5187.00,1.2115
5186.00,1.2204
5185.00,1.2288
5184.00,1.2369
5183.00,1.2449
5182.00,1.2526
5181.00,1.2601
5180.00,1.2670
5179.00,1.2733
5178.00,1.2792
5177.00,1.2848
5176.00,1.2900
5175.00,1.2950
5174.00,1.2996
5173.00,1.3038
5172.00,1.3077
5171.00,1.3110
5170.00,1.3141
5169.00,1.3167
5168.00,1.3190
5167.00,1.3208
5166.00,1.3221
5165.00,1.3230
5164.00,1.3236
5163.00,1.3237
5162.00,1.3235
5161.00,1.3230
5160.00,1.3221
5159.00,1.3206
5158.00,1.3185
5157.00,1.3159
5156.00,1.3127
5155.00,1.3090
5154.00,1.3050
5153.00,1.3008
5152.00,1.2965
5151.00,1.2920
5150.00,1.2872
5149.00,1.2819
5148.00,1.2760
5147.00,1.2696
5146.00,1.2628
5145.00,1.2556
5144.00,1.2482
5143.00,1.2402
5142.00,1.2316
5141.00,1.2223
5140.00,1.2127
5139.00,1.2028
5138.00,1.1926
5137.00,1.1820
5136.00,1.1709
5135.00,1.1592
5134.00,1.1469
5133.00,1.1343
5132.00,1.1215
5131.00,1.1085
5130.00,1.0952
5129.00,1.0814
5128.00,1.0672
5127.00,1.0526
5126.00,1.0377
5125.00,1.0227
5124.00,1.0075
5123.00,0.9923
5122.00,0.9770
5121.00,0.9614
5120.00,0.9457
5119.00,0.9298
5118.00,0.9139
5117.00,0.8981
5116.00,0.8826
5115.00,0.8673
5114.00,0.8524
5113.00,0.8379
5112.00,0.8237
5111.00,0.8099
5110.00,0.7966
5109.00,0.7837
5108.00,0.7715
5107.00,0.7598
5106.00,0.7490
5105.00,0.7388
5104.00,0.7294
5103.00,0.7208
5102.00,0.7130
5101.00,0.7061
5100.00,0.7001
5099.00,0.6949
5098.00,0.6907
5097.00,0.6875
5096.00,0.6852
5095.00,0.6839
5094.00,0.6838
5093.00,0.6847
5092.00,0.6866
5091.00,0.6895
5090.00,0.6933
5089.00,0.6981
5088.00,0.7038
5087.00,0.7104
5086.00,0.7178
5085.00,0.7261
5084.00,0.7351
5083.00,0.7448
5082.00,0.7552
5081.00,0.7662
5080.00,0.7779
5079.00,0.7901
5078.00,0.8028
5077.00,0.8160
5076.00,0.8295
5075.00,0.8432
5074.00,0.8573
5073.00,0.8716
5072.00,0.8861
5071.00,0.9009
5070.00,0.9158
5069.00,0.9308
5068.00,0.9457
5067.00,0.9607
5066.00,0.9758
5065.00,0.9908
5064.00,1.0058
5063.00,1.0208
5062.00,1.0356
5061.00,1.0504
5060.00,1.0649
5059.00,1.0791
5058.00,1.0929
5057.00,1.1065
5056.00,1.1199
5055.00,1.1331
5054.00,1.1462
5053.00,1.1589
5052.00,1.1713
5051.00,1.1831
5050.00,1.1945
5049.00,1.2056
5048.00,1.2162
5047.00,1.2266
5046.00,1.2368
5045.00,1.2468
5044.00,1.2564
5043.00,1.2655
5042.00,1.2741
5041.00,1.2820
5040.00,1.2893
5039.00,1.2962
5038.00,1.3029
5037.00,1.3096
5036.00,1.3162
5035.00,1.3224
5034.00,1.3281
5033.00,1.3332
5032.00,1.3375
5031.00,1.3413
5030.00,1.3447
5029.00,1.3479
5028.00,1.3508
5027.00,1.3534
5026.00,1.3554
5025.00,1.3570
5024.00,1.3580
5023.00,1.3586
5022.00,1.3588
5021.00,1.3588
5020.00,1.3586
5019.00,1.3581
5018.00,1.3573
5017.00,1.3559
5016.00,1.3539
5015.00,1.3512
5014.00,1.3478
5013.00,1.3440
5012.00,1.3400
5011.00,1.3358
5010.00,1.3314
5009.00,1.3267
5008.00,1.3215
5007.00,1.3159
5006.00,1.3097
5005.00,1.3031
5004.00,1.2961
5003.00,1.2888
5002.00,1.2809
5001.00,1.2727
5000.00,1.2639
4999.00,1.2547
4998.00,1.2450
4997.00,1.2349
4996.00,1.2244
4995.00,1.2134
4994.00,1.2019
4993.00,1.1899
4992.00,1.1775
4991.00,1.1647
4990.00,1.1516
4989.00,1.1382
4988.00,1.1244
4987.00,1.1102
4986.00,1.0956
4985.00,1.0804
4984.00,1.0648
4983.00,1.0490
4982.00,1.0331
4981.00,1.0170
4980.00,1.0009
4979.00,0.9847
4978.00,0.9683
4977.00,0.9519
4976.00,0.9355
4975.00,0.9192
4974.00,0.9030
4973.00,0.8871
4972.00,0.8713
4971.00,0.8559
4970.00,0.8408
4969.00,0.8263
4968.00,0.8122
4967.00,0.7986
4966.00,0.7856
4965.00,0.7733
4964.00,0.7617
4963.00,0.7510
4962.00,0.7410
4961.00,0.7319
4960.00,0.7237
4959.00,0.7165
4958.00,0.7103
4957.00,0.7052
4956.00,0.7013
4955.00,0.6984
4954.00,0.6966
4953.00,0.6959
4952.00,0.6962
4951.00,0.6977
4950.00,0.7004
4949.00,0.7041
4948.00,0.7088
4947.00,0.7145
4946.00,0.7212
4945.00,0.7289
4944.00,0.7374
4943.00,0.7467
4942.00,0.7568
4941.00,0.7677
4940.00,0.7793
4939.00,0.7914
4938.00,0.8042
4937.00,0.8174
4936.00,0.8311
4935.00,0.8451
4934.00,0.8596
4933.00,0.8744
4932.00,0.8894
4931.00,0.9047
4930.00,0.9201
4929.00,0.9356
4928.00,0.9512
4927.00,0.9670
4926.00,0.9828
4925.00,0.9987
4924.00,1.0145
4923.00,1.0302
4922.00,1.0457
4921.00,1.0611
4920.00,1.0763
4919.00,1.0912
4918.00,1.1061
4917.00,1.1207
4916.00,1.1351
4915.00,1.1494
4914.00,1.1633
4913.00,1.1769
4912.00,1.1900
4911.00,1.2027
4910.00,1.2149
4909.00,1.2268
4908.00,1.2384
4907.00,1.2497
4906.00,1.2607
4905.00,1.2713
4904.00,1.2813
4903.00,1.2907
4902.00,1.2996
4901.00,1.3081
4900.00,1.3163
4899.00,1.3241
4898.00,1.3316
4897.00,1.3385
4896.00,1.3450
4895.00,1.3512
4894.00,1.3570
4893.00,1.3625
4892.00,1.3675
4891.00,1.3720
4890.00,1.3758
4889.00,1.3791
4888.00,1.3820
4887.00,1.3846
4886.00,1.3870
4885.00,1.3890
4884.00,1.3905
4883.00,1.3915
4882.00,1.3920
4881.00,1.3921
4880.00,1.3918
4879.00,1.3913
4878.00,1.3907
4877.00,1.3896
4876.00,1.3882
4875.00,1.3863
4874.00,1.3837
4873.00,1.3804
4872.00,1.3765
4871.00,1.3721
4870.00,1.3675
4869.00,1.3627
4868.00,1.3576
4867.00,1.3520
4866.00,1.3459
4865.00,1.3392
4864.00,1.3320
4863.00,1.3245
4862.00,1.3168
4861.00,1.3089
4860.00,1.3004
4859.00,1.2914
4858.00,1.2818
4857.00,1.2716
4856.00,1.2608
4855.00,1.2495
4854.00,1.2378
4853.00,1.2258
4852.00,1.2134
4851.00,1.2006
4850.00,1.1873
4849.00,1.1735
4848.00,1.1593
4847.00,1.1446
4846.00,1.1296
4845.00,1.1144
4844.00,1.0990
4843.00,1.0831
4842.00,1.0669
4841.00,1.0504
4840.00,1.0337
4839.00,1.0169
4838.00,0.9999
4837.00,0.9828
4836.00,0.9656
4835.00,0.9485
4834.00,0.9315
4833.00,0.9146
4832.00,0.8979
4831.00,0.8815
4830.00,0.8653
4829.00,0.8495
4828.00,0.8342
4827.00,0.8194
4826.00,0.8052
4825.00,0.7916
4824.00,0.7787
4823.00,0.7665
4822.00,0.7552
4821.00,0.7446
4820.00,0.7350
4819.00,0.7263
4818.00,0.7186
4817.00,0.7121
4816.00,0.7066
4815.00,0.7023
4814.00,0.6992
4813.00,0.6973
4812.00,0.6966
4811.00,0.6970
4810.00,0.6987
4809.00,0.7016
4808.00,0.7057
4807.00,0.7109
4806.00,0.7172
4805.00,0.7245
4804.00,0.7327
4803.00,0.7419
4802.00,0.7519
4801.00,0.7629
4800.00,0.7746
4799.00,0.7870
4798.00,0.8001
4797.00,0.8139
4796.00,0.8281
4795.00,0.8429
4794.00,0.8580
4793.00,0.8735
4792.00,0.8894
4791.00,0.9055
4790.00,0.9219
4789.00,0.9386
4788.00,0.9552
4787.00,0.9719
4786.00,0.9885
4785.00,1.0052
4784.00,1.0218
4783.00,1.0385
4782.00,1.0551
4781.00,1.0716
4780.00,1.0878
4779.00,1.1038
4778.00,1.1195
4777.00,1.1349
4776.00,1.1501
4775.00,1.1650
4774.00,1.1797
4773.00,1.1940
4772.00,1.2081
4771.00,1.2217
4770.00,1.2350
4769.00,1.2478
4768.00,1.2602
4767.00,1.2722
4766.00,1.2838
4765.00,1.2952
4764.00,1.3061
4763.00,1.3166
4762.00,1.3266
4761.00,1.3360
4760.00,1.3449
4759.00,1.3533
4758.00,1.3613
4757.00,1.3690
4756.00,1.3764
4755.00,1.3833
4754.00,1.3898
4753.00,1.3958
4752.00,1.4013
4751.00,1.4062
4750.00,1.4106
4749.00,1.4147
4748.00,1.4184
4747.00,1.4219
4746.00,1.4251
4745.00,1.4279
4744.00,1.4303
4743.00,1.4318
4742.00,1.4327
4741.00,1.4332
4740.00,1.4336
4739.00,1.4339
4738.00,1.4338
4737.00,1.4332
4736.00,1.4319
4735.00,1.4298
4734.00,1.4274
4733.00,1.4249
4732.00,1.4222
4731.00,1.4193
4730.00,1.4158
4729.00,1.4116
4728.00,1.4069
4727.00,1.4019
4726.00,1.3966
4725.00,1.3910
4724.00,1.3850
4723.00,1.3785
4722.00,1.3713
4721.00,1.3635
4720.00,1.3553
4719.00,1.3466
4718.00,1.3374
4717.00,1.3276
4716.00,1.3173
4715.00,1.3066
4714.00,1.2956
4713.00,1.2842
4712.00,1.2722
4711.00,1.2598
4710.00,1.2467
4709.00,1.2331
4708.00,1.2191
4707.00,1.2046
4706.00,1.1899
4705.00,1.1747
4704.00,1.1590
4703.00,1.1427
4702.00,1.1259
4701.00,1.1088
4700.00,1.0915
4699.00,1.0739
4698.00,1.0562
4697.00,1.0382
4696.00,1.0199
4695.00,1.0015
4694.00,0.9831
4693.00,0.9648
4692.00,0.9467
4691.00,0.9289
4690.00,0.9112
4689.00,0.8939
4688.00,0.8769
4687.00,0.8602
4686.00,0.8441
4685.00,0.8285
4684.00,0.8136
4683.00,0.7995
4682.00,0.7861
4681.00,0.7736
4680.00,0.7621
4679.00,0.7516
4678.00,0.7421
4677.00,0.7338
4676.00,0.7266
4675.00,0.7205
4674.00,0.7157
4673.00,0.7122
4672.00,0.7099
4671.00,0.7090
4670.00,0.7094
4669.00,0.7111
4668.00,0.7141
4667.00,0.7184
4666.00,0.7239
4665.00,0.7306
4664.00,0.7384
4663.00,0.7473
4662.00,0.7573
4661.00,0.7682
4660.00,0.7799
4659.00,0.7925
4658.00,0.8058
4657.00,0.8198
4656.00,0.8345
4655.00,0.8497
4654.00,0.8653
4653.00,0.8814
4652.00,0.8979
4651.00,0.9147
4650.00,0.9319
4649.00,0.9491
4648.00,0.9665
4647.00,0.9838
4646.00,1.0012
4645.00,1.0186
4644.00,1.0361
4643.00,1.0536
4642.00,1.0711
4641.00,1.0884
4640.00,1.1056
4639.00,1.1227
4638.00,1.1395
4637.00,1.1560
4636.00,1.1721
4635.00,1.1878
4634.00,1.2031
4633.00,1.2180
4632.00,1.2325
4631.00,1.2469
4630.00,1.2609
4629.00,1.2747
4628.00,1.2882
4627.00,1.3014
4626.00,1.3141
4625.00,1.3263
4624.00,1.3378
4623.00,1.3487
4622.00,1.3590
4621.00,1.3688
4620.00,1.3782
4619.00,1.3872
4618.00,1.3958
4617.00,1.4038
4616.00,1.4113
4615.00,1.4184
4614.00,1.4252
4613.00,1.4315
4612.00,1.4375
4611.00,1.4428
4610.00,1.4476
4609.00,1.4518
4608.00,1.4556
4607.00,1.4589
4606.00,1.4620
4605.00,1.4648
4604.00,1.4673
4603.00,1.4695
4602.00,1.4714
4601.00,1.4726
4600.00,1.4733
4599.00,1.4736
4598.00,1.4737
4597.00,1.4737
4596.00,1.4733
4595.00,1.4723
4594.00,1.4706
4593.00,1.4683
4592.00,1.4656
4591.00,1.4627
4590.00,1.4595
4589.00,1.4558
4588.00,1.4516
4587.00,1.4471
4586.00,1.4422
4585.00,1.4369
4584.00,1.4312
4583.00,1.4249
4582.00,1.4180
4581.00,1.4105
4580.00,1.4026
4579.00,1.3941
4578.00,1.3851
4577.00,1.3756
4576.00,1.3656
4575.00,1.3551
4574.00,1.3442
4573.00,1.3327
4572.00,1.3205
4571.00,1.3078
4570.00,1.2947
4569.00,1.2811
4568.00,1.2670
4567.00,1.2523
4566.00,1.2369
4565.00,1.2211
4564.00,1.2048
4563.00,1.1881
4562.00,1.1709
4561.00,1.1534
4560.00,1.1354
4559.00,1.1171
4558.00,1.0986
4557.00,1.0800
4556.00,1.0611
4555.00,1.0420
4554.00,1.0228
4553.00,1.0037
4552.00,0.9845
4551.00,0.9655
4550.00,0.9468
4549.00,0.9282
4548.00,0.9099
4547.00,0.8920
4546.00,0.8746
4545.00,0.8579
4544.00,0.8418
4543.00,0.8263
4542.00,0.8116
4541.00,0.7978
4540.00,0.7849
4539.00,0.7731
4538.00,0.7623
4537.00,0.7527
4536.00,0.7443
4535.00,0.7372
4534.00,0.7315
4533.00,0.7271
4532.00,0.7241
4531.00,0.7226
4530.00,0.7224
4529.00,0.7238
4528.00,0.7265
4527.00,0.7306
4526.00,0.7361
4525.00,0.7430
4524.00,0.7511
4523.00,0.7605
4522.00,0.7710
4521.00,0.7825
4520.00,0.7949
4519.00,0.8081
4518.00,0.8223
4517.00,0.8373
4516.00,0.8530
4515.00,0.8694
4514.00,0.8862
4513.00,0.9035
4512.00,0.9210
4511.00,0.9389
4510.00,0.9571
4509.00,0.9755
4508.00,0.9942
4507.00,1.0129
4506.00,1.0317
4505.00,1.0504
4504.00,1.0691
4503.00,1.0875
4502.00,1.1059
4501.00,1.1242
4500.00,1.1425
4499.00,1.1607
4498.00,1.1786
4497.00,1.1961
4496.00,1.2131
4495.00,1.2296
4494.00,1.2458
4493.00,1.2616
4492.00,1.2769
4491.00,1.2917
4490.00,1.3060
4489.00,1.3199
4488.00,1.3334
4487.00,1.3463
4486.00,1.3586
4485.00,1.3704
4484.00,1.3815
4483.00,1.3921
4482.00,1.4022
4481.00,1.4118
4480.00,1.4210
4479.00,1.4298
4478.00,1.4383
4477.00,1.4464
4476.00,1.4542
4475.00,1.4618
4474.00,1.4690
4473.00,1.4760
4472.00,1.4826
4471.00,1.4888
4470.00,1.4945
4469.00,1.4996
4468.00,1.5041
4467.00,1.5080
4466.00,1.5117
4465.00,1.5152
4464.00,1.5185
4463.00,1.5215
4462.00,1.5240
4461.00,1.5259
4460.00,1.5272
4459.00,1.5281
4458.00,1.5285
4457.00,1.5285
4456.00,1.5280
4455.00,1.5272
4454.00,1.5263
4453.00,1.5252
4452.00,1.5239
4451.00,1.5222
4450.00,1.5198
4449.00,1.5168
4448.00,1.5134
4447.00,1.5097
4446.00,1.5058
4445.00,1.5018
4444.00,1.4975
4443.00,1.4930
4442.00,1.4883
4441.00,1.4832
4440.00,1.4777
4439.00,1.4716
4438.00,1.4650
4437.00,1.4579
4436.00,1.4502
4435.00,1.4418
4434.00,1.4327
4433.00,1.4228
4432.00,1.4123
4431.00,1.4013
4430.00,1.3895
4429.00,1.3769
4428.00,1.3635
4427.00,1.3496
4426.00,1.3352
4425.00,1.3203
4424.00,1.3047
4423.00,1.2884
4422.00,1.2714
4421.00,1.2538
4420.00,1.2358
4419.00,1.2175
4418.00,1.1988
4417.00,1.1799
4416.00,1.1608
4415.00,1.1417
4414.00,1.1224
4413.00,1.1031
4412.00,1.0838
4411.00,1.0648
4410.00,1.0461
4409.00,1.0279
4408.00,1.0103
4407.00,0.9935
4406.00,0.9775
4405.00,0.9623
4404.00,0.9481
4403.00,0.9348
4402.00,0.9224
4401.00,0.9109
4400.00,0.9002
4399.00,0.8902
4398.00,0.8809
4397.00,0.8722
4396.00,0.8641
4395.00,0.8566
4394.00,0.8497
4393.00,0.8435
4392.00,0.8383
4391.00,0.8340
4390.00,0.8310
4389.00,0.8293
4388.00,0.8290
4387.00,0.8300
4386.00,0.8325
4385.00,0.8365
4384.00,0.8420
4383.00,0.8488
4382.00,0.8571
4381.00,0.8667
4380.00,0.8775
4379.00,0.8894
4378.00,0.9023
4377.00,0.9160
4376.00,0.9305
4375.00,0.9454
4374.00,0.9608
4373.00,0.9766
4372.00,0.9927
4371.00,1.0090
4370.00,1.0253
4369.00,1.0416
4368.00,1.0576
4367.00,1.0733
4366.00,1.0887
4365.00,1.1036
4364.00,1.1183
4363.00,1.1327
4362.00,1.1469
4361.00,1.1609
4360.00,1.1748
4359.00,1.1885
4358.00,1.2022
4357.00,1.2160
4356.00,1.2299
4355.00,1.2438
4354.00,1.2576
4353.00,1.2713
4352.00,1.2851
4351.00,1.2990
4350.00,1.3129
4349.00,1.3267
4348.00,1.3404
4347.00,1.3540
4346.00,1.3673
4345.00,1.3805
4344.00,1.3933
4343.00,1.4057
4342.00,1.4179
4341.00,1.4298
4340.00,1.4413
4339.00,1.4523
4338.00,1.4629
4337.00,1.4728
4336.00,1.4822
4335.00,1.4911
4334.00,1.4996
4333.00,1.5078
4332.00,1.5157
4331.00,1.5235
4330.00,1.5308
4329.00,1.5376
4328.00,1.5438
4327.00,1.5495
4326.00,1.5545
4325.00,1.5590
4324.00,1.5628
4323.00,1.5661
4322.00,1.5691
4321.00,1.5718
4320.00,1.5742
4319.00,1.5764
4318.00,1.5782
4317.00,1.5795
4316.00,1.5801
4315.00,1.5800
4314.00,1.5792
4313.00,1.5781
4312.00,1.5765
4311.00,1.5747
4310.00,1.5724
4309.00,1.5699
4308.00,1.5672
4307.00,1.5643
4306.00,1.5610
4305.00,1.5572
4304.00,1.5528
4303.00,1.5477
4302.00,1.5422
4301.00,1.5362
4300.00,1.5298
4299.00,1.5230
4298.00,1.5159
4297.00,1.5084
4296.00,1.5002
4295.00,1.4913
4294.00,1.4817
4293.00,1.4716
4292.00,1.4609
4291.00,1.4498
4290.00,1.4382
4289.00,1.4263
4288.00,1.4139
4287.00,1.4009
4286.00,1.3874
4285.00,1.3733
4284.00,1.3585
4283.00,1.3432
4282.00,1.3272
4281.00,1.3107
4280.00,1.2934
4279.00,1.2755
4278.00,1.2570
4277.00,1.2380
4276.00,1.2186
4275.00,1.1987
4274.00,1.1784
4273.00,1.1577
4272.00,1.1365
4271.00,1.1151
4270.00,1.0934
4269.00,1.0715
4268.00,1.0495
4267.00,1.0277
4266.00,1.0059
4265.00,0.9843
4264.00,0.9630
4263.00,0.9421
4262.00,0.9216
4261.00,0.9017
4260.00,0.8825
4259.00,0.8642
4258.00,0.8468
4257.00,0.8305
4256.00,0.8154
4255.00,0.8014
4254.00,0.7888
4253.00,0.7776
4252.00,0.7678
4251.00,0.7596
4250.00,0.7530
4249.00,0.7480
4248.00,0.7447
4247.00,0.7432
4246.00,0.7434
4245.00,0.7453
4244.00,0.7489
4243.00,0.7542
4242.00,0.7612
4241.00,0.7697
4240.00,0.7796
4239.00,0.7909
4238.00,0.8035
4237.00,0.8172
4236.00,0.8321
4235.00,0.8479
4234.00,0.8645
4233.00,0.8820
4232.00,0.9000
4231.00,0.9187
4230.00,0.9380
4229.00,0.9577
4228.00,0.9779
4227.00,0.9984
4226.00,1.0190
4225.00,1.0396
4224.00,1.0603
4223.00,1.0810
4222.00,1.1019
4221.00,1.1228
4220.00,1.1436
4219.00,1.1642
4218.00,1.1845
4217.00,1.2046
4216.00,1.2243
4215.00,1.2437
4214.00,1.2628
4213.00,1.2814
4212.00,1.2996
4211.00,1.3173
4210.00,1.3346
4209.00,1.3516
4208.00,1.3681
4207.00,1.3842
4206.00,1.3998
4205.00,1.4148
4204.00,1.4294
4203.00,1.4435
4202.00,1.4571
4201.00,1.4699
4200.00,1.4822
4199.00,1.4937
4198.00,1.5048
4197.00,1.5153
4196.00,1.5255
4195.00,1.5352
4194.00,1.5446
4193.00,1.5535
4192.00,1.5618
4191.00,1.5696
4190.00,1.5767
4189.00,1.5833
4188.00,1.5892
4187.00,1.5947
4186.00,1.5997
4185.00,1.6045
4184.00,1.6088
4183.00,1.6127
4182.00,1.6161
4181.00,1.6191
4180.00,1.6216
4179.00,1.6237
4178.00,1.6254
4177.00,1.6268
4176.00,1.6280
4175.00,1.6287
4174.00,1.6287
4173.00,1.6282
4172.00,1.6271
4171.00,1.6256
4170.00,1.6238
4169.00,1.6217
4168.00,1.6192
4167.00,1.6165
4166.00,1.6134
4165.00,1.6097
4164.00,1.6053
4163.00,1.6003
4162.00,1.5948
4161.00,1.5890
4160.00,1.5829
4159.00,1.5766
4158.00,1.5699
4157.00,1.5625
4156.00,1.5545
4155.00,1.5458
4154.00,1.5364
4153.00,1.5266
4152.00,1.5161
4151.00,1.5052
4150.00,1.4939
4149.00,1.4821
4148.00,1.4696
4147.00,1.4566
4146.00,1.4429
4145.00,1.4288
4144.00,1.4141
4143.00,1.3990
4142.00,1.3832
4141.00,1.3667
4140.00,1.3494
4139.00,1.3314
4138.00,1.3127
4137.00,1.2934
4136.00,1.2736
4135.00,1.2531
4134.00,1.2321
4133.00,1.2106
4132.00,1.1887
4131.00,1.1664
4130.00,1.1439
4129.00,1.1211
4128.00,1.0981
4127.00,1.0750
4126.00,1.0519
4125.00,1.0291
4124.00,1.0065
4123.00,0.9842
4122.00,0.9625
4121.00,0.9413
4120.00,0.9208
4119.00,0.9010
4118.00,0.8822
4117.00,0.8644
4116.00,0.8478
4115.00,0.8325
4114.00,0.8186
4113.00,0.8062
4112.00,0.7954
4111.00,0.7862
4110.00,0.7788
4109.00,0.7732
4108.00,0.7693
4107.00,0.7673
4106.00,0.7672
4105.00,0.7689
4104.00,0.7726
4103.00,0.7780
4102.00,0.7850
4101.00,0.7937
4100.00,0.8039
4099.00,0.8156
4098.00,0.8287
4097.00,0.8431
4096.00,0.8587
4095.00,0.8754
4094.00,0.8930
4093.00,0.9115
4092.00,0.9307
4091.00,0.9506
4090.00,0.9710
4089.00,0.9920
4088.00,1.0135
4087.00,1.0352
4086.00,1.0572
4085.00,1.0793
4084.00,1.1015
4083.00,1.1237
4082.00,1.1457
4081.00,1.1676
4080.00,1.1893
4079.00,1.2108
4078.00,1.2321
4077.00,1.2532
4076.00,1.2740
4075.00,1.2943
4074.00,1.3143
4073.00,1.3337
4072.00,1.3526
4071.00,1.3709
4070.00,1.3886
4069.00,1.4060
4068.00,1.4230
4067.00,1.4395
4066.00,1.4555
4065.00,1.4709
4064.00,1.4858
4063.00,1.5003
4062.00,1.5142
4061.00,1.5276
4060.00,1.5402
4059.00,1.5521
4058.00,1.5634
4057.00,1.5742
4056.00,1.5847
4055.00,1.5946
4054.00,1.6039
4053.00,1.6124
4052.00,1.6204
4051.00,1.6279
4050.00,1.6351
4049.00,1.6420
4048.00,1.6484
4047.00,1.6544
4046.00,1.6599
4045.00,1.6650
4044.00,1.6698
4043.00,1.6742
4042.00,1.6781
4041.00,1.6814
4040.00,1.6840
4039.00,1.6862
4038.00,1.6884
4037.00,1.6904
4036.00,1.6921
4035.00,1.6933
4034.00,1.6939
4033.00,1.6940
4032.00,1.6936
4031.00,1.6928
4030.00,1.6914
4029.00,1.6897
4028.00,1.6874
4027.00,1.6848
4026.00,1.6815
4025.00,1.6779
4024.00,1.6738
4023.00,1.6695
4022.00,1.6648
4021.00,1.6597
4020.00,1.6541
4019.00,1.6479
4018.00,1.6410
4017.00,1.6335
4016.00,1.6254
4015.00,1.6169
4014.00,1.6079
4013.00,1.5984
4012.00,1.5885
4011.00,1.5779
4010.00,1.5667
4009.00,1.5548
4008.00,1.5424
4007.00,1.5294
4006.00,1.5159
4005.00,1.5019
4004.00,1.4874
4003.00,1.4721
4002.00,1.4560
4001.00,1.4391
4000.00,1.4214
3999.00,1.4031
3998.00,1.3843
3997.00,1.3650
3996.00,1.3451
3995.00,1.3246
3994.00,1.3034
3993.00,1.2817
3992.00,1.2594
3991.00,1.2366
3990.00,1.2134
3989.00,1.1900
3988.00,1.1664
3987.00,1.1429
3986.00,1.1196
3985.00,1.0966
3984.00,1.0741
3983.00,1.0521
3982.00,1.0306
3981.00,1.0099
3980.00,0.9899
3979.00,0.9708
3978.00,0.9527
3977.00,0.9356
3976.00,0.9194
3975.00,0.9041
3974.00,0.8894
3973.00,0.8756
3972.00,0.8626
3971.00,0.8506
3970.00,0.8397
3969.00,0.8301
3968.00,0.8219
3967.00,0.8153
3966.00,0.8104
3965.00,0.8074
3964.00,0.8064
3963.00,0.8075
3962.00,0.8105
3961.00,0.8156
3960.00,0.8226
3959.00,0.8314
3958.00,0.8420
3957.00,0.8543
3956.00,0.8681
3955.00,0.8833
3954.00,0.8997
3953.00,0.9171
3952.00,0.9354
3951.00,0.9547
3950.00,0.9750
3949.00,0.9961
3948.00,1.0179
3947.00,1.0402
3946.00,1.0627
3945.00,1.0853
3944.00,1.1081
3943.00,1.1312
3942.00,1.1549
3941.00,1.1788
3940.00,1.2024
3939.00,1.2256
3938.00,1.2481
3937.00,1.2701
3936.00,1.2916
3935.00,1.3127
3934.00,1.3334
3933.00,1.3540
3932.00,1.3748
3931.00,1.3956
3930.00,1.4160
3929.00,1.4357
3928.00,1.4543
3927.00,1.4721
3926.00,1.4890
3925.00,1.5056
3924.00,1.5217
3923.00,1.5375
3922.00,1.5524
3921.00,1.5665
3920.00,1.5796
3919.00,1.5922
3918.00,1.6043
3917.00,1.6162
3916.00,1.6279
3915.00,1.6393
3914.00,1.6502
3913.00,1.6605
3912.00,1.6699
3911.00,1.6785
3910.00,1.6860
3909.00,1.6927
3908.00,1.6987
3907.00,1.7041
3906.00,1.7090
3905.00,1.7134
3904.00,1.7176
3903.00,1.7219
3902.00,1.7262
3901.00,1.7304
3900.00,1.7342
3899.00,1.7377
3898.00,1.7409
3897.00,1.7436
3896.00,1.7457
3895.00,1.7474
3894.00,1.7487
3893.00,1.7496
3892.00,1.7494
3891.00,1.7482
3890.00,1.7465
3889.00,1.7448
3888.00,1.7429
3887.00,1.7401
3886.00,1.7363
3885.00,1.7318
3884.00,1.7274
3883.00,1.7232
3882.00,1.7189
3881.00,1.7142
3880.00,1.7092
3879.00,1.7040
3878.00,1.6986
3877.00,1.6927
3876.00,1.6855
3875.00,1.6769
3874.00,1.6674
3873.00,1.6577
3872.00,1.6479
3871.00,1.6372
3870.00,1.6253
3869.00,1.6127
3868.00,1.6004
3867.00,1.5883
3866.00,1.5758
3865.00,1.5623
3864.00,1.5481
3863.00,1.5332
3862.00,1.5176
3861.00,1.5010
3860.00,1.4834
3859.00,1.4649
3858.00,1.4460
3857.00,1.4273
3856.00,1.4084
3855.00,1.3877
3854.00,1.3630
3853.00,1.3351
3852.00,1.3069
3851.00,1.2807
3850.00,1.2567
3849.00,1.2338
3848.00,1.2111
3847.00,1.1881
3846.00,1.1641
3845.00,1.1388
3844.00,1.1120
3843.00,1.0844
3842.00,1.0569
3841.00,1.0303
3840.00,1.0044
3839.00,0.9786
3838.00,0.9526
3837.00,0.9270
3836.00,0.9032
3835.00,0.8819
3834.00,0.8632
3833.00,0.8464
3832.00,0.8312
3831.00,0.8177
3830.00,0.8063
3829.00,0.7970
3828.00,0.7897
3827.00,0.7841
3826.00,0.7804
3825.00,0.7789
3824.00,0.7803
3823.00,0.7843
3822.00,0.7905
3821.00,0.7986
3820.00,0.8085
3819.00,0.8202
3818.00,0.8337
3817.00,0.8498
3816.00,0.8690
3815.00,0.8910
3814.00,0.9136
3813.00,0.9356
3812.00,0.9571
3811.00,0.9789
3810.00,1.0014
3809.00,1.0245
3808.00,1.0484
3807.00,1.0736
3806.00,1.1000
3805.00,1.1262
3804.00,1.1509
3803.00,1.1745
3802.00,1.1987
3801.00,1.2253
3800.00,1.2539
3799.00,1.2822
3798.00,1.3085
3797.00,1.3333
3796.00,1.3576
3795.00,1.3817
3794.00,1.4053
3793.00,1.4278
3792.00,1.4494
3791.00,1.4702
3790.00,1.4903
3789.00,1.5097
3788.00,1.5285
3787.00,1.5469
3786.00,1.5646
3785.00,1.5814
3784.00,1.5974
3783.00,1.6128
3782.00,1.6278
3781.00,1.6424
3780.00,1.6565
3779.00,1.6701
3778.00,1.6830
3777.00,1.6951
3776.00,1.7063
3775.00,1.7167
3774.00,1.7263
3773.00,1.7354
3772.00,1.7435
3771.00,1.7508
3770.00,1.7576
3769.00,1.7647
3768.00,1.7718
3767.00,1.7785
3766.00,1.7844
3765.00,1.7896
3764.00,1.7945
3763.00,1.7989
3762.00,1.8030
3761.00,1.8065
3760.00,1.8096
3759.00,1.8123
3758.00,1.8143
3757.00,1.8153
3756.00,1.8153
3755.00,1.8146
3754.00,1.8133
3753.00,1.8117
3752.00,1.8096
3751.00,1.8070
3750.00,1.8040
3749.00,1.8006
3748.00,1.7972
3747.00,1.7942
3746.00,1.7911
3745.00,1.7875
3744.00,1.7835
3743.00,1.7797
3742.00,1.7759
3741.00,1.7715
3740.00,1.7662
3739.00,1.7603
3738.00,1.7538
3737.00,1.7463
3736.00,1.7378
3735.00,1.7284
3734.00,1.7186
3733.00,1.7082
3732.00,1.6972
3731.00,1.6860
3730.00,1.6749
3729.00,1.6636
3728.00,1.6517
3727.00,1.6387
3726.00,1.6246
3725.00,1.6094
3724.00,1.5930
3723.00,1.5754
3722.00,1.5571
3721.00,1.5382
3720.00,1.5188
3719.00,1.4986
3718.00,1.4773
3717.00,1.4550
3716.00,1.4323
3715.00,1.4091
3714.00,1.3852
3713.00,1.3596
3712.00,1.3320
3711.00,1.3029
3710.00,1.2737
3709.00,1.2451
3708.00,1.2172
3707.00,1.1901
3706.00,1.1639
3705.00,1.1383
3704.00,1.1129
3703.00,1.0875
3702.00,1.0620
3701.00,1.0371
3700.00,1.0136
3699.00,0.9922
3698.00,0.9729
3697.00,0.9554
3696.00,0.9397
3695.00,0.9261
3694.00,0.9146
3693.00,0.9055
3692.00,0.8989
3691.00,0.8952
3690.00,0.8944
3689.00,0.8964
3688.00,0.9011
3687.00,0.9085
3686.00,0.9183
3685.00,0.9306
3684.00,0.9453
3683.00,0.9624
3682.00,0.9810
3681.00,1.0003
3680.00,1.0200
3679.00,1.0402
3678.00,1.0613
3677.00,1.0835
3676.00,1.1078
3675.00,1.1345
3674.00,1.1618
3673.00,1.1878
3672.00,1.2124
3671.00,1.2373
3670.00,1.2643
3669.00,1.2930
3668.00,1.3216
3667.00,1.3486
3666.00,1.3737
3665.00,1.3975
3664.00,1.4207
3663.00,1.4434
3662.00,1.4654
3661.00,1.4867
3660.00,1.5071
3659.00,1.5267
3658.00,1.5455
3657.00,1.5640
3656.00,1.5823
3655.00,1.6002
3654.00,1.6168
3653.00,1.6314
3652.00,1.6448
3651.00,1.6580
3650.00,1.6721
3649.00,1.6871
3648.00,1.7026
3647.00,1.7183
3646.00,1.7337
3645.00,1.7485
3644.00,1.7626
3643.00,1.7758
3642.00,1.7882
3641.00,1.7995
3640.00,1.8101
3639.00,1.8200
3638.00,1.8292
3637.00,1.8381
3636.00,1.8468
3635.00,1.8547
3634.00,1.8616
3633.00,1.8676
3632.00,1.8733
3631.00,1.8789
3630.00,1.8843
3629.00,1.8897
3628.00,1.8958
3627.00,1.9023
3626.00,1.9087
3625.00,1.9146
3624.00,1.9200
3623.00,1.9247
3622.00,1.9283
3621.00,1.9311
3620.00,1.9333
3619.00,1.9352
3618.00,1.9369
3617.00,1.9383
3616.00,1.9393
3615.00,1.9396
3614.00,1.9393
3613.00,1.9390
3612.00,1.9391
3611.00,1.9394
3610.00,1.9393
3609.00,1.9387
3608.00,1.9379
3607.00,1.9369
3606.00,1.9353
3605.00,1.9330
3604.00,1.9300
3603.00,1.9267
3602.00,1.9230
3601.00,1.9191
3600.00,1.9145
3599.00,1.9092
3598.00,1.9032
3597.00,1.8969
3596.00,1.8907
3595.00,1.8842
3594.00,1.8770
3593.00,1.8689
3592.00,1.8604
3591.00,1.8515
3590.00,1.8422
3589.00,1.8324
3588.00,1.8221
3587.00,1.8113
3586.00,1.8000
3585.00,1.7884
3584.00,1.7764
3583.00,1.7642
3582.00,1.7516
3581.00,1.7387
3580.00,1.7252
3579.00,1.7111
3578.00,1.6963
3577.00,1.6807
3576.00,1.6644
3575.00,1.6474
3574.00,1.6298
3573.00,1.6118
3572.00,1.5933
3571.00,1.5744
3570.00,1.5552
3569.00,1.5357
3568.00,1.5155
3567.00,1.4950
3566.00,1.4745
3565.00,1.4544
3564.00,1.4351
3563.00,1.4165
3562.00,1.3982
3561.00,1.3804
3560.00,1.3629
3559.00,1.3457
3558.00,1.3290
3557.00,1.3127
3556.00,1.2972
3555.00,1.2825
3554.00,1.2689
3553.00,1.2562
3552.00,1.2443
3551.00,1.2334
3550.00,1.2237
3549.00,1.2153
3548.00,1.2082
3547.00,1.2023
3546.00,1.1977
3545.00,1.1942
3544.00,1.1918
3543.00,1.1906
3542.00,1.1904
3541.00,1.1912
3540.00,1.1932
3539.00,1.1963
3538.00,1.2005
3537.00,1.2057
3536.00,1.2119
3535.00,1.2190
3534.00,1.2270
3533.00,1.2360
3532.00,1.2459
3531.00,1.2567
3530.00,1.2684
3529.00,1.2808
3528.00,1.2941
3527.00,1.3082
3526.00,1.3230
3525.00,1.3385
3524.00,1.3546
3523.00,1.3713
3522.00,1.3886
3521.00,1.4063
3520.00,1.4243
3519.00,1.4426
3518.00,1.4613
3517.00,1.4803
3516.00,1.4997
3515.00,1.5192
3514.00,1.5383
3513.00,1.5571
3512.00,1.5756
3511.00,1.5940
3510.00,1.6122
3509.00,1.6302
3508.00,1.6481
3507.00,1.6658
3506.00,1.6831
3505.00,1.6998
3504.00,1.7160
3503.00,1.7318
3502.00,1.7472
3501.00,1.7622
3500.00,1.7769
3499.00,1.7910
3498.00,1.8046
3497.00,1.8177
3496.00,1.8305
3495.00,1.8428
3494.00,1.8546
3493.00,1.8656
3492.00,1.8762
3491.00,1.8864
3490.00,1.8962
3489.00,1.9057
3488.00,1.9147
3487.00,1.9229
3486.00,1.9302
3485.00,1.9368
3484.00,1.9434
3483.00,1.9502
3482.00,1.9568
3481.00,1.9628
3480.00,1.9681
3479.00,1.9728
3478.00,1.9770
3477.00,1.9806
3476.00,1.9834
3475.00,1.9855
3474.00,1.9870
3473.00,1.9881
3472.00,1.9892
3471.00,1.9902
3470.00,1.9912
3469.00,1.9920
3468.00,1.9923
3467.00,1.9920
3466.00,1.9908
3465.00,1.9892
3464.00,1.9874
3463.00,1.9854
3462.00,1.9830
3461.00,1.9802
3460.00,1.9770
3459.00,1.9731
3458.00,1.9684
3457.00,1.9629
3456.00,1.9573
3455.00,1.9520
3454.00,1.9466
3453.00,1.9406
3452.00,1.9337
3451.00,1.9257
3450.00,1.9170
3449.00,1.9077
3448.00,1.8982
3447.00,1.8885
3446.00,1.8784
3445.00,1.8679
3444.00,1.8569
3443.00,1.8454
3442.00,1.8330
3441.00,1.8195
3440.00,1.8051
3439.00,1.7899
3438.00,1.7743
3437.00,1.7583
3436.00,1.7418
3435.00,1.7245
3434.00,1.7063
3433.00,1.6874
3432.00,1.6680
3431.00,1.6481
3430.00,1.6274
3429.00,1.6058
3428.00,1.5832
3427.00,1.5599
3426.00,1.5360
3425.00,1.5117
3424.00,1.4869
3423.00,1.4616
3422.00,1.4357
3421.00,1.4094
3420.00,1.3830
3419.00,1.3568
3418.00,1.3309
3417.00,1.3054
3416.00,1.2804
3415.00,1.2561
3414.00,1.2325
3413.00,1.2100
3412.00,1.1887
3411.00,1.1687
3410.00,1.1504
3409.00,1.1336
3408.00,1.1187
3407.00,1.1056
3406.00,1.0944
3405.00,1.0850
3404.00,1.0775
3403.00,1.0720
3402.00,1.0684
3401.00,1.0668
3400.00,1.0672
3399.00,1.0697
3398.00,1.0742
3397.00,1.0807
3396.00,1.0892
3395.00,1.0995
3394.00,1.1117
3393.00,1.1257
3392.00,1.1415
3391.00,1.1589
3390.00,1.1776
3389.00,1.1975
3388.00,1.2184
3387.00,1.2402
3386.00,1.2627
3385.00,1.2859
3384.00,1.3095
3383.00,1.3335
3382.00,1.3578
3381.00,1.3822
3380.00,1.4068
3379.00,1.4314
3378.00,1.4559
3377.00,1.4803
3376.00,1.5046
3375.00,1.5289
3374.00,1.5530
3373.00,1.5766
3372.00,1.5997
3371.00,1.6222
3370.00,1.6443
3369.00,1.6659
3368.00,1.6869
3367.00,1.7071
3366.00,1.7266
3365.00,1.7454
3364.00,1.7638
3363.00,1.7814
3362.00,1.7983
3361.00,1.8146
3360.00,1.8305
3359.00,1.8458
3358.00,1.8606
3357.00,1.8746
3356.00,1.8880
3355.00,1.9006
3354.00,1.9125
3353.00,1.9240
3352.00,1.9352
3351.00,1.9459
3350.00,1.9559
3349.00,1.9650
3348.00,1.9734
3347.00,1.9812
3346.00,1.9886
3345.00,1.9956
3344.00,2.0025
3343.00,2.0093
3342.00,2.0157
3341.00,2.0214
3340.00,2.0259
3339.00,2.0296
3338.00,2.0328
3337.00,2.0358
3336.00,2.0389
3335.00,2.0419
3334.00,2.0445
3333.00,2.0468
3332.00,2.0486
3331.00,2.0496
3330.00,2.0501
3329.00,2.0504
3328.00,2.0508
3327.00,2.0512
3326.00,2.0512
3325.00,2.0504
3324.00,2.0486
3323.00,2.0461
3322.00,2.0430
3321.00,2.0396
3320.00,2.0360
3319.00,2.0318
3318.00,2.0270
3317.00,2.0217
3316.00,2.0163
3315.00,2.0108
3314.00,2.0047
3313.00,1.9978
3312.00,1.9900
3311.00,1.9818
3310.00,1.9733
3309.00,1.9647
3308.00,1.9558
3307.00,1.9463
3306.00,1.9359
3305.00,1.9247
3304.00,1.9127
3303.00,1.9001
3302.00,1.8869
3301.00,1.8732
3300.00,1.8591
3299.00,1.8445
3298.00,1.8295
3297.00,1.8136
3296.00,1.7971
3295.00,1.7797
3294.00,1.7615
3293.00,1.7424
3292.00,1.7226
3291.00,1.7020
3290.00,1.6807
3289.00,1.6587
3288.00,1.6360
3287.00,1.6126
3286.00,1.5887
3285.00,1.5642
3284.00,1.5391
3283.00,1.5132
3282.00,1.4867
3281.00,1.4599
3280.00,1.4329
3279.00,1.4058
3278.00,1.3787
3277.00,1.3519
3276.00,1.3254
3275.00,1.2995
3274.00,1.2743
3273.00,1.2500
3272.00,1.2269
3271.00,1.2051
3270.00,1.1849
3269.00,1.1663
3268.00,1.1496
3267.00,1.1348
3266.00,1.1221
3265.00,1.1116
3264.00,1.1034
3263.00,1.0978
3262.00,1.0947
3261.00,1.0942
3260.00,1.0963
3259.00,1.1009
3258.00,1.1079
3257.00,1.1173
3256.00,1.1288
3255.00,1.1424
3254.00,1.1580
3253.00,1.1754
3252.00,1.1945
3251.00,1.2150
3250.00,1.2367
3249.00,1.2594
3248.00,1.2830
3247.00,1.3074
3246.00,1.3324
3245.00,1.3578
3244.00,1.3838
3243.00,1.4100
3242.00,1.4365
3241.00,1.4630
3240.00,1.4895
3239.00,1.5160
3238.00,1.5424
3237.00,1.5683
3236.00,1.5936
3235.00,1.6184
3234.00,1.6429
3233.00,1.6670
3232.00,1.6906
3231.00,1.7135
3230.00,1.7356
3229.00,1.7571
3228.00,1.7781
3227.00,1.7986
3226.00,1.8184
3225.00,1.8373
3224.00,1.8556
3223.00,1.8732
3222.00,1.8901
3221.00,1.9061
3220.00,1.9217
3219.00,1.9367
3218.00,1.9512
3217.00,1.9650
3216.00,1.9778
3215.00,1.9900
3214.00,2.0016
3213.00,2.0129
3212.00,2.0238
3211.00,2.0343
3210.00,2.0442
3209.00,2.0534
3208.00,2.0621
3207.00,2.0703
3206.00,2.0778
3205.00,2.0846
3204.00,2.0908
3203.00,2.0967
3202.00,2.1021
3201.00,2.1068
3200.00,2.1110
3199.00,2.1149
3198.00,2.1184
3197.00,2.1212
3196.00,2.1230
3195.00,2.1239
3194.00,2.1246
3193.00,2.1252
3192.00,2.1259
3191.00,2.1264
3190.00,2.1269
3189.00,2.1272
3188.00,2.1270
3187.00,2.1262
3186.00,2.1248
3185.00,2.1229
3184.00,2.1206
3183.00,2.1177
3182.00,2.1142
3181.00,2.1101
3180.00,2.1055
3179.00,2.1004
3178.00,2.0948
3177.00,2.0889
3176.00,2.0830
3175.00,2.0770
3174.00,2.0708
3173.00,2.0643
3172.00,2.0576
3171.00,2.0511
3170.00,2.0455
3169.00,2.0417
3168.00,2.0401
3167.00,2.0409
3166.00,2.0434
3165.00,2.0466
3164.00,2.0486
3163.00,2.0475
3162.00,2.0420
3161.00,2.0321
3160.00,2.0183
3159.00,2.0016
3158.00,1.9829
3157.00,1.9629
3156.00,1.9423
3155.00,1.9214
3154.00,1.9002
3153.00,1.8789
3152.00,1.8571
3151.00,1.8348
3150.00,1.8120
3149.00,1.7889
3148.00,1.7654
3147.00,1.7416
3146.00,1.7172
3145.00,1.6919
3144.00,1.6660
3143.00,1.6396
3142.00,1.6128
3141.00,1.5859
3140.00,1.5587
3139.00,1.5313
3138.00,1.5037
3137.00,1.4764
3136.00,1.4495
3135.00,1.4233
3134.00,1.3978
3133.00,1.3732
3132.00,1.3497
3131.00,1.3275
3130.00,1.3068
3129.00,1.2877
3128.00,1.2703
3127.00,1.2549
3126.00,1.2417
3125.00,1.2309
3124.00,1.2227
3123.00,1.2172
3122.00,1.2142
3121.00,1.2139
3120.00,1.2162
3119.00,1.2211
3118.00,1.2287
3117.00,1.2387
3116.00,1.2511
3115.00,1.2655
3114.00,1.2816
3113.00,1.2991
3112.00,1.3178
3111.00,1.3378
3110.00,1.3589
3109.00,1.3811
3108.00,1.4042
3107.00,1.4281
3106.00,1.4525
3105.00,1.4774
3104.00,1.5028
3103.00,1.5284
3102.00,1.5543
3101.00,1.5801
3100.00,1.6058
3099.00,1.6315
3098.00,1.6570
3097.00,1.6821
3096.00,1.7068
3095.00,1.7308
3094.00,1.7543
3093.00,1.7773
3092.00,1.8000
3091.00,1.8221
3090.00,1.8436
3089.00,1.8643
3088.00,1.8840
3087.00,1.9028
3086.00,1.9209
3085.00,1.9388
3084.00,1.9565
3083.00,1.9735
3082.00,1.9895
3081.00,2.0048
3080.00,2.0199
3079.00,2.0350
3078.00,2.0493
3077.00,2.0624
3076.00,2.0743
3075.00,2.0857
3074.00,2.0969
3073.00,2.1079
3072.00,2.1186
3071.00,2.1285
3070.00,2.1378
3069.00,2.1467
3068.00,2.1555
3067.00,2.1642
3066.00,2.1724
3065.00,2.1799
3064.00,2.1864
3063.00,2.1919
3062.00,2.1965
3061.00,2.2004
3060.00,2.2043
3059.00,2.2083
3058.00,2.2122
3057.00,2.2156
3056.00,2.2181
3055.00,2.2197
3054.00,2.2211
3053.00,2.2226
3052.00,2.2242
3051.00,2.2250
3050.00,2.2248
3049.00,2.2240
3048.00,2.2232
3047.00,2.2229
3046.00,2.2225
3045.00,2.2216
3044.00,2.2202
3043.00,2.2180
3042.00,2.2151
3041.00,2.2112
3040.00,2.2062
3039.00,2.2004
3038.00,2.1944
3037.00,2.1885
3036.00,2.1828
3035.00,2.1770
3034.00,2.1704
3033.00,2.1627
3032.00,2.1544
3031.00,2.1462
3030.00,2.1385
3029.00,2.1306
3028.00,2.1218
3027.00,2.1118
3026.00,2.1011
3025.00,2.0904
3024.00,2.0798
3023.00,2.0689
3022.00,2.0575
3021.00,2.0460
3020.00,2.0348
3019.00,2.0240
3018.00,2.0134
3017.00,2.0030
3016.00,1.9930
3015.00,1.9836
3014.00,1.9748
3013.00,1.9667
3012.00,1.9596
3011.00,1.9538
3010.00,1.9493
3009.00,1.9459
3008.00,1.9435
3007.00,1.9416
3006.00,1.9401
3005.00,1.9385
3004.00,1.9366
3003.00,1.9339
3002.00,1.9297
3001.00,1.9237
3000.00,1.9155
2999.00,1.9048
2998.00,1.8917
2997.00,1.8760
2996.00,1.8580
2995.00,1.8383
2994.00,1.8174
2993.00,1.7959
2992.00,1.7744
2991.00,1.7531
2990.00,1.7323
2989.00,1.7124
2988.00,1.6938
2987.00,1.6775
2986.00,1.6639
2985.00,1.6535
2984.00,1.6465
2983.00,1.6430
2982.00,1.6433
2981.00,1.6475
2980.00,1.6558
2979.00,1.6680
2978.00,1.6839
2977.00,1.7030
2976.00,1.7249
2975.00,1.7491
2974.00,1.7750
2973.00,1.8024
2972.00,1.8308
2971.00,1.8599
2970.00,1.8894
2969.00,1.9186
2968.00,1.9472
2967.00,1.9746
2966.00,2.0006
2965.00,2.0249
2964.00,2.0477
2963.00,2.0697
2962.00,2.0915
2961.00,2.1132
2960.00,2.1348
2959.00,2.1563
2958.00,2.1779
2957.00,2.1994
2956.00,2.2207
2955.00,2.2419
2954.00,2.2635
2953.00,2.2861
2952.00,2.3097
2951.00,2.3336
2950.00,2.3577
2949.00,2.3813
2948.00,2.4035
2947.00,2.4226
2946.00,2.4365
2945.00,2.4439
2944.00,2.4440
2943.00,2.4367
2942.00,2.4224
2941.00,2.4022
2940.00,2.3779
2939.00,2.3518
2938.00,2.3263
2937.00,2.3033
2936.00,2.2830
2935.00,2.2650
2934.00,2.2488
2933.00,2.2344
2932.00,2.2222
2931.00,2.2125
2930.00,2.2047
2929.00,2.1985
2928.00,2.1939
2927.00,2.1909
2926.00,2.1897
2925.00,2.1901
2924.00,2.1917
2923.00,2.1948
2922.00,2.1994
2921.00,2.2053
2920.00,2.2118
2919.00,2.2185
2918.00,2.2255
2917.00,2.2330
2916.00,2.2413
2915.00,2.2498
2914.00,2.2577
2913.00,2.2646
2912.00,2.2708
2911.00,2.2770
2910.00,2.2838
2909.00,2.2912
2908.00,2.2988
2907.00,2.3061
2906.00,2.3128
2905.00,2.3185
2904.00,2.3226
2903.00,2.3255
2902.00,2.3277
2901.00,2.3302
2900.00,2.3335
2899.00,2.3370
2898.00,2.3399
2897.00,2.3418
2896.00,2.3428
2895.00,2.3433
2894.00,2.3433
2893.00,2.3427
2892.00,2.3411
2891.00,2.3387
2890.00,2.3359
2889.00,2.3334
2888.00,2.3314
2887.00,2.3294
2886.00,2.3265
2885.00,2.3226
2884.00,2.3181
2883.00,2.3141
2882.00,2.3104
2881.00,2.3066
2880.00,2.3019
2879.00,2.2970
2878.00,2.2925
2877.00,2.2891
2876.00,2.2862
2875.00,2.2838
2874.00,2.2817
2873.00,2.2800
2872.00,2.2787
2871.00,2.2771
2870.00,2.2751
2869.00,2.2726
2868.00,2.2693
2867.00,2.2650
2866.00,2.2593
2865.00,2.2525
2864.00,2.2447
2863.00,2.2360
2862.00,2.2259
2861.00,2.2139
2860.00,2.1996
2859.00,2.1833
2858.00,2.1654
2857.00,2.1462
2856.00,2.1256
2855.00,2.1038
2854.00,2.0809
2853.00,2.0569
2852.00,2.0320
2851.00,2.0058
2850.00,1.9785
2849.00,1.9502
2848.00,1.9208
2847.00,1.8902
2846.00,1.8586
2845.00,1.8260
2844.00,1.7926
2843.00,1.7586
2842.00,1.7242
2841.00,1.6894
2840.00,1.6542
2839.00,1.6187
2838.00,1.5831
2837.00,1.5477
2836.00,1.5130
2835.00,1.4790
2834.00,1.4460
2833.00,1.4144
2832.00,1.3843
2831.00,1.3562
2830.00,1.3302
2829.00,1.3067
2828.00,1.2860
2827.00,1.2685
2826.00,1.2543
2825.00,1.2439
2824.00,1.2373
2823.00,1.2348
2822.00,1.2365
2821.00,1.2421
2820.00,1.2517
2819.00,1.2650
2818.00,1.2818
2817.00,1.3019
2816.00,1.3249
2815.00,1.3504
2814.00,1.3779
2813.00,1.4072
2812.00,1.4379
2811.00,1.4696
2810.00,1.5022
2809.00,1.5355
2808.00,1.5694
2807.00,1.6035
2806.00,1.6378
2805.00,1.6720
2804.00,1.7058
2803.00,1.7390
2802.00,1.7713
2801.00,1.8027
2800.00,1.8333
2799.00,1.8628
2798.00,1.8914
2797.00,1.9188
2796.00,1.9450
2795.00,1.9701
2794.00,1.9944
2793.00,2.0181
2792.00,2.0411
2791.00,2.0631
2790.00,2.0840
2789.00,2.1040
2788.00,2.1231
2787.00,2.1412
2786.00,2.1584
2785.00,2.1749
2784.00,2.1909
2783.00,2.2062
2782.00,2.2206
2781.00,2.2339
2780.00,2.2465
2779.00,2.2585
2778.00,2.2698
2777.00,2.2808
2776.00,2.2918
2775.00,2.3026
2774.00,2.3125
2773.00,2.3211
2772.00,2.3284
2771.00,2.3349
2770.00,2.3414
2769.00,2.3480
2768.00,2.3544
2767.00,2.3602
2766.00,2.3654
2765.00,2.3701
2764.00,2.3741
2763.00,2.3774
2762.00,2.3803
2761.00,2.3831
2760.00,2.3858
2759.00,2.3880
2758.00,2.3893
2757.00,2.3898
2756.00,2.3900
2755.00,2.3898
2754.00,2.3891
2753.00,2.3877
2752.00,2.3861
2751.00,2.3844
2750.00,2.3824
2749.00,2.3798
2748.00,2.3765
2747.00,2.3727
2746.00,2.3687
2745.00,2.3643
2744.00,2.3593
2743.00,2.3539
2742.00,2.3482
2741.00,2.3422
2740.00,2.3357
2739.00,2.3285
2738.00,2.3205
2737.00,2.3120
2736.00,2.3029
2735.00,2.2929
2734.00,2.2821
2733.00,2.2708
2732.00,2.2591
2731.00,2.2471
2730.00,2.2342
2729.00,2.2202
2728.00,2.2051
2727.00,2.1893
2726.00,2.1731
2725.00,2.1564
2724.00,2.1388
2723.00,2.1202
2722.00,2.1004
2721.00,2.0797
2720.00,2.0581
2719.00,2.0355
2718.00,2.0119
2717.00,1.9870
2716.00,1.9607
2715.00,1.9329
2714.00,1.9036
2713.00,1.8727
2712.00,1.8404
2711.00,1.8064
2710.00,1.7707
2709.00,1.7336
2708.00,1.6950
2707.00,1.6551
2706.00,1.6139
2705.00,1.5716
2704.00,1.5286
2703.00,1.4854
2702.00,1.4425
2701.00,1.4004
2700.00,1.3595
2699.00,1.3203
2698.00,1.2831
2697.00,1.2483
2696.00,1.2164
2695.00,1.1878
2694.00,1.1631
2693.00,1.1429
2692.00,1.1275
2691.00,1.1173
2690.00,1.1126
2689.00,1.1134
2688.00,1.1197
2687.00,1.1313
2686.00,1.1479
2685.00,1.1691
2684.00,1.1943
2683.00,1.2229
2682.00,1.2543
2681.00,1.2879
2680.00,1.3229
2679.00,1.3591
2678.00,1.3961
2677.00,1.4336
2676.00,1.4715
2675.00,1.5096
2674.00,1.5476
2673.00,1.5853
2672.00,1.6227
2671.00,1.6595
2670.00,1.6957
2669.00,1.7316
2668.00,1.7670
2667.00,1.8018
2666.00,1.8357
2665.00,1.8689
2664.00,1.9012
2663.00,1.9327
2662.00,1.9632
2661.00,1.9924
2660.00,2.0204
2659.00,2.0471
2658.00,2.0729
2657.00,2.0978
2656.00,2.1219
2655.00,2.1448
2654.00,2.1661
2653.00,2.1857
2652.00,2.2043
2651.00,2.2225
2650.00,2.2407
2649.00,2.2586
2648.00,2.2760
2647.00,2.2921
2646.00,2.3068
2645.00,2.3205
2644.00,2.3336
2643.00,2.3462
2642.00,2.3580
2641.00,2.3689
2640.00,2.3795
2639.00,2.3899
2638.00,2.4003
2637.00,2.4105
2636.00,2.4201
2635.00,2.4289
2634.00,2.4366
2633.00,2.4434
2632.00,2.4497
2631.00,2.4559
2630.00,2.4625
2629.00,2.4690
2628.00,2.4744
2627.00,2.4781
2626.00,2.4806
2625.00,2.4828
2624.00,2.4849
2623.00,2.4867
2622.00,2.4882
2621.00,2.4900
2620.00,2.4922
2619.00,2.4943
2618.00,2.4952
2617.00,2.4943
2616.00,2.4915
2615.00,2.4877
2614.00,2.4838
2613.00,2.4808
2612.00,2.4789
2611.00,2.4774
2610.00,2.4756
2609.00,2.4733
2608.00,2.4704
2607.00,2.4668
2606.00,2.4629
2605.00,2.4587
2604.00,2.4541
2603.00,2.4486
2602.00,2.4416
2601.00,2.4333
2600.00,2.4237
2599.00,2.4132
2598.00,2.4024
2597.00,2.3916
2596.00,2.3813
2595.00,2.3711
2594.00,2.3607
2593.00,2.3495
2592.00,2.3373
2591.00,2.3241
2590.00,2.3103
2589.00,2.2959
2588.00,2.2805
2587.00,2.2635
2586.00,2.2448
2585.00,2.2252
2584.00,2.2052
2583.00,2.1849
2582.00,2.1639
2581.00,2.1416
2580.00,2.1182
2579.00,2.0939
2578.00,2.0686
2577.00,2.0424
2576.00,2.0146
2575.00,1.9848
2574.00,1.9532
2573.00,1.9202
2572.00,1.8859
2571.00,1.8499
2570.00,1.8119
2569.00,1.7720
2568.00,1.7304
2567.00,1.6874
2566.00,1.6433
2565.00,1.5982
2564.00,1.5526
2563.00,1.5068
2562.00,1.4615
2561.00,1.4170
2560.00,1.3742
2559.00,1.3335
2558.00,1.2954
2557.00,1.2605
2556.00,1.2294
2555.00,1.2024
2554.00,1.1802
2553.00,1.1633
2552.00,1.1521
2551.00,1.1468
2550.00,1.1474
2549.00,1.1541
2548.00,1.1665
2547.00,1.1844
2546.00,1.2072
2545.00,1.2343
2544.00,1.2651
2543.00,1.2989
2542.00,1.3351
2541.00,1.3733
2540.00,1.4131
2539.00,1.4543
2538.00,1.4963
2537.00,1.5387
2536.00,1.5814
2535.00,1.6239
2534.00,1.6662
2533.00,1.7082
2532.00,1.7499
2531.00,1.7911
2530.00,1.8314
2529.00,1.8705
2528.00,1.9080
2527.00,1.9441
2526.00,1.9788
2525.00,2.0120
2524.00,2.0438
2523.00,2.0743
2522.00,2.1036
2521.00,2.1317
2520.00,2.1583
2519.00,2.1833
2518.00,2.2067
2517.00,2.2290
2516.00,2.2503
2515.00,2.2709
2514.00,2.2907
2513.00,2.3097
2512.00,2.3277
2511.00,2.3447
2510.00,2.3607
2509.00,2.3764
2508.00,2.3921
2507.00,2.4075
2506.00,2.4221
2505.00,2.4356
2504.00,2.4481
2503.00,2.4599
2502.00,2.4711
2501.00,2.4813
2500.00,2.4905
2499.00,2.4993
2498.00,2.5078
2497.00,2.5164
2496.00,2.5250
2495.00,2.5334
2494.00,2.5411
2493.00,2.5477
2492.00,2.5531
2491.00,2.5581
2490.00,2.5632
2489.00,2.5682
2488.00,2.5719
2487.00,2.5739
2486.00,2.5754
2485.00,2.5779
2484.00,2.5817
2483.00,2.5856
2482.00,2.5883
2481.00,2.5898
2480.00,2.5902
2479.00,2.5898
2478.00,2.5887
2477.00,2.5872
2476.00,2.5857
2475.00,2.5844
2474.00,2.5829
2473.00,2.5808
2472.00,2.5779
2471.00,2.5744
2470.00,2.5706
2469.00,2.5668
2468.00,2.5628
2467.00,2.5585
2466.00,2.5537
2465.00,2.5479
2464.00,2.5408
2463.00,2.5324
2462.00,2.5234
2461.00,2.5145
2460.00,2.5057
2459.00,2.4964
2458.00,2.4863
2457.00,2.4754
2456.00,2.4641
2455.00,2.4528
2454.00,2.4411
2453.00,2.4292
2452.00,2.4166
2451.00,2.4030
2450.00,2.3880
2449.00,2.3717
2448.00,2.3545
2447.00,2.3368
2446.00,2.3184
2445.00,2.2990
2444.00,2.2783
2443.00,2.2562
2442.00,2.2330
2441.00,2.2091
2440.00,2.1847
2439.00,2.1594
2438.00,2.1328
2437.00,2.1047
2436.00,2.0750
2435.00,2.0438
2434.00,2.0111
2433.00,1.9767
2432.00,1.9408
2431.00,1.9035
2430.00,1.8652
2429.00,1.8261
2428.00,1.7862
2427.00,1.7457
2426.00,1.7049
2425.00,1.6647
2424.00,1.6257
2423.00,1.5885
2422.00,1.5537
2421.00,1.5217
2420.00,1.4928
2419.00,1.4674
2418.00,1.4458
2417.00,1.4279
2416.00,1.4141
2415.00,1.4041
2414.00,1.3979
2413.00,1.3952
2412.00,1.3955
2411.00,1.3987
2410.00,1.4044
2409.00,1.4126
2408.00,1.4233
2407.00,1.4366
2406.00,1.4524
2405.00,1.4706
2404.00,1.4914
2403.00,1.5145
2402.00,1.5401
2401.00,1.5680
2400.00,1.5983
2399.00,1.6307
2398.00,1.6649
2397.00,1.7007
2396.00,1.7378
2395.00,1.7757
2394.00,1.8141
2393.00,1.8525
2392.00,1.8908
2391.00,1.9287
2390.00,1.9658
2389.00,2.0016
2388.00,2.0355
2387.00,2.0674
2386.00,2.0976
2385.00,2.1264
2384.00,2.1537
2383.00,2.1792
2382.00,2.2026
2381.00,2.2248
2380.00,2.2463
2379.00,2.2674
2378.00,2.2879
2377.00,2.3080
2376.00,2.3279
2375.00,2.3479
2374.00,2.3676
2373.00,2.3868
2372.00,2.4058
2371.00,2.4245
2370.00,2.4430
2369.00,2.4611
2368.00,2.4792
2367.00,2.4969
2366.00,2.5128
2365.00,2.5259
2364.00,2.5367
2363.00,2.5471
2362.00,2.5580
2361.00,2.5696
2360.00,2.5811
2359.00,2.5921
2358.00,2.6017
2357.00,2.6088
2356.00,2.6133
2355.00,2.6165
2354.00,2.6205
2353.00,2.6272
2352.00,2.6365
2351.00,2.6468
2350.00,2.6564
2349.00,2.6637
2348.00,2.6683
2347.00,2.6698
2346.00,2.6693
2345.00,2.6687
2344.00,2.6698
2343.00,2.6720
2342.00,2.6736
2341.00,2.6732
2340.00,2.6710
2339.00,2.6676
2338.00,2.6637
2337.00,2.6595
2336.00,2.6550
2335.00,2.6498
2334.00,2.6434
2333.00,2.6363
2332.00,2.6293
2331.00,2.6232
2330.00,2.6173
2329.00,2.6100
2328.00,2.6001
2327.00,2.5878
2326.00,2.5747
2325.00,2.5625
2324.00,2.5517
2323.00,2.5419
2322.00,2.5317
2321.00,2.5202
2320.00,2.5073
2319.00,2.4935
2318.00,2.4792
2317.00,2.4643
2316.00,2.4480
2315.00,2.4302
2314.00,2.4111
2313.00,2.3911
2312.00,2.3700
2311.00,2.3471
2310.00,2.3223
2309.00,2.2956
2308.00,2.2672
2307.00,2.2372
2306.00,2.2064
2305.00,2.1759
2304.00,2.1478
2303.00,2.1241
2302.00,2.1070
2301.00,2.0991
2300.00,2.1024
2299.00,2.1186
2298.00,2.1482
2297.00,2.1901
2296.00,2.2413
2295.00,2.2962
2294.00,2.3474
2293.00,2.3868
2292.00,2.4074
2291.00,2.4055
2290.00,2.3813
2289.00,2.3388
2288.00,2.2836
2287.00,2.2209
2286.00,2.1546
2285.00,2.0867
2284.00,2.0181
2283.00,1.9495
2282.00,1.8821
2281.00,1.8186
2280.00,1.7618
2279.00,1.7146
2278.00,1.6793
2277.00,1.6578
2276.00,1.6508
2275.00,1.6584
2274.00,1.6797
2273.00,1.7134
2272.00,1.7577
2271.00,1.8109
2270.00,1.8713
2269.00,1.9378
2268.00,2.0096
2267.00,2.0860
2266.00,2.1658
2265.00,2.2484
2264.00,2.3331
2263.00,2.4198
2262.00,2.5084
2261.00,2.5991
2260.00,2.6932
2259.00,2.7941
2258.00,2.9086
2257.00,3.0456
2256.00,3.2130
2255.00,3.4069
2254.00,3.5858
2253.00,3.6583
2252.00,3.5832
2251.00,3.4309
2250.00,3.2628
2249.00,3.0967
2248.00,2.9354
2247.00,2.7785
2246.00,2.6260
2245.00,2.4789
2244.00,2.3390
2243.00,2.2096
2242.00,2.0948
2241.00,1.9989
2240.00,1.9253
2239.00,1.8757
2238.00,1.8500
2237.00,1.8462
2236.00,1.8613
2235.00,1.8914
2234.00,1.9323
2233.00,1.9803
2232.00,2.0324
2231.00,2.0861
2230.00,2.1396
2229.00,2.1913
2228.00,2.2396
2227.00,2.2835
2226.00,2.3228
2225.00,2.3584
2224.00,2.3913
2223.00,2.4223
2222.00,2.4520
2221.00,2.4807
2220.00,2.5082
2219.00,2.5339
2218.00,2.5571
2217.00,2.5782
2216.00,2.5980
2215.00,2.6168
2214.00,2.6340
2213.00,2.6498
2212.00,2.6650
2211.00,2.6802
2210.00,2.6949
2209.00,2.7080
2208.00,2.7193
2207.00,2.7290
2206.00,2.7374
2205.00,2.7446
2204.00,2.7510
2203.00,2.7568
2202.00,2.7620
2201.00,2.7667
2200.00,2.7715
2199.00,2.7776
2198.00,2.7849
2197.00,2.7914
2196.00,2.7944
2195.00,2.7933
2194.00,2.7909
2193.00,2.7907
2192.00,2.7939
2191.00,2.7982
2190.00,2.8004
2189.00,2.7996
2188.00,2.7979
2187.00,2.7978
2186.00,2.7996
2185.00,2.8016
2184.00,2.8013
2183.00,2.7974
2182.00,2.7905
2181.00,2.7822
2180.00,2.7744
2179.00,2.7678
2178.00,2.7620
2177.00,2.7566
2176.00,2.7515
2175.00,2.7466
2174.00,2.7408
2173.00,2.7331
2172.00,2.7232
2171.00,2.7124
2170.00,2.7022
2169.00,2.6929
2168.00,2.6832
2167.00,2.6719
2166.00,2.6589
2165.00,2.6445
2164.00,2.6291
2163.00,2.6124
2162.00,2.5948
2161.00,2.5766
2160.00,2.5583
2159.00,2.5393
2158.00,2.5194
2157.00,2.4989
2156.00,2.4782
2155.00,2.4572
2154.00,2.4350
2153.00,2.4109
2152.00,2.3849
2151.00,2.3571
2150.00,2.3275
2149.00,2.2961
2148.00,2.2627
2147.00,2.2269
2146.00,2.1890
2145.00,2.1490
2144.00,2.1073
2143.00,2.0637
2142.00,2.0180
2141.00,1.9701
2140.00,1.9199
2139.00,1.8673
2138.00,1.8127
2137.00,1.7567
2136.00,1.7006
2135.00,1.6451
2134.00,1.5912
2133.00,1.5397
2132.00,1.4916
2131.00,1.4478
2130.00,1.4090
2129.00,1.3762
2128.00,1.3503
2127.00,1.3321
2126.00,1.3221
2125.00,1.3207
2124.00,1.3279
2123.00,1.3433
2122.00,1.3664
2121.00,1.3964
2120.00,1.4323
2119.00,1.4730
2118.00,1.5173
2117.00,1.5644
2116.00,1.6135
2115.00,1.6644
2114.00,1.7163
2113.00,1.7688
2112.00,1.8211
2111.00,1.8728
2110.00,1.9237
2109.00,1.9735
2108.00,2.0223
2107.00,2.0698
2106.00,2.1156
2105.00,2.1595
2104.00,2.2014
2103.00,2.2413
2102.00,2.2790
2101.00,2.3147
2100.00,2.3484
2099.00,2.3802
2098.00,2.4101
2097.00,2.4384
2096.00,2.4649
2095.00,2.4896
2094.00,2.5126
2093.00,2.5349
2092.00,2.5576
2091.00,2.5805
2090.00,2.6021
2089.00,2.6219
2088.00,2.6404
2087.00,2.6582
2086.00,2.6750
2085.00,2.6907
2084.00,2.7065
2083.00,2.7235
2082.00,2.7407
2081.00,2.7559
2080.00,2.7684
2079.00,2.7791
2078.00,2.7886
2077.00,2.7969
2076.00,2.8043
2075.00,2.8123
2074.00,2.8215
2073.00,2.8311
2072.00,2.8398
2071.00,2.8473
2070.00,2.8532
2069.00,2.8573
2068.00,2.8604
2067.00,2.8638
2066.00,2.8682
2065.00,2.8735
2064.00,2.8784
2063.00,2.8820
2062.00,2.8837
2061.00,2.8845
2060.00,2.8861
2059.00,2.8890
2058.00,2.8924
2057.00,2.8956
2056.00,2.8995
2055.00,2.9048
2054.00,2.9096
2053.00,2.9105
2052.00,2.9069
2051.00,2.9022
2050.00,2.8987
2049.00,2.8963
2048.00,2.8938
2047.00,2.8913
2046.00,2.8887
2045.00,2.8849
2044.00,2.8795
2043.00,2.8736
2042.00,2.8687
2041.00,2.8650
2040.00,2.8617
2039.00,2.8580
2038.00,2.8529
2037.00,2.8450
2036.00,2.8339
2035.00,2.8209
2034.00,2.8084
2033.00,2.7975
2032.00,2.7884
2031.00,2.7801
2030.00,2.7710
2029.00,2.7599
2028.00,2.7467
2027.00,2.7323
2026.00,2.7176
2025.00,2.7023
2024.00,2.6861
2023.00,2.6695
2022.00,2.6523
2021.00,2.6340
2020.00,2.6144
2019.00,2.5936
2018.00,2.5722
2017.00,2.5501
2016.00,2.5275
2015.00,2.5041
2014.00,2.4796
2013.00,2.4529
2012.00,2.4236
2011.00,2.3917
2010.00,2.3576
2009.00,2.3219
2008.00,2.2848
2007.00,2.2461
2006.00,2.2057
2005.00,2.1628
2004.00,2.1170
2003.00,2.0685
2002.00,2.0175
2001.00,1.9641
2000.00,1.9086
1999.00,1.8515
1998.00,1.7938
1997.00,1.7363
1996.00,1.6802
1995.00,1.6263
1994.00,1.5758
1993.00,1.5300
1992.00,1.4900
1991.00,1.4569
1990.00,1.4313
1989.00,1.4140
1988.00,1.4054
1987.00,1.4058
1986.00,1.4149
1985.00,1.4324
1984.00,1.4576
1983.00,1.4897
1982.00,1.5277
1981.00,1.5704
1980.00,1.6167
1979.00,1.6657
1978.00,1.7167
1977.00,1.7689
1976.00,1.8219
1975.00,1.8753
1974.00,1.9284
1973.00,1.9810
1972.00,2.0326
1971.00,2.0825
1970.00,2.1306
1969.00,2.1769
1968.00,2.2217
1967.00,2.2652
1966.00,2.3071
1965.00,2.3464
1964.00,2.3830
1963.00,2.4173
1962.00,2.4502
1961.00,2.4819
1960.00,2.5118
1959.00,2.5396
1958.00,2.5652
1957.00,2.5893
1956.00,2.6128
1955.00,2.6361
1954.00,2.6591
1953.00,2.6816
1952.00,2.7034
1951.00,2.7241
1950.00,2.7428
1949.00,2.7588
1948.00,2.7732
1947.00,2.7881
1946.00,2.8046
1945.00,2.8215
1944.00,2.8371
1943.00,2.8503
1942.00,2.8608
1941.00,2.8695
1940.00,2.8779
1939.00,2.8874
1938.00,2.8980
1937.00,2.9084
1936.00,2.9182
1935.00,2.9288
1934.00,2.9405
1933.00,2.9515
1932.00,2.9595
1931.00,2.9642
1930.00,2.9674
1929.00,2.9706
1928.00,2.9745
1927.00,2.9789
1926.00,2.9828
1925.00,2.9858
1924.00,2.9898
1923.00,2.9965
1922.00,3.0051
1921.00,3.0120
1920.00,3.0149
1919.00,3.0154
1918.00,3.0155
1917.00,3.0153
1916.00,3.0142
1915.00,3.0124
1914.00,3.0099
1913.00,3.0063
1912.00,3.0022
1911.00,2.9994
1910.00,2.9984
1909.00,2.9971
1908.00,2.9938
1907.00,2.9890
1906.00,2.9840
1905.00,2.9786
1904.00,2.9725
1903.00,2.9670
1902.00,2.9628
1901.00,2.9588
1900.00,2.9534
1899.00,2.9462
1898.00,2.9374
1897.00,2.9276
1896.00,2.9182
1895.00,2.9110
1894.00,2.9051
1893.00,2.8964
1892.00,2.8825
1891.00,2.8656
1890.00,2.8498
1889.00,2.8361
1888.00,2.8230
1887.00,2.8088
1886.00,2.7928
1885.00,2.7755
1884.00,2.7577
1883.00,2.7406
1882.00,2.7241
1881.00,2.7064
1880.00,2.6858
1879.00,2.6626
1878.00,2.6375
1877.00,2.6110
1876.00,2.5832
1875.00,2.5542
1874.00,2.5237
1873.00,2.4911
1872.00,2.4564
1871.00,2.4204
1870.00,2.3833
1869.00,2.3445
1868.00,2.3034
1867.00,2.2602
1866.00,2.2151
1865.00,2.1673
1864.00,2.1162
1863.00,2.0615
1862.00,2.0037
1861.00,1.9441
1860.00,1.8840
1859.00,1.8248
1858.00,1.7678
1857.00,1.7140
1856.00,1.6646
1855.00,1.6206
1854.00,1.5831
1853.00,1.5536
1852.00,1.5328
1851.00,1.5213
1850.00,1.5192
1849.00,1.5269
1848.00,1.5438
1847.00,1.5692
1846.00,1.6028
1845.00,1.6451
1844.00,1.6957
1843.00,1.7509
1842.00,1.8065
1841.00,1.8611
1840.00,1.9155
1839.00,1.9702
1838.00,2.0251
1837.00,2.0798
1836.00,2.1340
1835.00,2.1862
1834.00,2.2350
1833.00,2.2807
1832.00,2.3245
1831.00,2.3681
1830.00,2.4116
1829.00,2.4537
1828.00,2.4922
1827.00,2.5264
1826.00,2.5579
1825.00,2.5890
1824.00,2.6195
1823.00,2.6476
1822.00,2.6732
1821.00,2.6989
1820.00,2.7256
1819.00,2.7514
1818.00,2.7747
1817.00,2.7971
1816.00,2.8201
1815.00,2.8427
1814.00,2.8635
1813.00,2.8832
1812.00,2.9027
1811.00,2.9210
1810.00,2.9359
1809.00,2.9478
1808.00,2.9582
1807.00,2.9668
1806.00,2.9733
1805.00,2.9784
1804.00,2.9835
1803.00,2.9892
1802.00,2.9967
1801.00,3.0076
1800.00,3.0215
1799.00,3.0362
1798.00,3.0498
1797.00,3.0624
1796.00,3.0738
1795.00,3.0823
1794.00,3.0885
1793.00,3.0951
1792.00,3.1027
1791.00,3.1084
1790.00,3.1107
1789.00,3.1128
1788.00,3.1161
1787.00,3.1181
1786.00,3.1175
1785.00,3.1181
1784.00,3.1239
1783.00,3.1325
1782.00,3.1377
1781.00,3.1373
1780.00,3.1340
1779.00,3.1319
1778.00,3.1322
1777.00,3.1342
1776.00,3.1352
1775.00,3.1322
1774.00,3.1247
1773.00,3.1161
1772.00,3.1086
1771.00,3.1011
1770.00,3.0922
1769.00,3.0842
1768.00,3.0799
1767.00,3.0779
1766.00,3.0738
1765.00,3.0653
1764.00,3.0547
1763.00,3.0444
1762.00,3.0343
1761.00,3.0222
1760.00,3.0067
1759.00,2.9886
1758.00,2.9700
1757.00,2.9526
1756.00,2.9363
1755.00,2.9190
1754.00,2.8992
1753.00,2.8764
1752.00,2.8507
1751.00,2.8234
1750.00,2.7973
1749.00,2.7751
1748.00,2.7563
1747.00,2.7370
1746.00,2.7138
1745.00,2.6873
1744.00,2.6610
1743.00,2.6375
1742.00,2.6163
1741.00,2.5948
1740.00,2.5703
1739.00,2.5423
1738.00,2.5132
1737.00,2.4865
1736.00,2.4626
1735.00,2.4400
1734.00,2.4169
1733.00,2.3948
1732.00,2.3782
1731.00,2.3719
1730.00,2.3777
1729.00,2.3956
1728.00,2.4249
1727.00,2.4638
1726.00,2.5114
1725.00,2.5667
1724.00,2.6301
1723.00,2.7025
1722.00,2.7822
1721.00,2.8650
1720.00,2.9482
1719.00,3.0363
1718.00,3.1386
1717.00,3.2591
1716.00,3.3891
1715.00,3.5162
1714.00,3.6271
1713.00,3.7042
1712.00,3.7452
1711.00,3.7741
1710.00,3.8132
1709.00,3.8559
1708.00,3.8836
1707.00,3.8941
1706.00,3.8740
1705.00,3.7904
1704.00,3.6614
1703.00,3.5359
1702.00,3.4233
1701.00,3.3011
1700.00,3.1656
1699.00,3.0403
1698.00,2.9347
1697.00,2.8363
1696.00,2.7319
1695.00,2.6231
1694.00,2.5197
1693.00,2.4267
1692.00,2.3435
1691.00,2.2695
1690.00,2.2070
1689.00,2.1597
1688.00,2.1300
1687.00,2.1177
1686.00,2.1222
1685.00,2.1451
1684.00,2.1854
1683.00,2.2347
1682.00,2.2835
1681.00,2.3306
1680.00,2.3788
1679.00,2.4280
1678.00,2.4750
1677.00,2.5187
1676.00,2.5617
1675.00,2.6058
1674.00,2.6489
1673.00,2.6878
1672.00,2.7227
1671.00,2.7569
1670.00,2.7934
1669.00,2.8322
1668.00,2.8686
1667.00,2.8975
1666.00,2.9188
1665.00,2.9367
1664.00,2.9556
1663.00,2.9768
1662.00,2.9991
1661.00,3.0220
1660.00,3.0453
1659.00,3.0673
1658.00,3.0849
1657.00,3.0962
1656.00,3.1025
1655.00,3.1082
1654.00,3.1222
1653.00,3.1495
1652.00,3.1793
1651.00,3.1960
1650.00,3.1997
1649.00,3.2006
1648.00,3.2076
1647.00,3.2221
1646.00,3.2370
1645.00,3.2447
1644.00,3.2454
1643.00,3.2448
1642.00,3.2481
1641.00,3.2564
1640.00,3.2653
1639.00,3.2691
1638.00,3.2660
1637.00,3.2603
1636.00,3.2571
1635.00,3.2569
1634.00,3.2583
1633.00,3.2610
1632.00,3.2628
1631.00,3.2610
1630.00,3.2563
1629.00,3.2543
1628.00,3.2593
1627.00,3.2677
1626.00,3.2713
1625.00,3.2673
1624.00,3.2607
1623.00,3.2566
1622.00,3.2532
1621.00,3.2468
1620.00,3.2386
1619.00,3.2332
1618.00,3.2331
1617.00,3.2359
1616.00,3.2348
1615.00,3.2263
1614.00,3.2139
1613.00,3.2023
1612.00,3.1930
1611.00,3.1838
1610.00,3.1728
1609.00,3.1606
1608.00,3.1495
1607.00,3.1396
1606.00,3.1286
1605.00,3.1150
1604.00,3.0994
1603.00,3.0835
1602.00,3.0671
1601.00,3.0490
1600.00,3.0289
1599.00,3.0078
1598.00,2.9864
1597.00,2.9644
1596.00,2.9417
1595.00,2.9184
1594.00,2.8944
1593.00,2.8691
1592.00,2.8417
1591.00,2.8130
1590.00,2.7835
1589.00,2.7526
1588.00,2.7194
1587.00,2.6837
1586.00,2.6457
1585.00,2.6061
1584.00,2.5653
1583.00,2.5240
1582.00,2.4821
1581.00,2.4395
1580.00,2.3977
1579.00,2.3587
1578.00,2.3220
1577.00,2.2840
1576.00,2.2415
1575.00,2.1970
1574.00,2.1572
1573.00,2.1256
1572.00,2.1015
1571.00,2.0842
1570.00,2.0744
1569.00,2.0726
1568.00,2.0778
1567.00,2.0894
1566.00,2.1082
1565.00,2.1343
1564.00,2.1652
1563.00,2.1978
1562.00,2.2308
1561.00,2.2660
1560.00,2.3089
1559.00,2.3637
1558.00,2.4218
1557.00,2.4701
1556.00,2.5093
1555.00,2.5472
1554.00,2.5876
1553.00,2.6285
1552.00,2.6666
1551.00,2.7022
1550.00,2.7382
1549.00,2.7752
1548.00,2.8102
1547.00,2.8406
1546.00,2.8668
1545.00,2.8924
1544.00,2.9200
1543.00,2.9496
1542.00,2.9803
1541.00,3.0122
1540.00,3.0456
1539.00,3.0758
1538.00,3.0977
1537.00,3.1119
1536.00,3.1229
1535.00,3.1356
1534.00,3.1527
1533.00,3.1725
1532.00,3.1904
1531.00,3.2045
1530.00,3.2173
1529.00,3.2311
1528.00,3.2462
1527.00,3.2624
1526.00,3.2814
1525.00,3.3035
1524.00,3.3248
1523.00,3.3372
1522.00,3.3352
1521.00,3.3213
1520.00,3.3037
1519.00,3.2910
1518.00,3.2914
1517.00,3.3107
1516.00,3.3439
1515.00,3.3731
1514.00,3.3844
1513.00,3.3821
1512.00,3.3788
1511.00,3.3789
1510.00,3.3766
1509.00,3.3669
1508.00,3.3539
1507.00,3.3484
1506.00,3.3536
1505.00,3.3618
1504.00,3.3680
1503.00,3.3749
1502.00,3.3865
1501.00,3.4012
1500.00,3.4087
1499.00,3.4001
1498.00,3.3825
1497.00,3.3699
1496.00,3.3671
1495.00,3.3721
1494.00,3.3840
1493.00,3.4013
1492.00,3.4150
1491.00,3.4111
1490.00,3.3871
1489.00,3.3578
1488.00,3.3384
1487.00,3.3319
1486.00,3.3348
1485.00,3.3450
1484.00,3.3627
1483.00,3.3834
1482.00,3.3970
1481.00,3.3968
1480.00,3.3842
1479.00,3.3644
1478.00,3.3429
1477.00,3.3239
1476.00,3.3087
1475.00,3.2967
1474.00,3.2886
1473.00,3.2853
1472.00,3.2841
1471.00,3.2793
1470.00,3.2700
1469.00,3.2621
1468.00,3.2615
1467.00,3.2691
1466.00,3.2810
1465.00,3.2924
1464.00,3.3020
1463.00,3.3115
1462.00,3.3221
1461.00,3.3326
1460.00,3.3430
1459.00,3.3550
1458.00,3.3727
1457.00,3.3989
1456.00,3.4330
1455.00,3.4745
1454.00,3.5234
1453.00,3.5714
1452.00,3.6037
1451.00,3.6179
1450.00,3.6295
1449.00,3.6471
1448.00,3.6537
1447.00,3.6340
1446.00,3.6068
1445.00,3.5954
1444.00,3.5990
1443.00,3.6060
1442.00,3.6134
1441.00,3.6254
1440.00,3.6341
1439.00,3.6175
1438.00,3.5703
1437.00,3.5213
1436.00,3.5018
1435.00,3.5182
1434.00,3.5527
1433.00,3.5790
1432.00,3.5774
1431.00,3.5504
1430.00,3.5181
1429.00,3.4958
1428.00,3.4837
1427.00,3.4768
1426.00,3.4757
1425.00,3.4836
1424.00,3.4952
1423.00,3.4998
1422.00,3.4970
1421.00,3.4975
1420.00,3.5064
1419.00,3.5140
1418.00,3.5080
1417.00,3.4895
1416.00,3.4663
1415.00,3.4409
1414.00,3.4155
1413.00,3.3951
1412.00,3.3804
1411.00,3.3654
1410.00,3.3437
1409.00,3.3161
1408.00,3.2895
1407.00,3.2682
1406.00,3.2527
1405.00,3.2438
1404.00,3.2410
1403.00,3.2385
1402.00,3.2315
1401.00,3.2214
1400.00,3.2118
1399.00,3.2021
1398.00,3.1888
1397.00,3.1750
1396.00,3.1692
1395.00,3.1764
1394.00,3.1929
1393.00,3.2097
1392.00,3.2227
1391.00,3.2352
1390.00,3.2521
1389.00,3.2743
1388.00,3.2995
1387.00,3.3261
1386.00,3.3563
1385.00,3.3945
1384.00,3.4423
1383.00,3.4958
1382.00,3.5490
1381.00,3.6006
1380.00,3.6545
1379.00,3.7122
1378.00,3.7669
1377.00,3.8053
1376.00,3.8063
1375.00,3.7549
1374.00,3.6672
1373.00,3.5758
1372.00,3.4987
1371.00,3.4362
1370.00,3.3845
1369.00,3.3440
1368.00,3.3173
1367.00,3.3042
1366.00,3.3002
1365.00,3.3001
1364.00,3.3019
1363.00,3.3092
1362.00,3.3284
1361.00,3.3629
1360.00,3.4054
1359.00,3.4374
1358.00,3.4430
1357.00,3.4284
1356.00,3.4156
1355.00,3.4176
1354.00,3.4333
1353.00,3.4567
1352.00,3.4839
1351.00,3.5099
1350.00,3.5269
1349.00,3.5356
1348.00,3.5469
1347.00,3.5662
1346.00,3.5851
1345.00,3.5924
1344.00,3.5911
1343.00,3.5956
1342.00,3.6130
1341.00,3.6338
1340.00,3.6416
1339.00,3.6336
1338.00,3.6224
1337.00,3.6176
1336.00,3.6180
1335.00,3.6162
1334.00,3.6084
1333.00,3.5993
1332.00,3.5948
1331.00,3.5939
1330.00,3.5919
1329.00,3.5872
1328.00,3.5830
1327.00,3.5838
1326.00,3.5918
1325.00,3.6052
1324.00,3.6184
1323.00,3.6238
1322.00,3.6141
1321.00,3.5932
1320.00,3.5733
1319.00,3.5616
1318.00,3.5615
1317.00,3.5738
1316.00,3.5942
1315.00,3.6112
1314.00,3.6140
1313.00,3.6008
1312.00,3.5790
1311.00,3.5605
1310.00,3.5504
1309.00,3.5382
1308.00,3.5138
1307.00,3.4843
1306.00,3.4638
1305.00,3.4597
1304.00,3.4682
1303.00,3.4769
1302.00,3.4714
1301.00,3.4471
1300.00,3.4148
1299.00,3.3880
1298.00,3.3687
1297.00,3.3490
1296.00,3.3221
1295.00,3.2904
1294.00,3.2612
1293.00,3.2380
1292.00,3.2181
1291.00,3.1955
1290.00,3.1656
1289.00,3.1282
1288.00,3.0869
1287.00,3.0453
1286.00,3.0037
1285.00,2.9597
1284.00,2.9122
1283.00,2.8633
1282.00,2.8150
1281.00,2.7677
1280.00,2.7212
1279.00,2.6776
1278.00,2.6394
1277.00,2.6068
1276.00,2.5770
1275.00,2.5460
1274.00,2.5121
1273.00,2.4760
1272.00,2.4407
1271.00,2.4102
1270.00,2.3877
1269.00,2.3746
1268.00,2.3704
1267.00,2.3738
1266.00,2.3836
1265.00,2.3994
1264.00,2.4218
1263.00,2.4515
1262.00,2.4887
1261.00,2.5325
1260.00,2.5812
1259.00,2.6332
1258.00,2.6881
1257.00,2.7458
1256.00,2.8057
1255.00,2.8656
1254.00,2.9234
1253.00,2.9774
1252.00,3.0261
1251.00,3.0674
1250.00,3.1018
1249.00,3.1323
1248.00,3.1634
1247.00,3.1982
1246.00,3.2364
1245.00,3.2737
1244.00,3.3030
1243.00,3.3217
1242.00,3.3352
1241.00,3.3493
1240.00,3.3648
1239.00,3.3814
1238.00,3.4037
1237.00,3.4342
1236.00,3.4679
1235.00,3.4979
1234.00,3.5283
1233.00,3.5750
1232.00,3.6389
1231.00,3.6896
1230.00,3.7013
1229.00,3.6913
1228.00,3.6890
1227.00,3.6975
1226.00,3.6981
1225.00,3.6875
1224.00,3.6813
1223.00,3.6794
1222.00,3.6742
1221.00,3.6669
1220.00,3.6630
1219.00,3.6623
1218.00,3.6567
1217.00,3.6519
1216.00,3.6605
1215.00,3.6786
1214.00,3.6936
1213.00,3.6972
1212.00,3.6914
1211.00,3.6885
1210.00,3.6987
1209.00,3.7241
1208.00,3.7583
1207.00,3.7853
1206.00,3.7897
1205.00,3.7757
1204.00,3.7603
1203.00,3.7492
1202.00,3.7334
1201.00,3.7097
1200.00,3.6910
1199.00,3.6907
1198.00,3.7070
1197.00,3.7263
1196.00,3.7316
1195.00,3.7145
1194.00,3.6914
1193.00,3.6858
1192.00,3.7025
1191.00,3.7289
1190.00,3.7548
1189.00,3.7748
1188.00,3.7840
1187.00,3.7941
1186.00,3.8063
1185.00,3.7920
1184.00,3.7411
1183.00,3.6888
1182.00,3.6748
1181.00,3.7126
1180.00,3.7849
1179.00,3.8441
1178.00,3.8398
1177.00,3.7862
1176.00,3.7310
1175.00,3.6911
1174.00,3.6626
1173.00,3.6488
1172.00,3.6600
1171.00,3.6835
1170.00,3.6836
1169.00,3.6503
1168.00,3.6080
1167.00,3.5799
1166.00,3.5683
1165.00,3.5582
1164.00,3.5408
1163.00,3.5268
1162.00,3.5279
1161.00,3.5380
1160.00,3.5385
1159.00,3.5249
1158.00,3.5070
1157.00,3.4901
1156.00,3.4636
1155.00,3.4161
1154.00,3.3608
1153.00,3.3179
1152.00,3.2927
1151.00,3.2738
1150.00,3.2429
1149.00,3.1916
1148.00,3.1276
1147.00,3.0639
1146.00,3.0083
1145.00,2.9608
1144.00,2.9173
1143.00,2.8735
1142.00,2.8268
1141.00,2.7780
1140.00,2.7309
1139.00,2.6923
1138.00,2.6679
1137.00,2.6597
1136.00,2.6656
1135.00,2.6812
1134.00,2.7036
1133.00,2.7333
1132.00,2.7728
1131.00,2.8238
1130.00,2.8861
1129.00,2.9574
1128.00,3.0337
1127.00,3.1092
1126.00,3.1784
1125.00,3.2391
1124.00,3.2935
1123.00,3.3464
1122.00,3.3966
1121.00,3.4289
1120.00,3.4231
1119.00,3.3835
1118.00,3.3420
1117.00,3.3274
1116.00,3.3496
1115.00,3.3978
1114.00,3.4490
1113.00,3.4883
1112.00,3.5217
1111.00,3.5554
1110.00,3.5812
1109.00,3.5926
1108.00,3.6028
1107.00,3.6303
1106.00,3.6783
1105.00,3.7319
1104.00,3.7746
1103.00,3.8013
1102.00,3.8091
1101.00,3.8051
1100.00,3.8020
1099.00,3.7769
1098.00,3.7158
1097.00,3.6621
1096.00,3.6535
1095.00,3.6943
1094.00,3.7595
1093.00,3.8033
1092.00,3.8137
1091.00,3.8259
1090.00,3.8367
1089.00,3.8213
1088.00,3.8065
1087.00,3.8120
1086.00,3.8284
1085.00,3.8569
1084.00,3.9164
1083.00,4.0432
1082.00,4.1809
1081.00,4.1718
1080.00,4.1182
1079.00,4.1004
1078.00,4.0767
1077.00,4.0490
1076.00,4.0416
1075.00,4.0826
1074.00,4.1913
1073.00,4.4016
1072.00,4.7928
1071.00,4.6299
1070.00,4.1780
1069.00,3.9757
1068.00,3.9302
1067.00,4.0039
1066.00,4.1504
1065.00,4.2736
1064.00,4.3758
1063.00,4.5566
1062.00,4.7860
1061.00,4.6413
1060.00,4.3058
1059.00,4.0639
1058.00,3.9281
1057.00,3.8671
1056.00,3.8594
1055.00,3.8916
1054.00,3.9768
1053.00,4.0801
1052.00,3.9916
1051.00,3.8221
1050.00,3.7412
1049.00,3.7505
1048.00,3.8529
1047.00,4.0576
1046.00,4.2405
1045.00,4.2741
1044.00,4.3823
1043.00,4.5632
1042.00,4.6045
1041.00,4.5421
1040.00,4.4647
1039.00,4.3825
1038.00,4.2287
1037.00,4.0511
1036.00,3.9179
1035.00,3.8653
1034.00,3.9157
1033.00,4.0540
1032.00,4.1819
1031.00,4.2324
1030.00,4.2692
1029.00,4.3278
1028.00,4.3763
1027.00,4.3087
1026.00,4.1660
1025.00,4.0508
1024.00,4.0151
1023.00,4.0789
1022.00,4.1867
1021.00,4.2518
1020.00,4.3540
1019.00,4.6626
1018.00,4.8210
1017.00,4.6553
1016.00,4.5715
1015.00,4.2899
1014.00,4.1313
1013.00,4.1412
1012.00,4.3431
1011.00,4.7327
1010.00,4.5263
1009.00,4.3092
1008.00,4.2017
1007.00,4.1285
1006.00,4.1201
1005.00,4.1265
1004.00,4.1051
1003.00,4.0667
1002.00,4.0599
1001.00,4.0616
1000.00,4.0059
999.00,3.8989
998.00,3.7954
997.00,3.7227
996.00,3.6726
995.00,3.6319
994.00,3.6020
993.00,3.5826
992.00,3.5592
991.00,3.5185
990.00,3.4662
989.00,3.4175
988.00,3.3801
987.00,3.3563
986.00,3.3482
985.00,3.3568
984.00,3.3787
983.00,3.4063
982.00,3.4350
981.00,3.4748
980.00,3.5397
979.00,3.6253
978.00,3.7152
977.00,3.8014
976.00,3.8747
975.00,3.9209
974.00,3.9405
973.00,3.9066
972.00,3.8281
971.00,3.7686
970.00,3.7646
969.00,3.8335
968.00,4.0174
967.00,4.3358
966.00,4.4444
965.00,4.3174
964.00,4.2871
963.00,4.2962
962.00,4.2809
961.00,4.2177
960.00,4.1324
959.00,4.0552
958.00,4.0053
957.00,3.9929
956.00,4.0132
955.00,4.0448
954.00,4.0492
953.00,4.0175
952.00,3.9835
951.00,3.9792
950.00,4.0175
949.00,4.1066
948.00,4.2151
947.00,4.2413
946.00,4.2246
945.00,4.2561
944.00,4.2980
943.00,4.3215
942.00,4.3199
941.00,4.2945
940.00,4.2289
939.00,4.0891
938.00,3.9635
937.00,3.9124
936.00,3.9222
935.00,3.9385
934.00,3.9324
933.00,3.9477
932.00,4.0146
931.00,4.0862
930.00,4.0773
929.00,4.0326
928.00,4.0429
927.00,4.1500
926.00,4.3100
925.00,4.3533
924.00,4.2783
923.00,4.2257
922.00,4.3332
921.00,4.8108
920.00,5.0760
919.00,4.7761
918.00,4.8610
917.00,4.5194
916.00,4.2286
915.00,4.1379
914.00,4.1885
913.00,4.3767
912.00,4.3964
911.00,4.1773
910.00,4.1112
909.00,4.2120
908.00,4.5821
907.00,5.0540
906.00,4.5083
905.00,4.3983
904.00,4.4197
903.00,4.3719
902.00,4.3684
901.00,4.4919
900.00,4.7616
899.00,4.7936
898.00,4.4435
897.00,4.1414
896.00,3.9852
895.00,3.9377
894.00,3.9597
893.00,4.0079
892.00,4.0140
891.00,3.9808
890.00,3.9808
889.00,4.0922
888.00,4.3309
887.00,4.3649
886.00,4.4696
885.00,4.5272
884.00,4.1227
883.00,4.0182
882.00,4.0737
881.00,4.0492
880.00,3.9880
879.00,4.0056
878.00,4.0435
877.00,4.0047
876.00,4.0064
875.00,4.1216
874.00,4.3225
873.00,4.4497
872.00,4.3888
871.00,4.2811
870.00,4.1950
869.00,4.1108
868.00,4.0642
867.00,4.1290
866.00,4.3166
865.00,4.4670
864.00,4.4584
863.00,4.3903
862.00,4.2323
861.00,4.0996
860.00,4.0564
859.00,4.1624
858.00,4.3627
857.00,4.2577
856.00,4.1770
855.00,4.4623
854.00,4.4435
853.00,4.0045
852.00,3.8813
851.00,3.9081
850.00,4.0397
849.00,4.2698
848.00,4.4062
847.00,4.3997
846.00,4.2714
845.00,4.1737
844.00,4.1997
843.00,4.2801
842.00,4.4226
841.00,4.7235
840.00,4.4308
839.00,4.0776
838.00,3.9506
837.00,3.9718
836.00,4.1755
835.00,4.4354
834.00,4.3493
833.00,4.1590
832.00,3.9545
831.00,3.8377
830.00,3.8258
829.00,3.8608
828.00,3.9094
827.00,3.9460
826.00,3.8990
825.00,3.8057
824.00,3.7714
823.00,3.7983
822.00,3.8539
821.00,3.9195
820.00,3.9852
819.00,4.0272
818.00,4.0141
817.00,3.9646
816.00,3.9466
815.00,3.9762
814.00,3.9783
813.00,3.9153
812.00,3.8383
811.00,3.7897
810.00,3.7897
809.00,3.8271
808.00,3.8559
807.00,3.8381
806.00,3.7962
805.00,3.7728
804.00,3.7726
803.00,3.7629
802.00,3.7332
801.00,3.7183
800.00,3.7376
799.00,3.7737
798.00,3.7926
797.00,3.7689
796.00,3.7086
795.00,3.6458
794.00,3.6079
793.00,3.6030
792.00,3.6326
791.00,3.7013
790.00,3.8075
789.00,3.8973
788.00,3.9021
787.00,3.8468
786.00,3.7693
785.00,3.7010
784.00,3.6710
783.00,3.6627
782.00,3.6900
781.00,3.7768
780.00,4.0296
779.00,4.6601
778.00,4.7934
777.00,4.5250
776.00,4.1831
775.00,3.9417
774.00,3.8424
773.00,3.8342
772.00,3.9254
771.00,4.0298
770.00,4.0640
769.00,4.0212
768.00,3.8996
767.00,3.8081
766.00,3.8121
765.00,3.9014
764.00,4.0287
763.00,4.1017
762.00,4.0910
761.00,4.0826
760.00,4.1553
759.00,4.3247
758.00,4.4722
757.00,4.4222
756.00,4.2401
755.00,4.1222
754.00,4.0585
753.00,4.1314
752.00,4.5565
751.00,4.4460
750.00,4.2157
749.00,4.4550
748.00,4.5024
747.00,4.2490
746.00,4.2184
745.00,4.2569
744.00,4.3096
743.00,4.4126
742.00,4.4518
741.00,4.3466
740.00,4.2072
739.00,4.1912
738.00,4.3223
737.00,4.2251
736.00,3.9911
735.00,3.9363
734.00,4.0189
733.00,4.2503
732.00,4.6192
731.00,4.4379
730.00,4.2446
729.00,4.0981
728.00,3.8943
727.00,3.7383
726.00,3.6435
725.00,3.5891
724.00,3.5680
723.00,3.5962
722.00,3.6890
721.00,3.8516
720.00,4.0535
719.00,4.1192
718.00,4.0085
717.00,3.9552
716.00,4.0577
715.00,4.4395
714.00,4.7143
713.00,4.2703
712.00,4.0938
711.00,4.0329
710.00,4.0485
709.00,4.1029
708.00,4.1480
707.00,4.2830
706.00,4.5477
705.00,4.5830
704.00,4.3227
703.00,4.0956
702.00,3.9055
701.00,3.7906
700.00,3.7765
