Created as New Dataset,Sample 037 By Administrator Date Wednesday, November 24 2021
cm-1,A
7502.00,0.4981
7501.00,0.5049
7500.00,0.5120
7499.00,0.5191
7498.00,0.5262
7497.00,0.5338
7496.00,0.5420
7495.00,0.5507
7494.00,0.5592
7493.00,0.5671
7492.00,0.5749
7491.00,0.5831
7490.00,0.5918
7489.00,0.6006
7488.00,0.6092
7487.00,0.6179
7486.00,0.6274
7485.00,0.6377
7484.00,0.6480
7483.00,0.6575
7482.00,0.6666
7481.00,0.6760
7480.00,0.6861
7479.00,0.6961
7478.00,0.7051
7477.00,0.7134
7476.00,0.7217
7475.00,0.7308
7474.00,0.7403
7473.00,0.7493
7472.00,0.7577
7471.00,0.7656
7470.00,0.7737
7469.00,0.7818
7468.00,0.7893
7467.00,0.7960
7466.00,0.8021
7465.00,0.8082
7464.00,0.8144
7463.00,0.8208
7462.00,0.8274
7461.00,0.8344
7460.00,0.8413
7459.00,0.8474
7458.00,0.8523
7457.00,0.8563
7456.00,0.8599
7455.00,0.8634
7454.00,0.8664
7453.00,0.8690
7452.00,0.8715
7451.00,0.8744
7450.00,0.8775
7449.00,0.8804
7448.00,0.8826
7447.00,0.8844
7446.00,0.8859
7445.00,0.8870
7444.00,0.8872
7443.00,0.8865
7442.00,0.8850
7441.00,0.8834
7440.00,0.8818
7439.00,0.8802
7438.00,0.8780
7437.00,0.8748
7436.00,0.8710
7435.00,0.8675
7434.00,0.8648
7433.00,0.8624
7432.00,0.8598
7431.00,0.8568
7430.00,0.8535
7429.00,0.8496
7428.00,0.8452
7427.00,0.8410
7426.00,0.8377
7425.00,0.8347
7424.00,0.8307
7423.00,0.8250
7422.00,0.8180
7421.00,0.8107
7420.00,0.8033
7419.00,0.7953
7418.00,0.7864
7417.00,0.7770
7416.00,0.7679
7415.00,0.7596
7414.00,0.7520
7413.00,0.7446
7412.00,0.7366
7411.00,0.7283
7410.00,0.7202
7409.00,0.7129
7408.00,0.7065
7407.00,0.7007
7406.00,0.6954
7405.00,0.6903
7404.00,0.6852
7403.00,0.6797
7402.00,0.6741
7401.00,0.6683
7400.00,0.6622
7399.00,0.6555
7398.00,0.6486
7397.00,0.6419
7396.00,0.6356
7395.00,0.6297
7394.00,0.6242
7393.00,0.6192
7392.00,0.6148
7391.00,0.6107
7390.00,0.6067
7389.00,0.6028
7388.00,0.5990
7387.00,0.5952
7386.00,0.5917
7385.00,0.5885
7384.00,0.5857
7383.00,0.5834
7382.00,0.5815
7381.00,0.5801
7380.00,0.5791
7379.00,0.5787
7378.00,0.5786
7377.00,0.5784
7376.00,0.5779
7375.00,0.5773
7374.00,0.5771
7373.00,0.5773
7372.00,0.5778
7371.00,0.5784
7370.00,0.5797
7369.00,0.5819
7368.00,0.5849
7367.00,0.5886
7366.00,0.5927
7365.00,0.5973
7364.00,0.6022
7363.00,0.6072
7362.00,0.6123
7361.00,0.6178
7360.00,0.6237
7359.00,0.6300
7358.00,0.6366
7357.00,0.6434
7356.00,0.6504
7355.00,0.6579
7354.00,0.6660
7353.00,0.6749
7352.00,0.6840
7351.00,0.6929
7350.00,0.7015
7349.00,0.7100
7348.00,0.7183
7347.00,0.7264
7346.00,0.7345
7345.00,0.7430
7344.00,0.7520
7343.00,0.7615
7342.00,0.7713
7341.00,0.7810
7340.00,0.7902
7339.00,0.7992
7338.00,0.8082
7337.00,0.8175
7336.00,0.8266
7335.00,0.8354
7334.00,0.8440
7333.00,0.8527
7332.00,0.8615
7331.00,0.8698
7330.00,0.8777
7329.00,0.8854
7328.00,0.8934
7327.00,0.9018
7326.00,0.9105
7325.00,0.9196
7324.00,0.9284
7323.00,0.9361
7322.00,0.9425
7321.00,0.9482
7320.00,0.9540
7319.00,0.9599
7318.00,0.9656
7317.00,0.9708
7316.00,0.9761
7315.00,0.9819
7314.00,0.9879
7313.00,0.9936
7312.00,0.9985
7311.00,1.0030
7310.00,1.0072
7309.00,1.0112
7308.00,1.0145
7307.00,1.0172
7306.00,1.0196
7305.00,1.0219
7304.00,1.0243
7303.00,1.0266
7302.00,1.0288
7301.00,1.0307
7300.00,1.0322
7299.00,1.0333
7298.00,1.0342
7297.00,1.0348
7296.00,1.0347
7295.00,1.0337
7294.00,1.0323
7293.00,1.0305
7292.00,1.0283
7291.00,1.0257
7290.00,1.0228
7289.00,1.0201
7288.00,1.0175
7287.00,1.0147
7286.00,1.0114
7285.00,1.0076
7284.00,1.0033
7283.00,0.9986
7282.00,0.9938
7281.00,0.9890
7280.00,0.9842
7279.00,0.9789
7278.00,0.9731
7277.00,0.9669
7276.00,0.9607
7275.00,0.9543
7274.00,0.9479
7273.00,0.9411
7272.00,0.9340
7271.00,0.9266
7270.00,0.9194
7269.00,0.9121
7268.00,0.9042
7267.00,0.8955
7266.00,0.8863
7265.00,0.8774
7264.00,0.8689
7263.00,0.8606
7262.00,0.8522
7261.00,0.8437
7260.00,0.8350
7259.00,0.8260
7258.00,0.8168
7257.00,0.8079
7256.00,0.7993
7255.00,0.7910
7254.00,0.7829
7253.00,0.7751
7252.00,0.7675
7251.00,0.7601
7250.00,0.7526
7249.00,0.7452
7248.00,0.7379
7247.00,0.7308
7246.00,0.7240
7245.00,0.7177
7244.00,0.7120
7243.00,0.7069
7242.00,0.7021
7241.00,0.6976
7240.00,0.6932
7239.00,0.6892
7238.00,0.6855
7237.00,0.6825
7236.00,0.6800
7235.00,0.6780
7234.00,0.6765
7233.00,0.6757
7232.00,0.6757
7231.00,0.6764
7230.00,0.6775
7229.00,0.6787
7228.00,0.6799
7227.00,0.6814
7226.00,0.6838
7225.00,0.6869
7224.00,0.6904
7223.00,0.6940
7222.00,0.6979
7221.00,0.7023
7220.00,0.7073
7219.00,0.7127
7218.00,0.7184
7217.00,0.7243
7216.00,0.7307
7215.00,0.7376
7214.00,0.7450
7213.00,0.7525
7212.00,0.7600
7211.00,0.7673
7210.00,0.7747
7209.00,0.7824
7208.00,0.7905
7207.00,0.7986
7206.00,0.8069
7205.00,0.8154
7204.00,0.8240
7203.00,0.8328
7202.00,0.8415
7201.00,0.8503
7200.00,0.8589
7199.00,0.8670
7198.00,0.8751
7197.00,0.8833
7196.00,0.8918
7195.00,0.9004
7194.00,0.9090
7193.00,0.9175
7192.00,0.9259
7191.00,0.9340
7190.00,0.9419
7189.00,0.9495
7188.00,0.9570
7187.00,0.9639
7186.00,0.9703
7185.00,0.9767
7184.00,0.9834
7183.00,0.9902
7182.00,0.9970
7181.00,1.0036
7180.00,1.0104
7179.00,1.0170
7178.00,1.0234
7177.00,1.0292
7176.00,1.0345
7175.00,1.0394
7174.00,1.0440
7173.00,1.0482
7172.00,1.0518
7171.00,1.0550
7170.00,1.0581
7169.00,1.0613
7168.00,1.0644
7167.00,1.0671
7166.00,1.0693
7165.00,1.0714
7164.00,1.0734
7163.00,1.0751
7162.00,1.0761
7161.00,1.0763
7160.00,1.0759
7159.00,1.0754
7158.00,1.0748
7157.00,1.0742
7156.00,1.0735
7155.00,1.0726
7154.00,1.0716
7153.00,1.0706
7152.00,1.0692
7151.00,1.0672
7150.00,1.0647
7149.00,1.0616
7148.00,1.0580
7147.00,1.0542
7146.00,1.0501
7145.00,1.0458
7144.00,1.0414
7143.00,1.0370
7142.00,1.0323
7141.00,1.0271
7140.00,1.0212
7139.00,1.0150
7138.00,1.0089
7137.00,1.0026
7136.00,0.9961
7135.00,0.9894
7134.00,0.9829
7133.00,0.9767
7132.00,0.9702
7131.00,0.9628
7130.00,0.9544
7129.00,0.9454
7128.00,0.9361
7127.00,0.9268
7126.00,0.9177
7125.00,0.9092
7124.00,0.9011
7123.00,0.8930
7122.00,0.8849
7121.00,0.8766
7120.00,0.8683
7119.00,0.8598
7118.00,0.8513
7117.00,0.8426
7116.00,0.8339
7115.00,0.8252
7114.00,0.8168
7113.00,0.8087
7112.00,0.8006
7111.00,0.7923
7110.00,0.7844
7109.00,0.7773
7108.00,0.7711
7107.00,0.7652
7106.00,0.7594
7105.00,0.7536
7104.00,0.7478
7103.00,0.7421
7102.00,0.7367
7101.00,0.7316
7100.00,0.7268
7099.00,0.7224
7098.00,0.7185
7097.00,0.7153
7096.00,0.7126
7095.00,0.7104
7094.00,0.7084
7093.00,0.7069
7092.00,0.7059
7091.00,0.7052
7090.00,0.7049
7089.00,0.7050
7088.00,0.7057
7087.00,0.7068
7086.00,0.7084
7085.00,0.7106
7084.00,0.7134
7083.00,0.7165
7082.00,0.7200
7081.00,0.7239
7080.00,0.7282
7079.00,0.7328
7078.00,0.7377
7077.00,0.7430
7076.00,0.7487
7075.00,0.7547
7074.00,0.7611
7073.00,0.7677
7072.00,0.7745
7071.00,0.7816
7070.00,0.7890
7069.00,0.7970
7068.00,0.8053
7067.00,0.8137
7066.00,0.8223
7065.00,0.8308
7064.00,0.8394
7063.00,0.8479
7062.00,0.8564
7061.00,0.8649
7060.00,0.8734
7059.00,0.8820
7058.00,0.8909
7057.00,0.8999
7056.00,0.9090
7055.00,0.9180
7054.00,0.9268
7053.00,0.9358
7052.00,0.9446
7051.00,0.9531
7050.00,0.9613
7049.00,0.9694
7048.00,0.9777
7047.00,0.9860
7046.00,0.9942
7045.00,1.0022
7044.00,1.0102
7043.00,1.0179
7042.00,1.0252
7041.00,1.0322
7040.00,1.0391
7039.00,1.0458
7038.00,1.0525
7037.00,1.0591
7036.00,1.0659
7035.00,1.0727
7034.00,1.0791
7033.00,1.0849
7032.00,1.0900
7031.00,1.0949
7030.00,1.0998
7029.00,1.1050
7028.00,1.1101
7027.00,1.1147
7026.00,1.1187
7025.00,1.1222
7024.00,1.1253
7023.00,1.1279
7022.00,1.1299
7021.00,1.1317
7020.00,1.1333
7019.00,1.1350
7018.00,1.1366
7017.00,1.1378
7016.00,1.1384
7015.00,1.1383
7014.00,1.1380
7013.00,1.1376
7012.00,1.1370
7011.00,1.1358
7010.00,1.1341
7009.00,1.1322
7008.00,1.1304
7007.00,1.1284
7006.00,1.1260
7005.00,1.1231
7004.00,1.1200
7003.00,1.1166
7002.00,1.1129
7001.00,1.1088
7000.00,1.1043
6999.00,1.0994
6998.00,1.0939
6997.00,1.0881
6996.00,1.0821
6995.00,1.0759
6994.00,1.0695
6993.00,1.0627
6992.00,1.0556
6991.00,1.0480
6990.00,1.0401
6989.00,1.0319
6988.00,1.0235
6987.00,1.0148
6986.00,1.0058
6985.00,0.9970
6984.00,0.9885
6983.00,0.9801
6982.00,0.9716
6981.00,0.9628
6980.00,0.9538
6979.00,0.9447
6978.00,0.9354
6977.00,0.9259
6976.00,0.9164
6975.00,0.9068
6974.00,0.8973
6973.00,0.8879
6972.00,0.8785
6971.00,0.8694
6970.00,0.8604
6969.00,0.8517
6968.00,0.8433
6967.00,0.8350
6966.00,0.8269
6965.00,0.8190
6964.00,0.8116
6963.00,0.8045
6962.00,0.7978
6961.00,0.7913
6960.00,0.7851
6959.00,0.7793
6958.00,0.7741
6957.00,0.7694
6956.00,0.7649
6955.00,0.7605
6954.00,0.7566
6953.00,0.7536
6952.00,0.7512
6951.00,0.7490
6950.00,0.7473
6949.00,0.7462
6948.00,0.7458
6947.00,0.7460
6946.00,0.7465
6945.00,0.7472
6944.00,0.7485
6943.00,0.7505
6942.00,0.7530
6941.00,0.7560
6940.00,0.7594
6939.00,0.7633
6938.00,0.7677
6937.00,0.7725
6936.00,0.7775
6935.00,0.7829
6934.00,0.7888
6933.00,0.7951
6932.00,0.8018
6931.00,0.8088
6930.00,0.8161
6929.00,0.8236
6928.00,0.8314
6927.00,0.8392
6926.00,0.8470
6925.00,0.8549
6924.00,0.8628
6923.00,0.8710
6922.00,0.8795
6921.00,0.8882
6920.00,0.8968
6919.00,0.9053
6918.00,0.9140
6917.00,0.9229
6916.00,0.9320
6915.00,0.9407
6914.00,0.9491
6913.00,0.9574
6912.00,0.9659
6911.00,0.9747
6910.00,0.9836
6909.00,0.9924
6908.00,1.0009
6907.00,1.0091
6906.00,1.0170
6905.00,1.0248
6904.00,1.0326
6903.00,1.0402
6902.00,1.0479
6901.00,1.0556
6900.00,1.0634
6899.00,1.0710
6898.00,1.0782
6897.00,1.0850
6896.00,1.0911
6895.00,1.0968
6894.00,1.1021
6893.00,1.1073
6892.00,1.1124
6891.00,1.1173
6890.00,1.1219
6889.00,1.1261
6888.00,1.1298
6887.00,1.1330
6886.00,1.1357
6885.00,1.1384
6884.00,1.1409
6883.00,1.1432
6882.00,1.1451
6881.00,1.1469
6880.00,1.1484
6879.00,1.1496
6878.00,1.1503
6877.00,1.1508
6876.00,1.1510
6875.00,1.1509
6874.00,1.1504
6873.00,1.1494
6872.00,1.1482
6871.00,1.1467
6870.00,1.1449
6869.00,1.1427
6868.00,1.1402
6867.00,1.1372
6866.00,1.1339
6865.00,1.1302
6864.00,1.1261
6863.00,1.1217
6862.00,1.1169
6861.00,1.1116
6860.00,1.1059
6859.00,1.1003
6858.00,1.0947
6857.00,1.0890
6856.00,1.0828
6855.00,1.0759
6854.00,1.0684
6853.00,1.0609
6852.00,1.0534
6851.00,1.0459
6850.00,1.0378
6849.00,1.0293
6848.00,1.0208
6847.00,1.0127
6846.00,1.0047
6845.00,0.9962
6844.00,0.9870
6843.00,0.9775
6842.00,0.9680
6841.00,0.9585
6840.00,0.9488
6839.00,0.9390
6838.00,0.9291
6837.00,0.9194
6836.00,0.9101
6835.00,0.9011
6834.00,0.8925
6833.00,0.8838
6832.00,0.8749
6831.00,0.8658
6830.00,0.8569
6829.00,0.8481
6828.00,0.8396
6827.00,0.8312
6826.00,0.8232
6825.00,0.8158
6824.00,0.8087
6823.00,0.8017
6822.00,0.7949
6821.00,0.7884
6820.00,0.7820
6819.00,0.7760
6818.00,0.7705
6817.00,0.7657
6816.00,0.7613
6815.00,0.7573
6814.00,0.7536
6813.00,0.7503
6812.00,0.7474
6811.00,0.7447
6810.00,0.7424
6809.00,0.7408
6808.00,0.7397
6807.00,0.7389
6806.00,0.7386
6805.00,0.7389
6804.00,0.7400
6803.00,0.7417
6802.00,0.7436
6801.00,0.7460
6800.00,0.7489
6799.00,0.7524
6798.00,0.7563
6797.00,0.7606
6796.00,0.7651
6795.00,0.7701
6794.00,0.7757
6793.00,0.7817
6792.00,0.7880
6791.00,0.7945
6790.00,0.8016
6789.00,0.8091
6788.00,0.8169
6787.00,0.8246
6786.00,0.8325
6785.00,0.8405
6784.00,0.8489
6783.00,0.8575
6782.00,0.8662
6781.00,0.8751
6780.00,0.8841
6779.00,0.8931
6778.00,0.9021
6777.00,0.9111
6776.00,0.9200
6775.00,0.9291
6774.00,0.9383
6773.00,0.9476
6772.00,0.9571
6771.00,0.9664
6770.00,0.9755
6769.00,0.9846
6768.00,0.9937
6767.00,1.0029
6766.00,1.0120
6765.00,1.0208
6764.00,1.0294
6763.00,1.0378
6762.00,1.0460
6761.00,1.0541
6760.00,1.0619
6759.00,1.0695
6758.00,1.0770
6757.00,1.0845
6756.00,1.0920
6755.00,1.0992
6754.00,1.1060
6753.00,1.1124
6752.00,1.1187
6751.00,1.1250
6750.00,1.1313
6749.00,1.1373
6748.00,1.1429
6747.00,1.1480
6746.00,1.1525
6745.00,1.1568
6744.00,1.1609
6743.00,1.1646
6742.00,1.1678
6741.00,1.1705
6740.00,1.1731
6739.00,1.1759
6738.00,1.1787
6737.00,1.1809
6736.00,1.1822
6735.00,1.1831
6734.00,1.1840
6733.00,1.1852
6732.00,1.1864
6731.00,1.1871
6730.00,1.1870
6729.00,1.1863
6728.00,1.1849
6727.00,1.1828
6726.00,1.1801
6725.00,1.1771
6724.00,1.1741
6723.00,1.1712
6722.00,1.1684
6721.00,1.1656
6720.00,1.1622
6719.00,1.1581
6718.00,1.1535
6717.00,1.1486
6716.00,1.1438
6715.00,1.1387
6714.00,1.1332
6713.00,1.1272
6712.00,1.1208
6711.00,1.1138
6710.00,1.1063
6709.00,1.0984
6708.00,1.0904
6707.00,1.0823
6706.00,1.0742
6705.00,1.0662
6704.00,1.0582
6703.00,1.0501
6702.00,1.0415
6701.00,1.0324
6700.00,1.0229
6699.00,1.0131
6698.00,1.0030
6697.00,0.9929
6696.00,0.9828
6695.00,0.9729
6694.00,0.9631
6693.00,0.9534
6692.00,0.9437
6691.00,0.9337
6690.00,0.9236
6689.00,0.9136
6688.00,0.9037
6687.00,0.8941
6686.00,0.8847
6685.00,0.8755
6684.00,0.8665
6683.00,0.8576
6682.00,0.8489
6681.00,0.8403
6680.00,0.8319
6679.00,0.8239
6678.00,0.8164
6677.00,0.8094
6676.00,0.8030
6675.00,0.7970
6674.00,0.7914
6673.00,0.7861
6672.00,0.7812
6671.00,0.7768
6670.00,0.7730
6669.00,0.7698
6668.00,0.7670
6667.00,0.7646
6666.00,0.7629
6665.00,0.7620
6664.00,0.7616
6663.00,0.7618
6662.00,0.7626
6661.00,0.7640
6660.00,0.7659
6659.00,0.7684
6658.00,0.7713
6657.00,0.7746
6656.00,0.7782
6655.00,0.7822
6654.00,0.7866
6653.00,0.7916
6652.00,0.7972
6651.00,0.8031
6650.00,0.8093
6649.00,0.8159
6648.00,0.8229
6647.00,0.8303
6646.00,0.8380
6645.00,0.8459
6644.00,0.8538
6643.00,0.8618
6642.00,0.8702
6641.00,0.8789
6640.00,0.8879
6639.00,0.8969
6638.00,0.9060
6637.00,0.9153
6636.00,0.9247
6635.00,0.9342
6634.00,0.9437
6633.00,0.9530
6632.00,0.9623
6631.00,0.9715
6630.00,0.9805
6629.00,0.9895
6628.00,0.9986
6627.00,1.0076
6626.00,1.0163
6625.00,1.0249
6624.00,1.0335
6623.00,1.0422
6622.00,1.0507
6621.00,1.0588
6620.00,1.0662
6619.00,1.0734
6618.00,1.0808
6617.00,1.0883
6616.00,1.0957
6615.00,1.1028
6614.00,1.1097
6613.00,1.1165
6612.00,1.1230
6611.00,1.1291
6610.00,1.1347
6609.00,1.1400
6608.00,1.1451
6607.00,1.1500
6606.00,1.1547
6605.00,1.1591
6604.00,1.1630
6603.00,1.1664
6602.00,1.1696
6601.00,1.1728
6600.00,1.1759
6599.00,1.1787
6598.00,1.1808
6597.00,1.1824
6596.00,1.1836
6595.00,1.1843
6594.00,1.1847
6593.00,1.1846
6592.00,1.1842
6591.00,1.1836
6590.00,1.1828
6589.00,1.1815
6588.00,1.1798
6587.00,1.1777
6586.00,1.1751
6585.00,1.1720
6584.00,1.1684
6583.00,1.1645
6582.00,1.1604
6581.00,1.1562
6580.00,1.1520
6579.00,1.1476
6578.00,1.1432
6577.00,1.1385
6576.00,1.1337
6575.00,1.1284
6574.00,1.1227
6573.00,1.1163
6572.00,1.1094
6571.00,1.1021
6570.00,1.0945
6569.00,1.0866
6568.00,1.0784
6567.00,1.0699
6566.00,1.0614
6565.00,1.0529
6564.00,1.0443
6563.00,1.0355
6562.00,1.0264
6561.00,1.0170
6560.00,1.0075
6559.00,0.9977
6558.00,0.9879
6557.00,0.9779
6556.00,0.9678
6555.00,0.9576
6554.00,0.9475
6553.00,0.9375
6552.00,0.9278
6551.00,0.9181
6550.00,0.9084
6549.00,0.8986
6548.00,0.8889
6547.00,0.8793
6546.00,0.8699
6545.00,0.8606
6544.00,0.8515
6543.00,0.8427
6542.00,0.8342
6541.00,0.8259
6540.00,0.8178
6539.00,0.8098
6538.00,0.8021
6537.00,0.7949
6536.00,0.7882
6535.00,0.7818
6534.00,0.7759
6533.00,0.7705
6532.00,0.7656
6531.00,0.7612
6530.00,0.7572
6529.00,0.7536
6528.00,0.7505
6527.00,0.7479
6526.00,0.7458
6525.00,0.7442
6524.00,0.7431
6523.00,0.7424
6522.00,0.7423
6521.00,0.7427
6520.00,0.7438
6519.00,0.7453
6518.00,0.7475
6517.00,0.7503
6516.00,0.7536
6515.00,0.7574
6514.00,0.7616
6513.00,0.7662
6512.00,0.7713
6511.00,0.7769
6510.00,0.7830
6509.00,0.7895
6508.00,0.7964
6507.00,0.8037
6506.00,0.8112
6505.00,0.8190
6504.00,0.8270
6503.00,0.8351
6502.00,0.8434
6501.00,0.8521
6500.00,0.8611
6499.00,0.8701
6498.00,0.8793
6497.00,0.8886
6496.00,0.8982
6495.00,0.9077
6494.00,0.9174
6493.00,0.9272
6492.00,0.9371
6491.00,0.9469
6490.00,0.9566
6489.00,0.9664
6488.00,0.9763
6487.00,0.9861
6486.00,0.9956
6485.00,1.0050
6484.00,1.0144
6483.00,1.0238
6482.00,1.0331
6481.00,1.0421
6480.00,1.0511
6479.00,1.0599
6478.00,1.0688
6477.00,1.0775
6476.00,1.0858
6475.00,1.0937
6474.00,1.1015
6473.00,1.1090
6472.00,1.1159
6471.00,1.1224
6470.00,1.1286
6469.00,1.1350
6468.00,1.1414
6467.00,1.1475
6466.00,1.1535
6465.00,1.1594
6464.00,1.1650
6463.00,1.1702
6462.00,1.1747
6461.00,1.1787
6460.00,1.1823
6459.00,1.1856
6458.00,1.1884
6457.00,1.1909
6456.00,1.1932
6455.00,1.1956
6454.00,1.1977
6453.00,1.1995
6452.00,1.2008
6451.00,1.2019
6450.00,1.2027
6449.00,1.2031
6448.00,1.2031
6447.00,1.2027
6446.00,1.2021
6445.00,1.2014
6444.00,1.2003
6443.00,1.1986
6442.00,1.1965
6441.00,1.1941
6440.00,1.1916
6439.00,1.1886
6438.00,1.1850
6437.00,1.1808
6436.00,1.1762
6435.00,1.1711
6434.00,1.1658
6433.00,1.1602
6432.00,1.1544
6431.00,1.1484
6430.00,1.1421
6429.00,1.1354
6428.00,1.1284
6427.00,1.1211
6426.00,1.1133
6425.00,1.1054
6424.00,1.0971
6423.00,1.0886
6422.00,1.0799
6421.00,1.0708
6420.00,1.0614
6419.00,1.0517
6418.00,1.0419
6417.00,1.0320
6416.00,1.0219
6415.00,1.0115
6414.00,1.0010
6413.00,0.9903
6412.00,0.9795
6411.00,0.9686
6410.00,0.9578
6409.00,0.9471
6408.00,0.9364
6407.00,0.9258
6406.00,0.9152
6405.00,0.9046
6404.00,0.8941
6403.00,0.8837
6402.00,0.8735
6401.00,0.8635
6400.00,0.8538
6399.00,0.8442
6398.00,0.8350
6397.00,0.8260
6396.00,0.8174
6395.00,0.8091
6394.00,0.8012
6393.00,0.7938
6392.00,0.7870
6391.00,0.7806
6390.00,0.7747
6389.00,0.7695
6388.00,0.7648
6387.00,0.7606
6386.00,0.7568
6385.00,0.7535
6384.00,0.7508
6383.00,0.7487
6382.00,0.7472
6381.00,0.7464
6380.00,0.7463
6379.00,0.7468
6378.00,0.7478
6377.00,0.7494
6376.00,0.7515
6375.00,0.7542
6374.00,0.7574
6373.00,0.7612
6372.00,0.7654
6371.00,0.7702
6370.00,0.7754
6369.00,0.7812
6368.00,0.7874
6367.00,0.7939
6366.00,0.8007
6365.00,0.8080
6364.00,0.8157
6363.00,0.8237
6362.00,0.8320
6361.00,0.8407
6360.00,0.8495
6359.00,0.8585
6358.00,0.8677
6357.00,0.8769
6356.00,0.8862
6355.00,0.8957
6354.00,0.9054
6353.00,0.9153
6352.00,0.9252
6351.00,0.9351
6350.00,0.9449
6349.00,0.9547
6348.00,0.9643
6347.00,0.9738
6346.00,0.9833
6345.00,0.9930
6344.00,1.0027
6343.00,1.0123
6342.00,1.0218
6341.00,1.0311
6340.00,1.0400
6339.00,1.0485
6338.00,1.0568
6337.00,1.0651
6336.00,1.0734
6335.00,1.0816
6334.00,1.0899
6333.00,1.0983
6332.00,1.1066
6331.00,1.1145
6330.00,1.1219
6329.00,1.1291
6328.00,1.1361
6327.00,1.1426
6326.00,1.1487
6325.00,1.1543
6324.00,1.1594
6323.00,1.1643
6322.00,1.1688
6321.00,1.1729
6320.00,1.1768
6319.00,1.1804
6318.00,1.1837
6317.00,1.1865
6316.00,1.1887
6315.00,1.1903
6314.00,1.1916
6313.00,1.1927
6312.00,1.1935
6311.00,1.1940
6310.00,1.1942
6309.00,1.1943
6308.00,1.1941
6307.00,1.1936
6306.00,1.1928
6305.00,1.1917
6304.00,1.1901
6303.00,1.1881
6302.00,1.1854
6301.00,1.1821
6300.00,1.1783
6299.00,1.1743
6298.00,1.1707
6297.00,1.1673
6296.00,1.1638
6295.00,1.1596
6294.00,1.1545
6293.00,1.1486
6292.00,1.1421
6291.00,1.1352
6290.00,1.1280
6289.00,1.1208
6288.00,1.1135
6287.00,1.1062
6286.00,1.0988
6285.00,1.0909
6284.00,1.0823
6283.00,1.0732
6282.00,1.0638
6281.00,1.0544
6280.00,1.0449
6279.00,1.0352
6278.00,1.0255
6277.00,1.0160
6276.00,1.0064
6275.00,0.9964
6274.00,0.9860
6273.00,0.9753
6272.00,0.9645
6271.00,0.9537
6270.00,0.9429
6269.00,0.9322
6268.00,0.9218
6267.00,0.9113
6266.00,0.9008
6265.00,0.8903
6264.00,0.8798
6263.00,0.8693
6262.00,0.8588
6261.00,0.8486
6260.00,0.8388
6259.00,0.8292
6258.00,0.8200
6257.00,0.8110
6256.00,0.8023
6255.00,0.7937
6254.00,0.7854
6253.00,0.7775
6252.00,0.7700
6251.00,0.7630
6250.00,0.7565
6249.00,0.7505
6248.00,0.7449
6247.00,0.7398
6246.00,0.7353
6245.00,0.7313
6244.00,0.7279
6243.00,0.7252
6242.00,0.7230
6241.00,0.7216
6240.00,0.7207
6239.00,0.7204
6238.00,0.7207
6237.00,0.7216
6236.00,0.7231
6235.00,0.7251
6234.00,0.7278
6233.00,0.7310
6232.00,0.7347
6231.00,0.7389
6230.00,0.7436
6229.00,0.7489
6228.00,0.7546
6227.00,0.7607
6226.00,0.7672
6225.00,0.7742
6224.00,0.7817
6223.00,0.7896
6222.00,0.7980
6221.00,0.8067
6220.00,0.8158
6219.00,0.8251
6218.00,0.8346
6217.00,0.8443
6216.00,0.8540
6215.00,0.8637
6214.00,0.8735
6213.00,0.8833
6212.00,0.8932
6211.00,0.9031
6210.00,0.9130
6209.00,0.9230
6208.00,0.9331
6207.00,0.9432
6206.00,0.9534
6205.00,0.9636
6204.00,0.9737
6203.00,0.9839
6202.00,0.9942
6201.00,1.0044
6200.00,1.0144
6199.00,1.0244
6198.00,1.0342
6197.00,1.0439
6196.00,1.0534
6195.00,1.0626
6194.00,1.0717
6193.00,1.0805
6192.00,1.0890
6191.00,1.0970
6190.00,1.1046
6189.00,1.1119
6188.00,1.1191
6187.00,1.1261
6186.00,1.1327
6185.00,1.1391
6184.00,1.1454
6183.00,1.1515
6182.00,1.1574
6181.00,1.1631
6180.00,1.1684
6179.00,1.1733
6178.00,1.1776
6177.00,1.1813
6176.00,1.1843
6175.00,1.1869
6174.00,1.1894
6173.00,1.1919
6172.00,1.1945
6171.00,1.1970
6170.00,1.1992
6169.00,1.2011
6168.00,1.2025
6167.00,1.2034
6166.00,1.2036
6165.00,1.2035
6164.00,1.2031
6163.00,1.2024
6162.00,1.2013
6161.00,1.1998
6160.00,1.1979
6159.00,1.1956
6158.00,1.1928
6157.00,1.1897
6156.00,1.1865
6155.00,1.1829
6154.00,1.1788
6153.00,1.1742
6152.00,1.1696
6151.00,1.1649
6150.00,1.1599
6149.00,1.1544
6148.00,1.1483
6147.00,1.1416
6146.00,1.1342
6145.00,1.1261
6144.00,1.1177
6143.00,1.1091
6142.00,1.1007
6141.00,1.0922
6140.00,1.0835
6139.00,1.0744
6138.00,1.0651
6137.00,1.0554
6136.00,1.0455
6135.00,1.0354
6134.00,1.0251
6133.00,1.0144
6132.00,1.0034
6131.00,0.9921
6130.00,0.9807
6129.00,0.9694
6128.00,0.9581
6127.00,0.9469
6126.00,0.9355
6125.00,0.9241
6124.00,0.9124
6123.00,0.9007
6122.00,0.8892
6121.00,0.8779
6120.00,0.8666
6119.00,0.8553
6118.00,0.8443
6117.00,0.8336
6116.00,0.8232
6115.00,0.8129
6114.00,0.8030
6113.00,0.7934
6112.00,0.7843
6111.00,0.7757
6110.00,0.7675
6109.00,0.7599
6108.00,0.7528
6107.00,0.7462
6106.00,0.7402
6105.00,0.7347
6104.00,0.7296
6103.00,0.7250
6102.00,0.7212
6101.00,0.7182
6100.00,0.7160
6099.00,0.7144
6098.00,0.7135
6097.00,0.7131
6096.00,0.7132
6095.00,0.7140
6094.00,0.7154
6093.00,0.7176
6092.00,0.7205
6091.00,0.7240
6090.00,0.7281
6089.00,0.7327
6088.00,0.7376
6087.00,0.7430
6086.00,0.7491
6085.00,0.7558
6084.00,0.7629
6083.00,0.7704
6082.00,0.7782
6081.00,0.7863
6080.00,0.7947
6079.00,0.8033
6078.00,0.8124
6077.00,0.8219
6076.00,0.8317
6075.00,0.8416
6074.00,0.8517
6073.00,0.8619
6072.00,0.8721
6071.00,0.8823
6070.00,0.8926
6069.00,0.9029
6068.00,0.9132
6067.00,0.9236
6066.00,0.9340
6065.00,0.9445
6064.00,0.9550
6063.00,0.9654
6062.00,0.9760
6061.00,0.9867
6060.00,0.9972
6059.00,1.0074
6058.00,1.0171
6057.00,1.0265
6056.00,1.0354
6055.00,1.0440
6054.00,1.0525
6053.00,1.0612
6052.00,1.0700
6051.00,1.0789
6050.00,1.0874
6049.00,1.0954
6048.00,1.1031
6047.00,1.1104
6046.00,1.1176
6045.00,1.1249
6044.00,1.1319
6043.00,1.1384
6042.00,1.1445
6041.00,1.1502
6040.00,1.1556
6039.00,1.1604
6038.00,1.1647
6037.00,1.1686
6036.00,1.1723
6035.00,1.1757
6034.00,1.1790
6033.00,1.1823
6032.00,1.1856
6031.00,1.1887
6030.00,1.1911
6029.00,1.1927
6028.00,1.1936
6027.00,1.1940
6026.00,1.1940
6025.00,1.1938
6024.00,1.1934
6023.00,1.1926
6022.00,1.1916
6021.00,1.1902
6020.00,1.1886
6019.00,1.1870
6018.00,1.1854
6017.00,1.1836
6016.00,1.1814
6015.00,1.1785
6014.00,1.1750
6013.00,1.1711
6012.00,1.1666
6011.00,1.1618
6010.00,1.1566
6009.00,1.1511
6008.00,1.1453
6007.00,1.1389
6006.00,1.1323
6005.00,1.1256
6004.00,1.1186
6003.00,1.1112
6002.00,1.1035
6001.00,1.0955
6000.00,1.0873
5999.00,1.0786
5998.00,1.0696
5997.00,1.0602
5996.00,1.0504
5995.00,1.0403
5994.00,1.0299
5993.00,1.0194
5992.00,1.0086
5991.00,0.9976
5990.00,0.9865
5989.00,0.9752
5988.00,0.9636
5987.00,0.9519
5986.00,0.9400
5985.00,0.9281
5984.00,0.9162
5983.00,0.9043
5982.00,0.8925
5981.00,0.8808
5980.00,0.8693
5979.00,0.8578
5978.00,0.8464
5977.00,0.8352
5976.00,0.8241
5975.00,0.8133
5974.00,0.8030
5973.00,0.7931
5972.00,0.7836
5971.00,0.7745
5970.00,0.7659
5969.00,0.7577
5968.00,0.7501
5967.00,0.7430
5966.00,0.7366
5965.00,0.7311
5964.00,0.7262
5963.00,0.7221
5962.00,0.7187
5961.00,0.7160
5960.00,0.7140
5959.00,0.7126
5958.00,0.7119
5957.00,0.7119
5956.00,0.7124
5955.00,0.7134
5954.00,0.7148
5953.00,0.7166
5952.00,0.7186
5951.00,0.7208
5950.00,0.7233
5949.00,0.7262
5948.00,0.7294
5947.00,0.7331
5946.00,0.7372
5945.00,0.7419
5944.00,0.7472
5943.00,0.7530
5942.00,0.7594
5941.00,0.7663
5940.00,0.7737
5939.00,0.7815
5938.00,0.7899
5937.00,0.7986
5936.00,0.8078
5935.00,0.8172
5934.00,0.8269
5933.00,0.8369
5932.00,0.8471
5931.00,0.8573
5930.00,0.8677
5929.00,0.8784
5928.00,0.8892
5927.00,0.9001
5926.00,0.9111
5925.00,0.9222
5924.00,0.9333
5923.00,0.9444
5922.00,0.9555
5921.00,0.9664
5920.00,0.9771
5919.00,0.9877
5918.00,0.9982
5917.00,1.0087
5916.00,1.0191
5915.00,1.0294
5914.00,1.0396
5913.00,1.0497
5912.00,1.0595
5911.00,1.0690
5910.00,1.0782
5909.00,1.0871
5908.00,1.0958
5907.00,1.1042
5906.00,1.1125
5905.00,1.1205
5904.00,1.1282
5903.00,1.1354
5902.00,1.1422
5901.00,1.1489
5900.00,1.1553
5899.00,1.1614
5898.00,1.1670
5897.00,1.1722
5896.00,1.1771
5895.00,1.1817
5894.00,1.1859
5893.00,1.1899
5892.00,1.1938
5891.00,1.1975
5890.00,1.2006
5889.00,1.2031
5888.00,1.2051
5887.00,1.2068
5886.00,1.2082
5885.00,1.2092
5884.00,1.2098
5883.00,1.2102
5882.00,1.2102
5881.00,1.2099
5880.00,1.2091
5879.00,1.2078
5878.00,1.2062
5877.00,1.2042
5876.00,1.2018
5875.00,1.1987
5874.00,1.1953
5873.00,1.1917
5872.00,1.1879
5871.00,1.1839
5870.00,1.1796
5869.00,1.1750
5868.00,1.1700
5867.00,1.1645
5866.00,1.1585
5865.00,1.1520
5864.00,1.1451
5863.00,1.1379
5862.00,1.1305
5861.00,1.1226
5860.00,1.1143
5859.00,1.1058
5858.00,1.0972
5857.00,1.0884
5856.00,1.0794
5855.00,1.0701
5854.00,1.0604
5853.00,1.0504
5852.00,1.0402
5851.00,1.0297
5850.00,1.0188
5849.00,1.0078
5848.00,0.9966
5847.00,0.9852
5846.00,0.9738
5845.00,0.9623
5844.00,0.9507
5843.00,0.9389
5842.00,0.9271
5841.00,0.9152
5840.00,0.9034
5839.00,0.8917
5838.00,0.8802
5837.00,0.8690
5836.00,0.8580
5835.00,0.8471
5834.00,0.8363
5833.00,0.8256
5832.00,0.8151
5831.00,0.8049
5830.00,0.7948
5829.00,0.7851
5828.00,0.7758
5827.00,0.7669
5826.00,0.7585
5825.00,0.7506
5824.00,0.7431
5823.00,0.7361
5822.00,0.7296
5821.00,0.7237
5820.00,0.7184
5819.00,0.7137
5818.00,0.7098
5817.00,0.7067
5816.00,0.7042
5815.00,0.7024
5814.00,0.7013
5813.00,0.7010
5812.00,0.7013
5811.00,0.7023
5810.00,0.7039
5809.00,0.7062
5808.00,0.7092
5807.00,0.7127
5806.00,0.7169
5805.00,0.7219
5804.00,0.7274
5803.00,0.7334
5802.00,0.7400
5801.00,0.7471
5800.00,0.7547
5799.00,0.7627
5798.00,0.7710
5797.00,0.7799
5796.00,0.7891
5795.00,0.7985
5794.00,0.8081
5793.00,0.8180
5792.00,0.8282
5791.00,0.8387
5790.00,0.8494
5789.00,0.8604
5788.00,0.8714
5787.00,0.8823
5786.00,0.8933
5785.00,0.9044
5784.00,0.9154
5783.00,0.9265
5782.00,0.9376
5781.00,0.9489
5780.00,0.9602
5779.00,0.9713
5778.00,0.9823
5777.00,0.9933
5776.00,1.0043
5775.00,1.0152
5774.00,1.0260
5773.00,1.0365
5772.00,1.0468
5771.00,1.0567
5770.00,1.0663
5769.00,1.0757
5768.00,1.0849
5767.00,1.0940
5766.00,1.1029
5765.00,1.1117
5764.00,1.1200
5763.00,1.1277
5762.00,1.1349
5761.00,1.1418
5760.00,1.1486
5759.00,1.1553
5758.00,1.1619
5757.00,1.1683
5756.00,1.1745
5755.00,1.1801
5754.00,1.1852
5753.00,1.1897
5752.00,1.1938
5751.00,1.1976
5750.00,1.2012
5749.00,1.2047
5748.00,1.2080
5747.00,1.2108
5746.00,1.2131
5745.00,1.2149
5744.00,1.2163
5743.00,1.2174
5742.00,1.2182
5741.00,1.2187
5740.00,1.2188
5739.00,1.2183
5738.00,1.2171
5737.00,1.2155
5736.00,1.2136
5735.00,1.2117
5734.00,1.2096
5733.00,1.2074
5732.00,1.2051
5731.00,1.2023
5730.00,1.1988
5729.00,1.1945
5728.00,1.1896
5727.00,1.1845
5726.00,1.1790
5725.00,1.1731
5724.00,1.1669
5723.00,1.1605
5722.00,1.1539
5721.00,1.1470
5720.00,1.1396
5719.00,1.1317
5718.00,1.1234
5717.00,1.1147
5716.00,1.1056
5715.00,1.0960
5714.00,1.0862
5713.00,1.0763
5712.00,1.0663
5711.00,1.0559
5710.00,1.0450
5709.00,1.0336
5708.00,1.0218
5707.00,1.0099
5706.00,0.9978
5705.00,0.9855
5704.00,0.9731
5703.00,0.9607
5702.00,0.9481
5701.00,0.9353
5700.00,0.9224
5699.00,0.9094
5698.00,0.8965
5697.00,0.8836
5696.00,0.8707
5695.00,0.8577
5694.00,0.8447
5693.00,0.8320
5692.00,0.8195
5691.00,0.8073
5690.00,0.7954
5689.00,0.7840
5688.00,0.7729
5687.00,0.7623
5686.00,0.7520
5685.00,0.7423
5684.00,0.7330
5683.00,0.7243
5682.00,0.7161
5681.00,0.7086
5680.00,0.7016
5679.00,0.6954
5678.00,0.6900
5677.00,0.6855
5676.00,0.6817
5675.00,0.6786
5674.00,0.6762
5673.00,0.6746
5672.00,0.6736
5671.00,0.6734
5670.00,0.6740
5669.00,0.6754
5668.00,0.6774
5667.00,0.6802
5666.00,0.6836
5665.00,0.6878
5664.00,0.6926
5663.00,0.6981
5662.00,0.7042
5661.00,0.7110
5660.00,0.7184
5659.00,0.7262
5658.00,0.7345
5657.00,0.7433
5656.00,0.7525
5655.00,0.7621
5654.00,0.7720
5653.00,0.7824
5652.00,0.7931
5651.00,0.8040
5650.00,0.8153
5649.00,0.8268
5648.00,0.8384
5647.00,0.8500
5646.00,0.8618
5645.00,0.8737
5644.00,0.8857
5643.00,0.8977
5642.00,0.9097
5641.00,0.9218
5640.00,0.9337
5639.00,0.9455
5638.00,0.9573
5637.00,0.9691
5636.00,0.9809
5635.00,0.9927
5634.00,1.0044
5633.00,1.0159
5632.00,1.0272
5631.00,1.0381
5630.00,1.0488
5629.00,1.0593
5628.00,1.0697
5627.00,1.0798
5626.00,1.0898
5625.00,1.0995
5624.00,1.1090
5623.00,1.1182
5622.00,1.1270
5621.00,1.1356
5620.00,1.1438
5619.00,1.1516
5618.00,1.1589
5617.00,1.1656
5616.00,1.1722
5615.00,1.1787
5614.00,1.1851
5613.00,1.1913
5612.00,1.1971
5611.00,1.2026
5610.00,1.2075
5609.00,1.2119
5608.00,1.2158
5607.00,1.2193
5606.00,1.2225
5605.00,1.2252
5604.00,1.2275
5603.00,1.2292
5602.00,1.2307
5601.00,1.2319
5600.00,1.2327
5599.00,1.2331
5598.00,1.2331
5597.00,1.2327
5596.00,1.2320
5595.00,1.2311
5594.00,1.2298
5593.00,1.2282
5592.00,1.2260
5591.00,1.2233
5590.00,1.2201
5589.00,1.2167
5588.00,1.2131
5587.00,1.2092
5586.00,1.2049
5585.00,1.2002
5584.00,1.1950
5583.00,1.1892
5582.00,1.1829
5581.00,1.1762
5580.00,1.1694
5579.00,1.1621
5578.00,1.1545
5577.00,1.1465
5576.00,1.1380
5575.00,1.1292
5574.00,1.1201
5573.00,1.1108
5572.00,1.1010
5571.00,1.0908
5570.00,1.0801
5569.00,1.0690
5568.00,1.0575
5567.00,1.0458
5566.00,1.0340
5565.00,1.0219
5564.00,1.0096
5563.00,0.9969
5562.00,0.9838
5561.00,0.9705
5560.00,0.9572
5559.00,0.9440
5558.00,0.9307
5557.00,0.9174
5556.00,0.9040
5555.00,0.8905
5554.00,0.8771
5553.00,0.8638
5552.00,0.8505
5551.00,0.8375
5550.00,0.8247
5549.00,0.8121
5548.00,0.7999
5547.00,0.7881
5546.00,0.7767
5545.00,0.7657
5544.00,0.7551
5543.00,0.7450
5542.00,0.7355
5541.00,0.7267
5540.00,0.7185
5539.00,0.7111
5538.00,0.7044
5537.00,0.6985
5536.00,0.6933
5535.00,0.6888
5534.00,0.6850
5533.00,0.6821
5532.00,0.6799
5531.00,0.6786
5530.00,0.6781
5529.00,0.6785
5528.00,0.6798
5527.00,0.6818
5526.00,0.6846
5525.00,0.6882
5524.00,0.6926
5523.00,0.6977
5522.00,0.7036
5521.00,0.7102
5520.00,0.7174
5519.00,0.7252
5518.00,0.7335
5517.00,0.7424
5516.00,0.7517
5515.00,0.7616
5514.00,0.7720
5513.00,0.7827
5512.00,0.7938
5511.00,0.8050
5510.00,0.8165
5509.00,0.8281
5508.00,0.8400
5507.00,0.8520
5506.00,0.8643
5505.00,0.8767
5504.00,0.8892
5503.00,0.9018
5502.00,0.9144
5501.00,0.9272
5500.00,0.9399
5499.00,0.9526
5498.00,0.9653
5497.00,0.9779
5496.00,0.9903
5495.00,1.0025
5494.00,1.0145
5493.00,1.0265
5492.00,1.0385
5491.00,1.0503
5490.00,1.0619
5489.00,1.0733
5488.00,1.0842
5487.00,1.0948
5486.00,1.1052
5485.00,1.1155
5484.00,1.1256
5483.00,1.1353
5482.00,1.1446
5481.00,1.1537
5480.00,1.1624
5479.00,1.1705
5478.00,1.1782
5477.00,1.1855
5476.00,1.1925
5475.00,1.1992
5474.00,1.2056
5473.00,1.2118
5472.00,1.2179
5471.00,1.2238
5470.00,1.2294
5469.00,1.2345
5468.00,1.2392
5467.00,1.2433
5466.00,1.2468
5465.00,1.2496
5464.00,1.2516
5463.00,1.2531
5462.00,1.2543
5461.00,1.2552
5460.00,1.2559
5459.00,1.2565
5458.00,1.2568
5457.00,1.2568
5456.00,1.2563
5455.00,1.2553
5454.00,1.2542
5453.00,1.2528
5452.00,1.2511
5451.00,1.2491
5450.00,1.2466
5449.00,1.2436
5448.00,1.2399
5447.00,1.2357
5446.00,1.2311
5445.00,1.2264
5444.00,1.2215
5443.00,1.2161
5442.00,1.2101
5441.00,1.2038
5440.00,1.1971
5439.00,1.1902
5438.00,1.1832
5437.00,1.1758
5436.00,1.1677
5435.00,1.1590
5434.00,1.1497
5433.00,1.1401
5432.00,1.1301
5431.00,1.1197
5430.00,1.1088
5429.00,1.0975
5428.00,1.0859
5427.00,1.0742
5426.00,1.0626
5425.00,1.0508
5424.00,1.0388
5423.00,1.0263
5422.00,1.0132
5421.00,0.9996
5420.00,0.9857
5419.00,0.9717
5418.00,0.9576
5417.00,0.9433
5416.00,0.9288
5415.00,0.9140
5414.00,0.8991
5413.00,0.8843
5412.00,0.8696
5411.00,0.8552
5410.00,0.8411
5409.00,0.8275
5408.00,0.8143
5407.00,0.8014
5406.00,0.7890
5405.00,0.7769
5404.00,0.7653
5403.00,0.7541
5402.00,0.7434
5401.00,0.7333
5400.00,0.7238
5399.00,0.7150
5398.00,0.7069
5397.00,0.6996
5396.00,0.6931
5395.00,0.6873
5394.00,0.6823
5393.00,0.6780
5392.00,0.6745
5391.00,0.6720
5390.00,0.6705
5389.00,0.6700
5388.00,0.6704
5387.00,0.6716
5386.00,0.6737
5385.00,0.6767
5384.00,0.6805
5383.00,0.6850
5382.00,0.6902
5381.00,0.6961
5380.00,0.7026
5379.00,0.7096
5378.00,0.7174
5377.00,0.7259
5376.00,0.7351
5375.00,0.7449
5374.00,0.7553
5373.00,0.7661
5372.00,0.7772
5371.00,0.7886
5370.00,0.8005
5369.00,0.8127
5368.00,0.8252
5367.00,0.8379
5366.00,0.8508
5365.00,0.8638
5364.00,0.8770
5363.00,0.8903
5362.00,0.9037
5361.00,0.9172
5360.00,0.9305
5359.00,0.9437
5358.00,0.9569
5357.00,0.9699
5356.00,0.9828
5355.00,0.9955
5354.00,1.0083
5353.00,1.0211
5352.00,1.0339
5351.00,1.0467
5350.00,1.0593
5349.00,1.0717
5348.00,1.0837
5347.00,1.0953
5346.00,1.1065
5345.00,1.1174
5344.00,1.1283
5343.00,1.1390
5342.00,1.1492
5341.00,1.1589
5340.00,1.1681
5339.00,1.1771
5338.00,1.1859
5337.00,1.1948
5336.00,1.2035
5335.00,1.2119
5334.00,1.2196
5333.00,1.2266
5332.00,1.2331
5331.00,1.2393
5330.00,1.2451
5329.00,1.2506
5328.00,1.2557
5327.00,1.2604
5326.00,1.2647
5325.00,1.2688
5324.00,1.2727
5323.00,1.2764
5322.00,1.2798
5321.00,1.2827
5320.00,1.2847
5319.00,1.2861
5318.00,1.2871
5317.00,1.2877
5316.00,1.2883
5315.00,1.2887
5314.00,1.2888
5313.00,1.2883
5312.00,1.2870
5311.00,1.2853
5310.00,1.2833
5309.00,1.2811
5308.00,1.2788
5307.00,1.2761
5306.00,1.2728
5305.00,1.2689
5304.00,1.2643
5303.00,1.2594
5302.00,1.2543
5301.00,1.2490
5300.00,1.2435
5299.00,1.2376
5298.00,1.2312
5297.00,1.2242
5296.00,1.2166
5295.00,1.2086
5294.00,1.2003
5293.00,1.1918
5292.00,1.1828
5291.00,1.1731
5290.00,1.1629
5289.00,1.1522
5288.00,1.1411
5287.00,1.1298
5286.00,1.1183
5285.00,1.1065
5284.00,1.0944
5283.00,1.0821
5282.00,1.0693
5281.00,1.0563
5280.00,1.0430
5279.00,1.0295
5278.00,1.0159
5277.00,1.0020
5276.00,0.9878
5275.00,0.9735
5274.00,0.9589
5273.00,0.9443
5272.00,0.9297
5271.00,0.9151
5270.00,0.9005
5269.00,0.8862
5268.00,0.8721
5267.00,0.8583
5266.00,0.8447
5265.00,0.8315
5264.00,0.8186
5263.00,0.8060
5262.00,0.7939
5261.00,0.7822
5260.00,0.7712
5259.00,0.7609
5258.00,0.7514
5257.00,0.7427
5256.00,0.7347
5255.00,0.7273
5254.00,0.7206
5253.00,0.7147
5252.00,0.7096
5251.00,0.7052
5250.00,0.7017
5249.00,0.6990
5248.00,0.6972
5247.00,0.6963
5246.00,0.6965
5245.00,0.6975
5244.00,0.6995
5243.00,0.7022
5242.00,0.7059
5241.00,0.7103
5240.00,0.7155
5239.00,0.7216
5238.00,0.7285
5237.00,0.7362
5236.00,0.7445
5235.00,0.7534
5234.00,0.7628
5233.00,0.7728
5232.00,0.7832
5231.00,0.7942
5230.00,0.8056
5229.00,0.8175
5228.00,0.8297
5227.00,0.8421
5226.00,0.8549
5225.00,0.8679
5224.00,0.8812
5223.00,0.8946
5222.00,0.9081
5221.00,0.9217
5220.00,0.9354
5219.00,0.9492
5218.00,0.9632
5217.00,0.9771
5216.00,0.9909
5215.00,1.0045
5214.00,1.0181
5213.00,1.0317
5212.00,1.0451
5211.00,1.0584
5210.00,1.0715
5209.00,1.0842
5208.00,1.0966
5207.00,1.1088
5206.00,1.1209
5205.00,1.1330
5204.00,1.1450
5203.00,1.1567
5202.00,1.1681
5201.00,1.1790
5200.00,1.1894
5199.00,1.1995
5198.00,1.2092
5197.00,1.2186
5196.00,1.2276
5195.00,1.2361
5194.00,1.2442
5193.00,1.2518
5192.00,1.2590
5191.00,1.2658
5190.00,1.2723
5189.00,1.2783
5188.00,1.2837
5187.00,1.2887
5186.00,1.2933
5185.00,1.2975
5184.00,1.3015
5183.00,1.3050
5182.00,1.3082
5181.00,1.3110
5180.00,1.3134
5179.00,1.3155
5178.00,1.3172
5177.00,1.3186
5176.00,1.3196
5175.00,1.3203
5174.00,1.3207
5173.00,1.3208
5172.00,1.3203
5171.00,1.3190
5170.00,1.3171
5169.00,1.3148
5168.00,1.3122
5167.00,1.3095
5166.00,1.3067
5165.00,1.3035
5164.00,1.2998
5163.00,1.2955
5162.00,1.2906
5161.00,1.2854
5160.00,1.2798
5159.00,1.2739
5158.00,1.2677
5157.00,1.2611
5156.00,1.2540
5155.00,1.2465
5154.00,1.2384
5153.00,1.2298
5152.00,1.2207
5151.00,1.2111
5150.00,1.2013
5149.00,1.1912
5148.00,1.1809
5147.00,1.1702
5146.00,1.1589
5145.00,1.1470
5144.00,1.1346
5143.00,1.1217
5142.00,1.1085
5141.00,1.0950
5140.00,1.0812
5139.00,1.0670
5138.00,1.0525
5137.00,1.0378
5136.00,1.0228
5135.00,1.0076
5134.00,0.9922
5133.00,0.9766
5132.00,0.9609
5131.00,0.9451
5130.00,0.9293
5129.00,0.9136
5128.00,0.8980
5127.00,0.8825
5126.00,0.8673
5125.00,0.8523
5124.00,0.8375
5123.00,0.8232
5122.00,0.8092
5121.00,0.7958
5120.00,0.7829
5119.00,0.7706
5118.00,0.7590
5117.00,0.7480
5116.00,0.7378
5115.00,0.7284
5114.00,0.7198
5113.00,0.7120
5112.00,0.7051
5111.00,0.6990
5110.00,0.6940
5109.00,0.6899
5108.00,0.6869
5107.00,0.6848
5106.00,0.6837
5105.00,0.6835
5104.00,0.6844
5103.00,0.6862
5102.00,0.6890
5101.00,0.6928
5100.00,0.6976
5099.00,0.7033
5098.00,0.7099
5097.00,0.7173
5096.00,0.7255
5095.00,0.7344
5094.00,0.7439
5093.00,0.7542
5092.00,0.7651
5091.00,0.7766
5090.00,0.7886
5089.00,0.8010
5088.00,0.8138
5087.00,0.8269
5086.00,0.8403
5085.00,0.8541
5084.00,0.8681
5083.00,0.8822
5082.00,0.8965
5081.00,0.9109
5080.00,0.9254
5079.00,0.9401
5078.00,0.9548
5077.00,0.9695
5076.00,0.9842
5075.00,0.9989
5074.00,1.0135
5073.00,1.0281
5072.00,1.0427
5071.00,1.0571
5070.00,1.0712
5069.00,1.0851
5068.00,1.0988
5067.00,1.1122
5066.00,1.1254
5065.00,1.1384
5064.00,1.1510
5063.00,1.1633
5062.00,1.1751
5061.00,1.1866
5060.00,1.1978
5059.00,1.2088
5058.00,1.2195
5057.00,1.2298
5056.00,1.2398
5055.00,1.2493
5054.00,1.2585
5053.00,1.2672
5052.00,1.2754
5051.00,1.2834
5050.00,1.2910
5049.00,1.2981
5048.00,1.3046
5047.00,1.3104
5046.00,1.3158
5045.00,1.3209
5044.00,1.3260
5043.00,1.3309
5042.00,1.3357
5041.00,1.3399
5040.00,1.3435
5039.00,1.3462
5038.00,1.3484
5037.00,1.3502
5036.00,1.3516
5035.00,1.3528
5034.00,1.3539
5033.00,1.3548
5032.00,1.3553
5031.00,1.3551
5030.00,1.3544
5029.00,1.3532
5028.00,1.3517
5027.00,1.3500
5026.00,1.3480
5025.00,1.3456
5024.00,1.3427
5023.00,1.3391
5022.00,1.3350
5021.00,1.3305
5020.00,1.3258
5019.00,1.3207
5018.00,1.3152
5017.00,1.3093
5016.00,1.3030
5015.00,1.2962
5014.00,1.2891
5013.00,1.2815
5012.00,1.2733
5011.00,1.2645
5010.00,1.2551
5009.00,1.2453
5008.00,1.2352
5007.00,1.2247
5006.00,1.2140
5005.00,1.2029
5004.00,1.1915
5003.00,1.1796
5002.00,1.1672
5001.00,1.1543
5000.00,1.1410
4999.00,1.1274
4998.00,1.1136
4997.00,1.0995
4996.00,1.0851
4995.00,1.0702
4994.00,1.0548
4993.00,1.0392
4992.00,1.0231
4991.00,1.0069
4990.00,0.9906
4989.00,0.9742
4988.00,0.9577
4987.00,0.9412
4986.00,0.9247
4985.00,0.9084
4984.00,0.8923
4983.00,0.8763
4982.00,0.8607
4981.00,0.8454
4980.00,0.8305
4979.00,0.8161
4978.00,0.8023
4977.00,0.7890
4976.00,0.7764
4975.00,0.7645
4974.00,0.7534
4973.00,0.7432
4972.00,0.7338
4971.00,0.7255
4970.00,0.7181
4969.00,0.7118
4968.00,0.7065
4967.00,0.7023
4966.00,0.6991
4965.00,0.6970
4964.00,0.6959
4963.00,0.6960
4962.00,0.6973
4961.00,0.6996
4960.00,0.7030
4959.00,0.7073
4958.00,0.7127
4957.00,0.7190
4956.00,0.7263
4955.00,0.7345
4954.00,0.7436
4953.00,0.7536
4952.00,0.7642
4951.00,0.7755
4950.00,0.7873
4949.00,0.7995
4948.00,0.8122
4947.00,0.8254
4946.00,0.8391
4945.00,0.8532
4944.00,0.8676
4943.00,0.8822
4942.00,0.8969
4941.00,0.9118
4940.00,0.9268
4939.00,0.9419
4938.00,0.9572
4937.00,0.9726
4936.00,0.9881
4935.00,1.0036
4934.00,1.0191
4933.00,1.0344
4932.00,1.0497
4931.00,1.0647
4930.00,1.0796
4929.00,1.0944
4928.00,1.1090
4927.00,1.1235
4926.00,1.1376
4925.00,1.1514
4924.00,1.1649
4923.00,1.1779
4922.00,1.1907
4921.00,1.2032
4920.00,1.2153
4919.00,1.2270
4918.00,1.2383
4917.00,1.2492
4916.00,1.2597
4915.00,1.2698
4914.00,1.2796
4913.00,1.2891
4912.00,1.2982
4911.00,1.3070
4910.00,1.3153
4909.00,1.3232
4908.00,1.3306
4907.00,1.3376
4906.00,1.3441
4905.00,1.3502
4904.00,1.3557
4903.00,1.3607
4902.00,1.3652
4901.00,1.3694
4900.00,1.3732
4899.00,1.3768
4898.00,1.3800
4897.00,1.3827
4896.00,1.3849
4895.00,1.3866
4894.00,1.3879
4893.00,1.3888
4892.00,1.3894
4891.00,1.3894
4890.00,1.3888
4889.00,1.3877
4888.00,1.3863
4887.00,1.3847
4886.00,1.3831
4885.00,1.3811
4884.00,1.3786
4883.00,1.3755
4882.00,1.3718
4881.00,1.3678
4880.00,1.3635
4879.00,1.3588
4878.00,1.3537
4877.00,1.3480
4876.00,1.3417
4875.00,1.3348
4874.00,1.3275
4873.00,1.3198
4872.00,1.3118
4871.00,1.3035
4870.00,1.2948
4869.00,1.2857
4868.00,1.2761
4867.00,1.2659
4866.00,1.2551
4865.00,1.2439
4864.00,1.2324
4863.00,1.2205
4862.00,1.2081
4861.00,1.1951
4860.00,1.1814
4859.00,1.1672
4858.00,1.1528
4857.00,1.1382
4856.00,1.1232
4855.00,1.1079
4854.00,1.0920
4853.00,1.0758
4852.00,1.0593
4851.00,1.0426
4850.00,1.0258
4849.00,1.0090
4848.00,0.9920
4847.00,0.9749
4846.00,0.9577
4845.00,0.9404
4844.00,0.9232
4843.00,0.9063
4842.00,0.8896
4841.00,0.8733
4840.00,0.8573
4839.00,0.8416
4838.00,0.8265
4837.00,0.8118
4836.00,0.7977
4835.00,0.7843
4834.00,0.7717
4833.00,0.7599
4832.00,0.7489
4831.00,0.7388
4830.00,0.7297
4829.00,0.7216
4828.00,0.7147
4827.00,0.7088
4826.00,0.7040
4825.00,0.7003
4824.00,0.6977
4823.00,0.6963
4822.00,0.6962
4821.00,0.6973
4820.00,0.6995
4819.00,0.7028
4818.00,0.7073
4817.00,0.7129
4816.00,0.7195
4815.00,0.7272
4814.00,0.7358
4813.00,0.7452
4812.00,0.7555
4811.00,0.7666
4810.00,0.7784
4809.00,0.7909
4808.00,0.8040
4807.00,0.8176
4806.00,0.8317
4805.00,0.8462
4804.00,0.8611
4803.00,0.8763
4802.00,0.8918
4801.00,0.9075
4800.00,0.9235
4799.00,0.9396
4798.00,0.9558
4797.00,0.9721
4796.00,0.9884
4795.00,1.0046
4794.00,1.0209
4793.00,1.0372
4792.00,1.0536
4791.00,1.0700
4790.00,1.0861
4789.00,1.1019
4788.00,1.1173
4787.00,1.1324
4786.00,1.1474
4785.00,1.1622
4784.00,1.1768
4783.00,1.1912
4782.00,1.2052
4781.00,1.2188
4780.00,1.2320
4779.00,1.2447
4778.00,1.2571
4777.00,1.2691
4776.00,1.2806
4775.00,1.2917
4774.00,1.3024
4773.00,1.3126
4772.00,1.3224
4771.00,1.3319
4770.00,1.3410
4769.00,1.3496
4768.00,1.3579
4767.00,1.3658
4766.00,1.3732
4765.00,1.3802
4764.00,1.3865
4763.00,1.3924
4762.00,1.3979
4761.00,1.4031
4760.00,1.4079
4759.00,1.4123
4758.00,1.4162
4757.00,1.4196
4756.00,1.4224
4755.00,1.4248
4754.00,1.4268
4753.00,1.4286
4752.00,1.4299
4751.00,1.4309
4750.00,1.4314
4749.00,1.4314
4748.00,1.4307
4747.00,1.4295
4746.00,1.4281
4745.00,1.4264
4744.00,1.4246
4743.00,1.4225
4742.00,1.4201
4741.00,1.4172
4740.00,1.4135
4739.00,1.4093
4738.00,1.4046
4737.00,1.3995
4736.00,1.3942
4735.00,1.3884
4734.00,1.3820
4733.00,1.3750
4732.00,1.3675
4731.00,1.3596
4730.00,1.3514
4729.00,1.3429
4728.00,1.3340
4727.00,1.3247
4726.00,1.3149
4725.00,1.3048
4724.00,1.2941
4723.00,1.2829
4722.00,1.2710
4721.00,1.2584
4720.00,1.2451
4719.00,1.2313
4718.00,1.2172
4717.00,1.2028
4716.00,1.1881
4715.00,1.1730
4714.00,1.1574
4713.00,1.1413
4712.00,1.1246
4711.00,1.1075
4710.00,1.0901
4709.00,1.0724
4708.00,1.0546
4707.00,1.0365
4706.00,1.0183
4705.00,1.0000
4704.00,0.9816
4703.00,0.9632
4702.00,0.9450
4701.00,0.9269
4700.00,0.9090
4699.00,0.8915
4698.00,0.8744
4697.00,0.8577
4696.00,0.8413
4695.00,0.8255
4694.00,0.8105
4693.00,0.7962
4692.00,0.7829
4691.00,0.7705
4690.00,0.7590
4689.00,0.7486
4688.00,0.7393
4687.00,0.7312
4686.00,0.7242
4685.00,0.7185
4684.00,0.7141
4683.00,0.7109
4682.00,0.7090
4681.00,0.7084
4680.00,0.7092
4679.00,0.7113
4678.00,0.7146
4677.00,0.7191
4676.00,0.7248
4675.00,0.7316
4674.00,0.7395
4673.00,0.7484
4672.00,0.7583
4671.00,0.7690
4670.00,0.7805
4669.00,0.7929
4668.00,0.8060
4667.00,0.8198
4666.00,0.8341
4665.00,0.8488
4664.00,0.8640
4663.00,0.8796
4662.00,0.8956
4661.00,0.9120
4660.00,0.9287
4659.00,0.9455
4658.00,0.9624
4657.00,0.9794
4656.00,0.9965
4655.00,1.0137
4654.00,1.0308
4653.00,1.0478
4652.00,1.0647
4651.00,1.0814
4650.00,1.0980
4649.00,1.1146
4648.00,1.1310
4647.00,1.1473
4646.00,1.1635
4645.00,1.1793
4644.00,1.1950
4643.00,1.2103
4642.00,1.2252
4641.00,1.2397
4640.00,1.2538
4639.00,1.2674
4638.00,1.2806
4637.00,1.2936
4636.00,1.3061
4635.00,1.3183
4634.00,1.3299
4633.00,1.3411
4632.00,1.3516
4631.00,1.3616
4630.00,1.3710
4629.00,1.3800
4628.00,1.3888
4627.00,1.3973
4626.00,1.4054
4625.00,1.4130
4624.00,1.4199
4623.00,1.4263
4622.00,1.4323
4621.00,1.4378
4620.00,1.4427
4619.00,1.4469
4618.00,1.4506
4617.00,1.4541
4616.00,1.4575
4615.00,1.4605
4614.00,1.4630
4613.00,1.4650
4612.00,1.4664
4611.00,1.4673
4610.00,1.4679
4609.00,1.4682
4608.00,1.4683
4607.00,1.4680
4606.00,1.4674
4605.00,1.4663
4604.00,1.4648
4603.00,1.4627
4602.00,1.4602
4601.00,1.4574
4600.00,1.4543
4599.00,1.4509
4598.00,1.4472
4597.00,1.4431
4596.00,1.4386
4595.00,1.4334
4594.00,1.4276
4593.00,1.4213
4592.00,1.4146
4591.00,1.4077
4590.00,1.4006
4589.00,1.3931
4588.00,1.3852
4587.00,1.3766
4586.00,1.3673
4585.00,1.3572
4584.00,1.3464
4583.00,1.3350
4582.00,1.3232
4581.00,1.3110
4580.00,1.2985
4579.00,1.2853
4578.00,1.2714
4577.00,1.2568
4576.00,1.2417
4575.00,1.2262
4574.00,1.2103
4573.00,1.1940
4572.00,1.1771
4571.00,1.1597
4570.00,1.1418
4569.00,1.1236
4568.00,1.1051
4567.00,1.0865
4566.00,1.0676
4565.00,1.0484
4564.00,1.0290
4563.00,1.0094
4562.00,0.9898
4561.00,0.9703
4560.00,0.9510
4559.00,0.9321
4558.00,0.9135
4557.00,0.8952
4556.00,0.8773
4555.00,0.8600
4554.00,0.8434
4553.00,0.8276
4552.00,0.8126
4551.00,0.7985
4550.00,0.7854
4549.00,0.7732
4548.00,0.7621
4547.00,0.7522
4546.00,0.7435
4545.00,0.7362
4544.00,0.7302
4543.00,0.7255
4542.00,0.7223
4541.00,0.7204
4540.00,0.7200
4539.00,0.7210
4538.00,0.7234
4537.00,0.7272
4536.00,0.7323
4535.00,0.7388
4534.00,0.7464
4533.00,0.7553
4532.00,0.7653
4531.00,0.7764
4530.00,0.7884
4529.00,0.8013
4528.00,0.8149
4527.00,0.8292
4526.00,0.8443
4525.00,0.8599
4524.00,0.8760
4523.00,0.8926
4522.00,0.9096
4521.00,0.9270
4520.00,0.9448
4519.00,0.9628
4518.00,0.9809
4517.00,0.9991
4516.00,1.0172
4515.00,1.0353
4514.00,1.0536
4513.00,1.0719
4512.00,1.0903
4511.00,1.1087
4510.00,1.1268
4509.00,1.1447
4508.00,1.1623
4507.00,1.1798
4506.00,1.1970
4505.00,1.2138
4504.00,1.2301
4503.00,1.2460
4502.00,1.2615
4501.00,1.2767
4500.00,1.2915
4499.00,1.3060
4498.00,1.3201
4497.00,1.3336
4496.00,1.3467
4495.00,1.3593
4494.00,1.3715
4493.00,1.3832
4492.00,1.3944
4491.00,1.4050
4490.00,1.4150
4489.00,1.4243
4488.00,1.4330
4487.00,1.4413
4486.00,1.4491
4485.00,1.4562
4484.00,1.4627
4483.00,1.4688
4482.00,1.4746
4481.00,1.4801
4480.00,1.4851
4479.00,1.4897
4478.00,1.4938
4477.00,1.4978
4476.00,1.5017
4475.00,1.5054
4474.00,1.5087
4473.00,1.5117
4472.00,1.5143
4471.00,1.5165
4470.00,1.5184
4469.00,1.5198
4468.00,1.5208
4467.00,1.5213
4466.00,1.5214
4465.00,1.5211
4464.00,1.5202
4463.00,1.5187
4462.00,1.5169
4461.00,1.5146
4460.00,1.5119
4459.00,1.5089
4458.00,1.5055
4457.00,1.5017
4456.00,1.4976
4455.00,1.4932
4454.00,1.4884
4453.00,1.4832
4452.00,1.4775
4451.00,1.4712
4450.00,1.4645
4449.00,1.4575
4448.00,1.4503
4447.00,1.4429
4446.00,1.4354
4445.00,1.4275
4444.00,1.4193
4443.00,1.4108
4442.00,1.4020
4441.00,1.3931
4440.00,1.3840
4439.00,1.3747
4438.00,1.3649
4437.00,1.3543
4436.00,1.3430
4435.00,1.3308
4434.00,1.3178
4433.00,1.3039
4432.00,1.2892
4431.00,1.2737
4430.00,1.2574
4429.00,1.2404
4428.00,1.2227
4427.00,1.2044
4426.00,1.1855
4425.00,1.1660
4424.00,1.1461
4423.00,1.1259
4422.00,1.1055
4421.00,1.0849
4420.00,1.0643
4419.00,1.0437
4418.00,1.0234
4417.00,1.0034
4416.00,0.9840
4415.00,0.9652
4414.00,0.9472
4413.00,0.9300
4412.00,0.9138
4411.00,0.8986
4410.00,0.8846
4409.00,0.8720
4408.00,0.8607
4407.00,0.8509
4406.00,0.8427
4405.00,0.8361
4404.00,0.8310
4403.00,0.8275
4402.00,0.8253
4401.00,0.8243
4400.00,0.8243
4399.00,0.8252
4398.00,0.8269
4397.00,0.8294
4396.00,0.8326
4395.00,0.8365
4394.00,0.8412
4393.00,0.8468
4392.00,0.8531
4391.00,0.8605
4390.00,0.8688
4389.00,0.8782
4388.00,0.8886
4387.00,0.9000
4386.00,0.9124
4385.00,0.9256
4384.00,0.9396
4383.00,0.9543
4382.00,0.9698
4381.00,0.9859
4380.00,1.0024
4379.00,1.0193
4378.00,1.0366
4377.00,1.0540
4376.00,1.0716
4375.00,1.0893
4374.00,1.1071
4373.00,1.1247
4372.00,1.1421
4371.00,1.1592
4370.00,1.1760
4369.00,1.1924
4368.00,1.2084
4367.00,1.2239
4366.00,1.2389
4365.00,1.2534
4364.00,1.2673
4363.00,1.2808
4362.00,1.2939
4361.00,1.3067
4360.00,1.3190
4359.00,1.3310
4358.00,1.3428
4357.00,1.3546
4356.00,1.3662
4355.00,1.3778
4354.00,1.3890
4353.00,1.4000
4352.00,1.4108
4351.00,1.4216
4350.00,1.4322
4349.00,1.4428
4348.00,1.4531
4347.00,1.4630
4346.00,1.4725
4345.00,1.4814
4344.00,1.4899
4343.00,1.4980
4342.00,1.5058
4341.00,1.5134
4340.00,1.5208
4339.00,1.5276
4338.00,1.5339
4337.00,1.5395
4336.00,1.5448
4335.00,1.5498
4334.00,1.5546
4333.00,1.5589
4332.00,1.5626
4331.00,1.5658
4330.00,1.5687
4329.00,1.5711
4328.00,1.5731
4327.00,1.5745
4326.00,1.5753
4325.00,1.5756
4324.00,1.5757
4323.00,1.5756
4322.00,1.5755
4321.00,1.5751
4320.00,1.5744
4319.00,1.5732
4318.00,1.5712
4317.00,1.5686
4316.00,1.5651
4315.00,1.5610
4314.00,1.5563
4313.00,1.5511
4312.00,1.5457
4311.00,1.5401
4310.00,1.5343
4309.00,1.5280
4308.00,1.5212
4307.00,1.5138
4306.00,1.5060
4305.00,1.4978
4304.00,1.4892
4303.00,1.4801
4302.00,1.4703
4301.00,1.4599
4300.00,1.4488
4299.00,1.4371
4298.00,1.4249
4297.00,1.4124
4296.00,1.3996
4295.00,1.3863
4294.00,1.3725
4293.00,1.3580
4292.00,1.3426
4291.00,1.3265
4290.00,1.3097
4289.00,1.2925
4288.00,1.2748
4287.00,1.2568
4286.00,1.2382
4285.00,1.2190
4284.00,1.1992
4283.00,1.1787
4282.00,1.1578
4281.00,1.1365
4280.00,1.1150
4279.00,1.0933
4278.00,1.0715
4277.00,1.0497
4276.00,1.0277
4275.00,1.0058
4274.00,0.9841
4273.00,0.9627
4272.00,0.9418
4271.00,0.9214
4270.00,0.9016
4269.00,0.8825
4268.00,0.8641
4267.00,0.8467
4266.00,0.8304
4265.00,0.8153
4264.00,0.8014
4263.00,0.7889
4262.00,0.7779
4261.00,0.7683
4260.00,0.7602
4259.00,0.7537
4258.00,0.7489
4257.00,0.7459
4256.00,0.7445
4255.00,0.7449
4254.00,0.7469
4253.00,0.7507
4252.00,0.7560
4251.00,0.7629
4250.00,0.7714
4249.00,0.7812
4248.00,0.7924
4247.00,0.8047
4246.00,0.8182
4245.00,0.8326
4244.00,0.8480
4243.00,0.8643
4242.00,0.8814
4241.00,0.8991
4240.00,0.9174
4239.00,0.9362
4238.00,0.9554
4237.00,0.9750
4236.00,0.9948
4235.00,1.0147
4234.00,1.0349
4233.00,1.0552
4232.00,1.0756
4231.00,1.0961
4230.00,1.1166
4229.00,1.1370
4228.00,1.1571
4227.00,1.1771
4226.00,1.1970
4225.00,1.2166
4224.00,1.2360
4223.00,1.2550
4222.00,1.2738
4221.00,1.2922
4220.00,1.3102
4219.00,1.3278
4218.00,1.3449
4217.00,1.3615
4216.00,1.3776
4215.00,1.3931
4214.00,1.4082
4213.00,1.4228
4212.00,1.4370
4211.00,1.4505
4210.00,1.4633
4209.00,1.4756
4208.00,1.4873
4207.00,1.4987
4206.00,1.5096
4205.00,1.5200
4204.00,1.5299
4203.00,1.5392
4202.00,1.5480
4201.00,1.5564
4200.00,1.5641
4199.00,1.5713
4198.00,1.5781
4197.00,1.5846
4196.00,1.5907
4195.00,1.5963
4194.00,1.6012
4193.00,1.6055
4192.00,1.6094
4191.00,1.6133
4190.00,1.6168
4189.00,1.6197
4188.00,1.6218
4187.00,1.6230
4186.00,1.6236
4185.00,1.6241
4184.00,1.6246
4183.00,1.6252
4182.00,1.6254
4181.00,1.6251
4180.00,1.6240
4179.00,1.6223
4178.00,1.6201
4177.00,1.6174
4176.00,1.6144
4175.00,1.6110
4174.00,1.6073
4173.00,1.6032
4172.00,1.5986
4171.00,1.5936
4170.00,1.5881
4169.00,1.5822
4168.00,1.5758
4167.00,1.5690
4166.00,1.5618
4165.00,1.5541
4164.00,1.5459
4163.00,1.5371
4162.00,1.5276
4161.00,1.5173
4160.00,1.5064
4159.00,1.4951
4158.00,1.4833
4157.00,1.4712
4156.00,1.4586
4155.00,1.4453
4154.00,1.4314
4153.00,1.4168
4152.00,1.4017
4151.00,1.3859
4150.00,1.3696
4149.00,1.3525
4148.00,1.3346
4147.00,1.3161
4146.00,1.2969
4145.00,1.2772
4144.00,1.2569
4143.00,1.2362
4142.00,1.2150
4141.00,1.1934
4140.00,1.1714
4139.00,1.1490
4138.00,1.1263
4137.00,1.1032
4136.00,1.0801
4135.00,1.0569
4134.00,1.0337
4133.00,1.0108
4132.00,0.9882
4131.00,0.9660
4130.00,0.9445
4129.00,0.9236
4128.00,0.9036
4127.00,0.8845
4126.00,0.8665
4125.00,0.8495
4124.00,0.8339
4123.00,0.8196
4122.00,0.8068
4121.00,0.7956
4120.00,0.7860
4119.00,0.7782
4118.00,0.7722
4117.00,0.7680
4116.00,0.7657
4115.00,0.7653
4114.00,0.7667
4113.00,0.7701
4112.00,0.7752
4111.00,0.7820
4110.00,0.7905
4109.00,0.8005
4108.00,0.8120
4107.00,0.8250
4106.00,0.8391
4105.00,0.8544
4104.00,0.8707
4103.00,0.8877
4102.00,0.9055
4101.00,0.9240
4100.00,0.9432
4099.00,0.9629
4098.00,0.9831
4097.00,1.0037
4096.00,1.0245
4095.00,1.0457
4094.00,1.0671
4093.00,1.0887
4092.00,1.1103
4091.00,1.1320
4090.00,1.1536
4089.00,1.1751
4088.00,1.1965
4087.00,1.2177
4086.00,1.2388
4085.00,1.2595
4084.00,1.2799
4083.00,1.2999
4082.00,1.3195
4081.00,1.3386
4080.00,1.3573
4079.00,1.3757
4078.00,1.3935
4077.00,1.4110
4076.00,1.4279
4075.00,1.4442
4074.00,1.4597
4073.00,1.4746
4072.00,1.4889
4071.00,1.5028
4070.00,1.5163
4069.00,1.5293
4068.00,1.5418
4067.00,1.5536
4066.00,1.5647
4065.00,1.5754
4064.00,1.5859
4063.00,1.5959
4062.00,1.6052
4061.00,1.6137
4060.00,1.6215
4059.00,1.6287
4058.00,1.6357
4057.00,1.6423
4056.00,1.6485
4055.00,1.6543
4054.00,1.6596
4053.00,1.6643
4052.00,1.6685
4051.00,1.6721
4050.00,1.6752
4049.00,1.6779
4048.00,1.6804
4047.00,1.6828
4046.00,1.6849
4045.00,1.6866
4044.00,1.6875
4043.00,1.6876
4042.00,1.6872
4041.00,1.6866
4040.00,1.6859
4039.00,1.6850
4038.00,1.6836
4037.00,1.6815
4036.00,1.6790
4035.00,1.6763
4034.00,1.6736
4033.00,1.6707
4032.00,1.6673
4031.00,1.6633
4030.00,1.6589
4029.00,1.6539
4028.00,1.6483
4027.00,1.6420
4026.00,1.6351
4025.00,1.6277
4024.00,1.6198
4023.00,1.6115
4022.00,1.6028
4021.00,1.5935
4020.00,1.5837
4019.00,1.5731
4018.00,1.5618
4017.00,1.5501
4016.00,1.5378
4015.00,1.5251
4014.00,1.5118
4013.00,1.4977
4012.00,1.4827
4011.00,1.4670
4010.00,1.4504
4009.00,1.4333
4008.00,1.4156
4007.00,1.3973
4006.00,1.3783
4005.00,1.3586
4004.00,1.3383
4003.00,1.3173
4002.00,1.2958
4001.00,1.2737
4000.00,1.2510
3999.00,1.2278
3998.00,1.2042
3997.00,1.1802
3996.00,1.1559
3995.00,1.1314
3994.00,1.1068
3993.00,1.0824
3992.00,1.0583
3991.00,1.0347
3990.00,1.0117
3989.00,0.9895
3988.00,0.9682
3987.00,0.9478
3986.00,0.9287
3985.00,0.9109
3984.00,0.8945
3983.00,0.8797
3982.00,0.8665
3981.00,0.8550
3980.00,0.8452
3979.00,0.8370
3978.00,0.8305
3977.00,0.8255
3976.00,0.8221
3975.00,0.8200
3974.00,0.8192
3973.00,0.8196
3972.00,0.8212
3971.00,0.8243
3970.00,0.8287
3969.00,0.8346
3968.00,0.8420
3967.00,0.8508
3966.00,0.8610
3965.00,0.8726
3964.00,0.8857
3963.00,0.9001
3962.00,0.9158
3961.00,0.9327
3960.00,0.9506
3959.00,0.9693
3958.00,0.9887
3957.00,1.0088
3956.00,1.0295
3955.00,1.0507
3954.00,1.0721
3953.00,1.0936
3952.00,1.1153
3951.00,1.1371
3950.00,1.1593
3949.00,1.1820
3948.00,1.2048
3947.00,1.2275
3946.00,1.2497
3945.00,1.2714
3944.00,1.2929
3943.00,1.3146
3942.00,1.3363
3941.00,1.3577
3940.00,1.3785
3939.00,1.3985
3938.00,1.4176
3937.00,1.4359
3936.00,1.4534
3935.00,1.4704
3934.00,1.4870
3933.00,1.5034
3932.00,1.5197
3931.00,1.5355
3930.00,1.5508
3929.00,1.5652
3928.00,1.5787
3927.00,1.5914
3926.00,1.6035
3925.00,1.6151
3924.00,1.6263
3923.00,1.6368
3922.00,1.6466
3921.00,1.6559
3920.00,1.6648
3919.00,1.6735
3918.00,1.6820
3917.00,1.6901
3916.00,1.6977
3915.00,1.7048
3914.00,1.7114
3913.00,1.7175
3912.00,1.7232
3911.00,1.7282
3910.00,1.7322
3909.00,1.7350
3908.00,1.7366
3907.00,1.7374
3906.00,1.7379
3905.00,1.7384
3904.00,1.7395
3903.00,1.7407
3902.00,1.7416
3901.00,1.7419
3900.00,1.7418
3899.00,1.7415
3898.00,1.7412
3897.00,1.7406
3896.00,1.7394
3895.00,1.7374
3894.00,1.7349
3893.00,1.7320
3892.00,1.7287
3891.00,1.7247
3890.00,1.7199
3889.00,1.7145
3888.00,1.7087
3887.00,1.7026
3886.00,1.6958
3885.00,1.6881
3884.00,1.6798
3883.00,1.6712
3882.00,1.6625
3881.00,1.6536
3880.00,1.6443
3879.00,1.6347
3878.00,1.6245
3877.00,1.6138
3876.00,1.6023
3875.00,1.5895
3874.00,1.5757
3873.00,1.5612
3872.00,1.5465
3871.00,1.5310
3870.00,1.5144
3869.00,1.4968
3868.00,1.4788
3867.00,1.4608
3866.00,1.4423
3865.00,1.4230
3864.00,1.4028
3863.00,1.3820
3862.00,1.3605
3861.00,1.3383
3860.00,1.3152
3859.00,1.2910
3858.00,1.2660
3857.00,1.2409
3856.00,1.2157
3855.00,1.1893
3854.00,1.1600
3853.00,1.1279
3852.00,1.0959
3851.00,1.0668
3850.00,1.0410
3849.00,1.0175
3848.00,0.9952
3847.00,0.9734
3846.00,0.9517
3845.00,0.9299
3844.00,0.9081
3843.00,0.8868
3842.00,0.8665
3841.00,0.8479
3840.00,0.8314
3839.00,0.8168
3838.00,0.8041
3837.00,0.7932
3836.00,0.7848
3835.00,0.7791
3834.00,0.7766
3833.00,0.7770
3832.00,0.7802
3831.00,0.7857
3830.00,0.7932
3829.00,0.8024
3828.00,0.8135
3827.00,0.8264
3826.00,0.8407
3825.00,0.8557
3824.00,0.8715
3823.00,0.8886
3822.00,0.9082
3821.00,0.9301
3820.00,0.9532
3819.00,0.9756
3818.00,0.9971
3817.00,1.0197
3816.00,1.0453
3815.00,1.0736
3814.00,1.1023
3813.00,1.1292
3812.00,1.1541
3811.00,1.1775
3810.00,1.2000
3809.00,1.2223
3808.00,1.2451
3807.00,1.2695
3806.00,1.2949
3805.00,1.3196
3804.00,1.3425
3803.00,1.3641
3802.00,1.3862
3801.00,1.4099
3800.00,1.4345
3799.00,1.4580
3798.00,1.4798
3797.00,1.5002
3796.00,1.5201
3795.00,1.5393
3794.00,1.5576
3793.00,1.5748
3792.00,1.5912
3791.00,1.6071
3790.00,1.6223
3789.00,1.6368
3788.00,1.6506
3787.00,1.6639
3786.00,1.6767
3785.00,1.6888
3784.00,1.7000
3783.00,1.7104
3782.00,1.7200
3781.00,1.7291
3780.00,1.7378
3779.00,1.7464
3778.00,1.7549
3777.00,1.7633
3776.00,1.7710
3775.00,1.7778
3774.00,1.7835
3773.00,1.7882
3772.00,1.7922
3771.00,1.7959
3770.00,1.7997
3769.00,1.8035
3768.00,1.8067
3767.00,1.8091
3766.00,1.8109
3765.00,1.8124
3764.00,1.8138
3763.00,1.8150
3762.00,1.8158
3761.00,1.8158
3760.00,1.8151
3759.00,1.8138
3758.00,1.8121
3757.00,1.8097
3756.00,1.8064
3755.00,1.8022
3754.00,1.7974
3753.00,1.7922
3752.00,1.7866
3751.00,1.7805
3750.00,1.7739
3749.00,1.7667
3748.00,1.7591
3747.00,1.7518
3746.00,1.7446
3745.00,1.7374
3744.00,1.7298
3743.00,1.7221
3742.00,1.7144
3741.00,1.7062
3740.00,1.6974
3739.00,1.6879
3738.00,1.6777
3737.00,1.6665
3736.00,1.6538
3735.00,1.6397
3734.00,1.6248
3733.00,1.6093
3732.00,1.5931
3731.00,1.5766
3730.00,1.5601
3729.00,1.5433
3728.00,1.5255
3727.00,1.5064
3726.00,1.4859
3725.00,1.4642
3724.00,1.4414
3723.00,1.4175
3722.00,1.3930
3721.00,1.3678
3720.00,1.3422
3719.00,1.3158
3718.00,1.2886
3717.00,1.2607
3716.00,1.2327
3715.00,1.2052
3714.00,1.1778
3713.00,1.1496
3712.00,1.1202
3711.00,1.0903
3710.00,1.0612
3709.00,1.0340
3708.00,1.0089
3707.00,0.9861
3706.00,0.9653
3705.00,0.9463
3704.00,0.9290
3703.00,0.9133
3702.00,0.8993
3701.00,0.8873
3700.00,0.8778
3699.00,0.8713
3698.00,0.8678
3697.00,0.8672
3696.00,0.8694
3695.00,0.8740
3694.00,0.8809
3693.00,0.8899
3692.00,0.9009
3691.00,0.9142
3690.00,0.9302
3689.00,0.9495
3688.00,0.9718
3687.00,0.9958
3686.00,1.0201
3685.00,1.0442
3684.00,1.0688
3683.00,1.0942
3682.00,1.1200
3681.00,1.1456
3680.00,1.1704
3679.00,1.1945
3678.00,1.2181
3677.00,1.2424
3676.00,1.2689
3675.00,1.2977
3674.00,1.3269
3673.00,1.3538
3672.00,1.3784
3671.00,1.4026
3670.00,1.4281
3669.00,1.4547
3668.00,1.4811
3667.00,1.5057
3666.00,1.5285
3665.00,1.5497
3664.00,1.5697
3663.00,1.5890
3662.00,1.6074
3661.00,1.6250
3660.00,1.6416
3659.00,1.6575
3658.00,1.6728
3657.00,1.6878
3656.00,1.7026
3655.00,1.7167
3654.00,1.7295
3653.00,1.7409
3652.00,1.7515
3651.00,1.7619
3650.00,1.7724
3649.00,1.7834
3648.00,1.7950
3647.00,1.8071
3646.00,1.8190
3645.00,1.8302
3644.00,1.8406
3643.00,1.8499
3642.00,1.8585
3641.00,1.8667
3640.00,1.8747
3639.00,1.8825
3638.00,1.8896
3637.00,1.8958
3636.00,1.9011
3635.00,1.9057
3634.00,1.9096
3633.00,1.9127
3632.00,1.9152
3631.00,1.9175
3630.00,1.9204
3629.00,1.9240
3628.00,1.9282
3627.00,1.9323
3626.00,1.9355
3625.00,1.9379
3624.00,1.9395
3623.00,1.9406
3622.00,1.9413
3621.00,1.9417
3620.00,1.9418
3619.00,1.9415
3618.00,1.9408
3617.00,1.9400
3616.00,1.9391
3615.00,1.9376
3614.00,1.9351
3613.00,1.9315
3612.00,1.9274
3611.00,1.9236
3610.00,1.9202
3609.00,1.9170
3608.00,1.9133
3607.00,1.9092
3606.00,1.9047
3605.00,1.8999
3604.00,1.8948
3603.00,1.8893
3602.00,1.8830
3601.00,1.8759
3600.00,1.8678
3599.00,1.8588
3598.00,1.8490
3597.00,1.8387
3596.00,1.8281
3595.00,1.8173
3594.00,1.8061
3593.00,1.7943
3592.00,1.7819
3591.00,1.7690
3590.00,1.7559
3589.00,1.7424
3588.00,1.7284
3587.00,1.7137
3586.00,1.6983
3585.00,1.6827
3584.00,1.6668
3583.00,1.6507
3582.00,1.6340
3581.00,1.6168
3580.00,1.5990
3579.00,1.5807
3578.00,1.5617
3577.00,1.5421
3576.00,1.5220
3575.00,1.5016
3574.00,1.4808
3573.00,1.4598
3572.00,1.4386
3571.00,1.4174
3570.00,1.3965
3569.00,1.3760
3568.00,1.3558
3567.00,1.3359
3566.00,1.3168
3565.00,1.2986
3564.00,1.2817
3563.00,1.2660
3562.00,1.2515
3561.00,1.2383
3560.00,1.2263
3559.00,1.2156
3558.00,1.2061
3557.00,1.1977
3556.00,1.1906
3555.00,1.1849
3554.00,1.1807
3553.00,1.1780
3552.00,1.1766
3551.00,1.1764
3550.00,1.1776
3549.00,1.1801
3548.00,1.1841
3547.00,1.1895
3546.00,1.1962
3545.00,1.2040
3544.00,1.2127
3543.00,1.2220
3542.00,1.2320
3541.00,1.2427
3540.00,1.2541
3539.00,1.2661
3538.00,1.2788
3537.00,1.2921
3536.00,1.3061
3535.00,1.3205
3534.00,1.3353
3533.00,1.3502
3532.00,1.3654
3531.00,1.3811
3530.00,1.3973
3529.00,1.4138
3528.00,1.4306
3527.00,1.4475
3526.00,1.4646
3525.00,1.4821
3524.00,1.5001
3523.00,1.5183
3522.00,1.5365
3521.00,1.5544
3520.00,1.5722
3519.00,1.5898
3518.00,1.6074
3517.00,1.6249
3516.00,1.6422
3515.00,1.6590
3514.00,1.6751
3513.00,1.6906
3512.00,1.7058
3511.00,1.7209
3510.00,1.7361
3509.00,1.7513
3508.00,1.7664
3507.00,1.7808
3506.00,1.7944
3505.00,1.8071
3504.00,1.8193
3503.00,1.8314
3502.00,1.8435
3501.00,1.8553
3500.00,1.8666
3499.00,1.8772
3498.00,1.8870
3497.00,1.8962
3496.00,1.9048
3495.00,1.9130
3494.00,1.9208
3493.00,1.9283
3492.00,1.9353
3491.00,1.9416
3490.00,1.9476
3489.00,1.9532
3488.00,1.9587
3487.00,1.9637
3486.00,1.9680
3485.00,1.9716
3484.00,1.9749
3483.00,1.9779
3482.00,1.9806
3481.00,1.9828
3480.00,1.9846
3479.00,1.9862
3478.00,1.9876
3477.00,1.9886
3476.00,1.9891
3475.00,1.9889
3474.00,1.9880
3473.00,1.9864
3472.00,1.9844
3471.00,1.9824
3470.00,1.9805
3469.00,1.9789
3468.00,1.9769
3467.00,1.9742
3466.00,1.9700
3465.00,1.9646
3464.00,1.9584
3463.00,1.9520
3462.00,1.9458
3461.00,1.9398
3460.00,1.9338
3459.00,1.9276
3458.00,1.9206
3457.00,1.9127
3456.00,1.9039
3455.00,1.8943
3454.00,1.8842
3453.00,1.8737
3452.00,1.8627
3451.00,1.8512
3450.00,1.8391
3449.00,1.8266
3448.00,1.8134
3447.00,1.7995
3446.00,1.7848
3445.00,1.7696
3444.00,1.7540
3443.00,1.7378
3442.00,1.7206
3441.00,1.7022
3440.00,1.6829
3439.00,1.6629
3438.00,1.6422
3437.00,1.6210
3436.00,1.5992
3435.00,1.5769
3434.00,1.5540
3433.00,1.5304
3432.00,1.5060
3431.00,1.4809
3430.00,1.4553
3429.00,1.4292
3428.00,1.4028
3427.00,1.3763
3426.00,1.3497
3425.00,1.3233
3424.00,1.2971
3423.00,1.2714
3422.00,1.2463
3421.00,1.2221
3420.00,1.1989
3419.00,1.1770
3418.00,1.1565
3417.00,1.1376
3416.00,1.1204
3415.00,1.1051
3414.00,1.0919
3413.00,1.0809
3412.00,1.0721
3411.00,1.0655
3410.00,1.0614
3409.00,1.0595
3408.00,1.0601
3407.00,1.0629
3406.00,1.0678
3405.00,1.0746
3404.00,1.0833
3403.00,1.0937
3402.00,1.1056
3401.00,1.1189
3400.00,1.1336
3399.00,1.1496
3398.00,1.1667
3397.00,1.1850
3396.00,1.2043
3395.00,1.2246
3394.00,1.2457
3393.00,1.2675
3392.00,1.2900
3391.00,1.3130
3390.00,1.3366
3389.00,1.3606
3388.00,1.3848
3387.00,1.4091
3386.00,1.4332
3385.00,1.4572
3384.00,1.4809
3383.00,1.5044
3382.00,1.5276
3381.00,1.5505
3380.00,1.5730
3379.00,1.5953
3378.00,1.6174
3377.00,1.6392
3376.00,1.6604
3375.00,1.6810
3374.00,1.7010
3373.00,1.7205
3372.00,1.7395
3371.00,1.7579
3370.00,1.7757
3369.00,1.7928
3368.00,1.8094
3367.00,1.8254
3366.00,1.8406
3365.00,1.8551
3364.00,1.8689
3363.00,1.8822
3362.00,1.8951
3361.00,1.9076
3360.00,1.9191
3359.00,1.9296
3358.00,1.9391
3357.00,1.9481
3356.00,1.9570
3355.00,1.9659
3354.00,1.9746
3353.00,1.9829
3352.00,1.9906
3351.00,1.9979
3350.00,2.0047
3349.00,2.0111
3348.00,2.0169
3347.00,2.0217
3346.00,2.0257
3345.00,2.0292
3344.00,2.0327
3343.00,2.0362
3342.00,2.0394
3341.00,2.0420
3340.00,2.0438
3339.00,2.0448
3338.00,2.0452
3337.00,2.0452
3336.00,2.0450
3335.00,2.0445
3334.00,2.0435
3333.00,2.0420
3332.00,2.0402
3331.00,2.0384
3330.00,2.0365
3329.00,2.0344
3328.00,2.0321
3327.00,2.0292
3326.00,2.0254
3325.00,2.0208
3324.00,2.0158
3323.00,2.0105
3322.00,2.0050
3321.00,1.9990
3320.00,1.9926
3319.00,1.9858
3318.00,1.9787
3317.00,1.9708
3316.00,1.9622
3315.00,1.9526
3314.00,1.9422
3313.00,1.9313
3312.00,1.9198
3311.00,1.9080
3310.00,1.8958
3309.00,1.8832
3308.00,1.8700
3307.00,1.8560
3306.00,1.8413
3305.00,1.8257
3304.00,1.8095
3303.00,1.7930
3302.00,1.7759
3301.00,1.7581
3300.00,1.7394
3299.00,1.7199
3298.00,1.6996
3297.00,1.6786
3296.00,1.6570
3295.00,1.6346
3294.00,1.6113
3293.00,1.5871
3292.00,1.5622
3291.00,1.5369
3290.00,1.5111
3289.00,1.4849
3288.00,1.4584
3287.00,1.4316
3286.00,1.4045
3285.00,1.3773
3284.00,1.3503
3283.00,1.3238
3282.00,1.2978
3281.00,1.2724
3280.00,1.2479
3279.00,1.2244
3278.00,1.2023
3277.00,1.1816
3276.00,1.1626
3275.00,1.1453
3274.00,1.1301
3273.00,1.1172
3272.00,1.1066
3271.00,1.0984
3270.00,1.0928
3269.00,1.0896
3268.00,1.0890
3267.00,1.0908
3266.00,1.0952
3265.00,1.1020
3264.00,1.1112
3263.00,1.1226
3262.00,1.1360
3261.00,1.1513
3260.00,1.1682
3259.00,1.1867
3258.00,1.2066
3257.00,1.2277
3256.00,1.2498
3255.00,1.2728
3254.00,1.2967
3253.00,1.3212
3252.00,1.3462
3251.00,1.3716
3250.00,1.3971
3249.00,1.4229
3248.00,1.4489
3247.00,1.4749
3246.00,1.5009
3245.00,1.5267
3244.00,1.5524
3243.00,1.5779
3242.00,1.6030
3241.00,1.6275
3240.00,1.6514
3239.00,1.6746
3238.00,1.6973
3237.00,1.7194
3236.00,1.7409
3235.00,1.7620
3234.00,1.7825
3233.00,1.8025
3232.00,1.8219
3231.00,1.8405
3230.00,1.8583
3229.00,1.8752
3228.00,1.8914
3227.00,1.9069
3226.00,1.9218
3225.00,1.9362
3224.00,1.9499
3223.00,1.9627
3222.00,1.9747
3221.00,1.9863
3220.00,1.9978
3219.00,2.0089
3218.00,2.0196
3217.00,2.0299
3216.00,2.0402
3215.00,2.0505
3214.00,2.0602
3213.00,2.0687
3212.00,2.0757
3211.00,2.0817
3210.00,2.0870
3209.00,2.0922
3208.00,2.0974
3207.00,2.1025
3206.00,2.1074
3205.00,2.1116
3204.00,2.1154
3203.00,2.1187
3202.00,2.1219
3201.00,2.1248
3200.00,2.1270
3199.00,2.1281
3198.00,2.1284
3197.00,2.1285
3196.00,2.1284
3195.00,2.1277
3194.00,2.1260
3193.00,2.1236
3192.00,2.1210
3191.00,2.1187
3190.00,2.1163
3189.00,2.1133
3188.00,2.1094
3187.00,2.1047
3186.00,2.0996
3185.00,2.0946
3184.00,2.0894
3183.00,2.0837
3182.00,2.0774
3181.00,2.0705
3180.00,2.0631
3179.00,2.0551
3178.00,2.0464
3177.00,2.0371
3176.00,2.0272
3175.00,2.0168
3174.00,2.0061
3173.00,1.9954
3172.00,1.9854
3171.00,1.9764
3170.00,1.9687
3169.00,1.9628
3168.00,1.9595
3167.00,1.9593
3166.00,1.9620
3165.00,1.9660
3164.00,1.9684
3163.00,1.9666
3162.00,1.9593
3161.00,1.9465
3160.00,1.9288
3159.00,1.9073
3158.00,1.8830
3157.00,1.8571
3156.00,1.8305
3155.00,1.8037
3154.00,1.7768
3153.00,1.7496
3152.00,1.7221
3151.00,1.6942
3150.00,1.6659
3149.00,1.6376
3148.00,1.6093
3147.00,1.5810
3146.00,1.5526
3145.00,1.5241
3144.00,1.4955
3143.00,1.4671
3142.00,1.4391
3141.00,1.4119
3140.00,1.3856
3139.00,1.3602
3138.00,1.3360
3137.00,1.3131
3136.00,1.2920
3135.00,1.2728
3134.00,1.2557
3133.00,1.2408
3132.00,1.2283
3131.00,1.2183
3130.00,1.2107
3129.00,1.2058
3128.00,1.2034
3127.00,1.2038
3126.00,1.2067
3125.00,1.2122
3124.00,1.2203
3123.00,1.2309
3122.00,1.2437
3121.00,1.2586
3120.00,1.2753
3119.00,1.2938
3118.00,1.3137
3117.00,1.3350
3116.00,1.3573
3115.00,1.3805
3114.00,1.4043
3113.00,1.4286
3112.00,1.4532
3111.00,1.4780
3110.00,1.5031
3109.00,1.5284
3108.00,1.5539
3107.00,1.5793
3106.00,1.6045
3105.00,1.6296
3104.00,1.6544
3103.00,1.6790
3102.00,1.7034
3101.00,1.7272
3100.00,1.7505
3099.00,1.7734
3098.00,1.7959
3097.00,1.8178
3096.00,1.8393
3095.00,1.8602
3094.00,1.8805
3093.00,1.9001
3092.00,1.9188
3091.00,1.9365
3090.00,1.9534
3089.00,1.9697
3088.00,1.9856
3087.00,2.0008
3086.00,2.0155
3085.00,2.0297
3084.00,2.0433
3083.00,2.0564
3082.00,2.0690
3081.00,2.0813
3080.00,2.0930
3079.00,2.1039
3078.00,2.1137
3077.00,2.1228
3076.00,2.1316
3075.00,2.1404
3074.00,2.1491
3073.00,2.1575
3072.00,2.1653
3071.00,2.1728
3070.00,2.1799
3069.00,2.1863
3068.00,2.1915
3067.00,2.1955
3066.00,2.1989
3065.00,2.2022
3064.00,2.2054
3063.00,2.2082
3062.00,2.2104
3061.00,2.2124
3060.00,2.2147
3059.00,2.2172
3058.00,2.2195
3057.00,2.2211
3056.00,2.2219
3055.00,2.2217
3054.00,2.2207
3053.00,2.2189
3052.00,2.2169
3051.00,2.2150
3050.00,2.2134
3049.00,2.2112
3048.00,2.2078
3047.00,2.2032
3046.00,2.1982
3045.00,2.1930
3044.00,2.1875
3043.00,2.1813
3042.00,2.1747
3041.00,2.1680
3040.00,2.1614
3039.00,2.1542
3038.00,2.1463
3037.00,2.1378
3036.00,2.1288
3035.00,2.1196
3034.00,2.1097
3033.00,2.0992
3032.00,2.0880
3031.00,2.0761
3030.00,2.0637
3029.00,2.0512
3028.00,2.0389
3027.00,2.0268
3026.00,2.0145
3025.00,2.0019
3024.00,1.9888
3023.00,1.9756
3022.00,1.9622
3021.00,1.9486
3020.00,1.9349
3019.00,1.9214
3018.00,1.9088
3017.00,1.8974
3016.00,1.8872
3015.00,1.8780
3014.00,1.8699
3013.00,1.8632
3012.00,1.8580
3011.00,1.8542
3010.00,1.8516
3009.00,1.8501
3008.00,1.8498
3007.00,1.8503
3006.00,1.8513
3005.00,1.8522
3004.00,1.8523
3003.00,1.8509
3002.00,1.8475
3001.00,1.8420
3000.00,1.8344
2999.00,1.8246
2998.00,1.8124
2997.00,1.7979
2996.00,1.7815
2995.00,1.7638
2994.00,1.7455
2993.00,1.7273
2992.00,1.7096
2991.00,1.6928
2990.00,1.6776
2989.00,1.6646
2988.00,1.6542
2987.00,1.6467
2986.00,1.6425
2985.00,1.6418
2984.00,1.6449
2983.00,1.6519
2982.00,1.6626
2981.00,1.6766
2980.00,1.6938
2979.00,1.7136
2978.00,1.7360
2977.00,1.7608
2976.00,1.7875
2975.00,1.8155
2974.00,1.8441
2973.00,1.8732
2972.00,1.9024
2971.00,1.9318
2970.00,1.9610
2969.00,1.9897
2968.00,2.0173
2967.00,2.0437
2966.00,2.0688
2965.00,2.0929
2964.00,2.1160
2963.00,2.1379
2962.00,2.1588
2961.00,2.1791
2960.00,2.1988
2959.00,2.2177
2958.00,2.2361
2957.00,2.2547
2956.00,2.2740
2955.00,2.2942
2954.00,2.3150
2953.00,2.3359
2952.00,2.3567
2951.00,2.3771
2950.00,2.3972
2949.00,2.4175
2948.00,2.4378
2947.00,2.4565
2946.00,2.4713
2945.00,2.4799
2944.00,2.4808
2943.00,2.4735
2942.00,2.4586
2941.00,2.4384
2940.00,2.4160
2939.00,2.3931
2938.00,2.3709
2937.00,2.3499
2936.00,2.3309
2935.00,2.3143
2934.00,2.3001
2933.00,2.2880
2932.00,2.2778
2931.00,2.2693
2930.00,2.2623
2929.00,2.2570
2928.00,2.2536
2927.00,2.2519
2926.00,2.2518
2925.00,2.2528
2924.00,2.2548
2923.00,2.2575
2922.00,2.2609
2921.00,2.2648
2920.00,2.2692
2919.00,2.2742
2918.00,2.2796
2917.00,2.2854
2916.00,2.2915
2915.00,2.2979
2914.00,2.3038
2913.00,2.3086
2912.00,2.3125
2911.00,2.3162
2910.00,2.3202
2909.00,2.3245
2908.00,2.3281
2907.00,2.3310
2906.00,2.3332
2905.00,2.3355
2904.00,2.3379
2903.00,2.3405
2902.00,2.3431
2901.00,2.3452
2900.00,2.3462
2899.00,2.3455
2898.00,2.3429
2897.00,2.3392
2896.00,2.3353
2895.00,2.3320
2894.00,2.3292
2893.00,2.3267
2892.00,2.3242
2891.00,2.3215
2890.00,2.3184
2889.00,2.3144
2888.00,2.3093
2887.00,2.3030
2886.00,2.2961
2885.00,2.2890
2884.00,2.2822
2883.00,2.2755
2882.00,2.2688
2881.00,2.2615
2880.00,2.2537
2879.00,2.2457
2878.00,2.2382
2877.00,2.2320
2876.00,2.2271
2875.00,2.2232
2874.00,2.2195
2873.00,2.2158
2872.00,2.2123
2871.00,2.2095
2870.00,2.2070
2869.00,2.2044
2868.00,2.2008
2867.00,2.1961
2866.00,2.1900
2865.00,2.1822
2864.00,2.1726
2863.00,2.1611
2862.00,2.1479
2861.00,2.1330
2860.00,2.1164
2859.00,2.0977
2858.00,2.0770
2857.00,2.0541
2856.00,2.0292
2855.00,2.0026
2854.00,1.9742
2853.00,1.9440
2852.00,1.9120
2851.00,1.8786
2850.00,1.8441
2849.00,1.8087
2848.00,1.7726
2847.00,1.7358
2846.00,1.6987
2845.00,1.6614
2844.00,1.6241
2843.00,1.5873
2842.00,1.5510
2841.00,1.5157
2840.00,1.4814
2839.00,1.4486
2838.00,1.4177
2837.00,1.3888
2836.00,1.3624
2835.00,1.3386
2834.00,1.3176
2833.00,1.2997
2832.00,1.2851
2831.00,1.2740
2830.00,1.2665
2829.00,1.2626
2828.00,1.2624
2827.00,1.2658
2826.00,1.2728
2825.00,1.2832
2824.00,1.2970
2823.00,1.3137
2822.00,1.3333
2821.00,1.3555
2820.00,1.3799
2819.00,1.4062
2818.00,1.4342
2817.00,1.4635
2816.00,1.4939
2815.00,1.5252
2814.00,1.5572
2813.00,1.5897
2812.00,1.6223
2811.00,1.6550
2810.00,1.6876
2809.00,1.7200
2808.00,1.7521
2807.00,1.7835
2806.00,1.8143
2805.00,1.8446
2804.00,1.8744
2803.00,1.9032
2802.00,1.9305
2801.00,1.9561
2800.00,1.9806
2799.00,2.0042
2798.00,2.0273
2797.00,2.0496
2796.00,2.0708
2795.00,2.0907
2794.00,2.1095
2793.00,2.1278
2792.00,2.1459
2791.00,2.1637
2790.00,2.1803
2789.00,2.1951
2788.00,2.2086
2787.00,2.2218
2786.00,2.2352
2785.00,2.2485
2784.00,2.2611
2783.00,2.2725
2782.00,2.2831
2781.00,2.2932
2780.00,2.3028
2779.00,2.3117
2778.00,2.3198
2777.00,2.3273
2776.00,2.3346
2775.00,2.3420
2774.00,2.3492
2773.00,2.3558
2772.00,2.3610
2771.00,2.3651
2770.00,2.3690
2769.00,2.3729
2768.00,2.3769
2767.00,2.3804
2766.00,2.3833
2765.00,2.3856
2764.00,2.3874
2763.00,2.3888
2762.00,2.3901
2761.00,2.3911
2760.00,2.3912
2759.00,2.3901
2758.00,2.3880
2757.00,2.3855
2756.00,2.3830
2755.00,2.3805
2754.00,2.3782
2753.00,2.3757
2752.00,2.3725
2751.00,2.3682
2750.00,2.3626
2749.00,2.3561
2748.00,2.3491
2747.00,2.3417
2746.00,2.3344
2745.00,2.3271
2744.00,2.3195
2743.00,2.3113
2742.00,2.3026
2741.00,2.2934
2740.00,2.2835
2739.00,2.2724
2738.00,2.2604
2737.00,2.2478
2736.00,2.2347
2735.00,2.2208
2734.00,2.2061
2733.00,2.1908
2732.00,2.1751
2731.00,2.1589
2730.00,2.1419
2729.00,2.1241
2728.00,2.1055
2727.00,2.0859
2726.00,2.0653
2725.00,2.0433
2724.00,2.0198
2723.00,1.9952
2722.00,1.9694
2721.00,1.9425
2720.00,1.9143
2719.00,1.8845
2718.00,1.8532
2717.00,1.8203
2716.00,1.7858
2715.00,1.7495
2714.00,1.7114
2713.00,1.6718
2712.00,1.6310
2711.00,1.5893
2710.00,1.5469
2709.00,1.5039
2708.00,1.4607
2707.00,1.4176
2706.00,1.3753
2705.00,1.3343
2704.00,1.2954
2703.00,1.2589
2702.00,1.2254
2701.00,1.1954
2700.00,1.1693
2699.00,1.1474
2698.00,1.1301
2697.00,1.1176
2696.00,1.1103
2695.00,1.1084
2694.00,1.1118
2693.00,1.1204
2692.00,1.1341
2691.00,1.1524
2690.00,1.1750
2689.00,1.2013
2688.00,1.2308
2687.00,1.2630
2686.00,1.2974
2685.00,1.3334
2684.00,1.3708
2683.00,1.4092
2682.00,1.4479
2681.00,1.4868
2680.00,1.5257
2679.00,1.5644
2678.00,1.6028
2677.00,1.6406
2676.00,1.6777
2675.00,1.7141
2674.00,1.7498
2673.00,1.7849
2672.00,1.8189
2671.00,1.8518
2670.00,1.8835
2669.00,1.9141
2668.00,1.9438
2667.00,1.9730
2666.00,2.0017
2665.00,2.0298
2664.00,2.0565
2663.00,2.0815
2662.00,2.1049
2661.00,2.1273
2660.00,2.1492
2659.00,2.1705
2658.00,2.1911
2657.00,2.2109
2656.00,2.2298
2655.00,2.2479
2654.00,2.2649
2653.00,2.2806
2652.00,2.2948
2651.00,2.3080
2650.00,2.3209
2649.00,2.3341
2648.00,2.3471
2647.00,2.3588
2646.00,2.3691
2645.00,2.3793
2644.00,2.3903
2643.00,2.4014
2642.00,2.4114
2641.00,2.4198
2640.00,2.4270
2639.00,2.4334
2638.00,2.4392
2637.00,2.4445
2636.00,2.4498
2635.00,2.4560
2634.00,2.4631
2633.00,2.4701
2632.00,2.4759
2631.00,2.4799
2630.00,2.4826
2629.00,2.4851
2628.00,2.4880
2627.00,2.4909
2626.00,2.4930
2625.00,2.4941
2624.00,2.4943
2623.00,2.4938
2622.00,2.4926
2621.00,2.4911
2620.00,2.4898
2619.00,2.4890
2618.00,2.4881
2617.00,2.4864
2616.00,2.4836
2615.00,2.4796
2614.00,2.4748
2613.00,2.4696
2612.00,2.4643
2611.00,2.4589
2610.00,2.4531
2609.00,2.4470
2608.00,2.4409
2607.00,2.4349
2606.00,2.4286
2605.00,2.4211
2604.00,2.4122
2603.00,2.4018
2602.00,2.3908
2601.00,2.3796
2600.00,2.3683
2599.00,2.3566
2598.00,2.3441
2597.00,2.3308
2596.00,2.3169
2595.00,2.3026
2594.00,2.2877
2593.00,2.2721
2592.00,2.2551
2591.00,2.2369
2590.00,2.2176
2589.00,2.1978
2588.00,2.1771
2587.00,2.1555
2586.00,2.1329
2585.00,2.1093
2584.00,2.0846
2583.00,2.0587
2582.00,2.0314
2581.00,2.0026
2580.00,1.9722
2579.00,1.9402
2578.00,1.9065
2577.00,1.8711
2576.00,1.8341
2575.00,1.7953
2574.00,1.7548
2573.00,1.7127
2572.00,1.6694
2571.00,1.6251
2570.00,1.5801
2569.00,1.5347
2568.00,1.4893
2567.00,1.4443
2566.00,1.4004
2565.00,1.3582
2564.00,1.3182
2563.00,1.2810
2562.00,1.2474
2561.00,1.2177
2560.00,1.1925
2559.00,1.1723
2558.00,1.1575
2557.00,1.1483
2556.00,1.1451
2555.00,1.1478
2554.00,1.1564
2553.00,1.1706
2552.00,1.1900
2551.00,1.2140
2550.00,1.2420
2549.00,1.2734
2548.00,1.3075
2547.00,1.3439
2546.00,1.3820
2545.00,1.4215
2544.00,1.4619
2543.00,1.5030
2542.00,1.5445
2541.00,1.5865
2540.00,1.6286
2539.00,1.6707
2538.00,1.7122
2537.00,1.7530
2536.00,1.7932
2535.00,1.8325
2534.00,1.8709
2533.00,1.9084
2532.00,1.9448
2531.00,1.9800
2530.00,2.0138
2529.00,2.0456
2528.00,2.0755
2527.00,2.1039
2526.00,2.1314
2525.00,2.1584
2524.00,2.1847
2523.00,2.2098
2522.00,2.2333
2521.00,2.2548
2520.00,2.2747
2519.00,2.2936
2518.00,2.3119
2517.00,2.3294
2516.00,2.3461
2515.00,2.3624
2514.00,2.3785
2513.00,2.3944
2512.00,2.4097
2511.00,2.4240
2510.00,2.4372
2509.00,2.4494
2508.00,2.4605
2507.00,2.4708
2506.00,2.4805
2505.00,2.4900
2504.00,2.4992
2503.00,2.5084
2502.00,2.5178
2501.00,2.5276
2500.00,2.5368
2499.00,2.5443
2498.00,2.5498
2497.00,2.5543
2496.00,2.5589
2495.00,2.5635
2494.00,2.5674
2493.00,2.5705
2492.00,2.5736
2491.00,2.5777
2490.00,2.5824
2489.00,2.5864
2488.00,2.5889
2487.00,2.5900
2486.00,2.5903
2485.00,2.5896
2484.00,2.5879
2483.00,2.5863
2482.00,2.5857
2481.00,2.5861
2480.00,2.5862
2479.00,2.5851
2478.00,2.5827
2477.00,2.5793
2476.00,2.5748
2475.00,2.5695
2474.00,2.5642
2473.00,2.5594
2472.00,2.5547
2471.00,2.5491
2470.00,2.5424
2469.00,2.5352
2468.00,2.5283
2467.00,2.5218
2466.00,2.5152
2465.00,2.5079
2464.00,2.4994
2463.00,2.4896
2462.00,2.4790
2461.00,2.4680
2460.00,2.4565
2459.00,2.4439
2458.00,2.4301
2457.00,2.4157
2456.00,2.4012
2455.00,2.3864
2454.00,2.3704
2453.00,2.3528
2452.00,2.3340
2451.00,2.3147
2450.00,2.2953
2449.00,2.2753
2448.00,2.2542
2447.00,2.2313
2446.00,2.2066
2445.00,2.1808
2444.00,2.1544
2443.00,2.1275
2442.00,2.0998
2441.00,2.0705
2440.00,2.0394
2439.00,2.0064
2438.00,1.9719
2437.00,1.9361
2436.00,1.8990
2435.00,1.8605
2434.00,1.8206
2433.00,1.7793
2432.00,1.7371
2431.00,1.6947
2430.00,1.6527
2429.00,1.6115
2428.00,1.5716
2427.00,1.5334
2426.00,1.4976
2425.00,1.4650
2424.00,1.4363
2423.00,1.4119
2422.00,1.3923
2421.00,1.3777
2420.00,1.3682
2419.00,1.3639
2418.00,1.3645
2417.00,1.3696
2416.00,1.3790
2415.00,1.3921
2414.00,1.4083
2413.00,1.4272
2412.00,1.4482
2411.00,1.4709
2410.00,1.4948
2409.00,1.5198
2408.00,1.5456
2407.00,1.5722
2406.00,1.5997
2405.00,1.6282
2404.00,1.6579
2403.00,1.6887
2402.00,1.7207
2401.00,1.7538
2400.00,1.7878
2399.00,1.8224
2398.00,1.8573
2397.00,1.8926
2396.00,1.9281
2395.00,1.9636
2394.00,1.9988
2393.00,2.0332
2392.00,2.0668
2391.00,2.0990
2390.00,2.1299
2389.00,2.1596
2388.00,2.1879
2387.00,2.2147
2386.00,2.2394
2385.00,2.2624
2384.00,2.2844
2383.00,2.3062
2382.00,2.3281
2381.00,2.3499
2380.00,2.3717
2379.00,2.3938
2378.00,2.4158
2377.00,2.4366
2376.00,2.4552
2375.00,2.4723
2374.00,2.4893
2373.00,2.5072
2372.00,2.5255
2371.00,2.5431
2370.00,2.5595
2369.00,2.5745
2368.00,2.5883
2367.00,2.6014
2366.00,2.6144
2365.00,2.6263
2364.00,2.6361
2363.00,2.6446
2362.00,2.6531
2361.00,2.6630
2360.00,2.6735
2359.00,2.6833
2358.00,2.6915
2357.00,2.6967
2356.00,2.6984
2355.00,2.6982
2354.00,2.7014
2353.00,2.7094
2352.00,2.7181
2351.00,2.7230
2350.00,2.7233
2349.00,2.7229
2348.00,2.7245
2347.00,2.7277
2346.00,2.7305
2345.00,2.7307
2344.00,2.7292
2343.00,2.7253
2342.00,2.7188
2341.00,2.7104
2340.00,2.7017
2339.00,2.6944
2338.00,2.6891
2337.00,2.6842
2336.00,2.6770
2335.00,2.6661
2334.00,2.6534
2333.00,2.6420
2332.00,2.6331
2331.00,2.6274
2330.00,2.6220
2329.00,2.6149
2328.00,2.6028
2327.00,2.5864
2326.00,2.5681
2325.00,2.5500
2324.00,2.5337
2323.00,2.5183
2322.00,2.5033
2321.00,2.4879
2320.00,2.4714
2319.00,2.4533
2318.00,2.4327
2317.00,2.4100
2316.00,2.3854
2315.00,2.3600
2314.00,2.3338
2313.00,2.3069
2312.00,2.2780
2311.00,2.2470
2310.00,2.2137
2309.00,2.1792
2308.00,2.1437
2307.00,2.1083
2306.00,2.0733
2305.00,2.0403
2304.00,2.0109
2303.00,1.9881
2302.00,1.9747
2301.00,1.9737
2300.00,1.9868
2299.00,2.0150
2298.00,2.0574
2297.00,2.1116
2296.00,2.1731
2295.00,2.2357
2294.00,2.2914
2293.00,2.3317
2292.00,2.3487
2291.00,2.3394
2290.00,2.3063
2289.00,2.2554
2288.00,2.1929
2287.00,2.1234
2286.00,2.0509
2285.00,1.9784
2284.00,1.9085
2283.00,1.8433
2282.00,1.7853
2281.00,1.7370
2280.00,1.7007
2279.00,1.6781
2278.00,1.6699
2277.00,1.6762
2276.00,1.6963
2275.00,1.7287
2274.00,1.7712
2273.00,1.8219
2272.00,1.8786
2271.00,1.9398
2270.00,2.0046
2269.00,2.0723
2268.00,2.1424
2267.00,2.2145
2266.00,2.2883
2265.00,2.3636
2264.00,2.4398
2263.00,2.5160
2262.00,2.5920
2261.00,2.6694
2260.00,2.7516
2259.00,2.8433
2258.00,2.9497
2257.00,3.0757
2256.00,3.2247
2255.00,3.3950
2254.00,3.5662
2253.00,3.6742
2252.00,3.6355
2251.00,3.4731
2250.00,3.2766
2249.00,3.0882
2248.00,2.9140
2247.00,2.7503
2246.00,2.5944
2245.00,2.4476
2244.00,2.3131
2243.00,2.1953
2242.00,2.0980
2241.00,2.0243
2240.00,1.9753
2239.00,1.9506
2238.00,1.9480
2237.00,1.9641
2236.00,1.9946
2235.00,2.0354
2234.00,2.0824
2233.00,2.1325
2232.00,2.1836
2231.00,2.2340
2230.00,2.2821
2229.00,2.3268
2228.00,2.3676
2227.00,2.4045
2226.00,2.4377
2225.00,2.4680
2224.00,2.4964
2223.00,2.5237
2222.00,2.5496
2221.00,2.5728
2220.00,2.5931
2219.00,2.6116
2218.00,2.6289
2217.00,2.6449
2216.00,2.6595
2215.00,2.6734
2214.00,2.6875
2213.00,2.7014
2212.00,2.7140
2211.00,2.7251
2210.00,2.7350
2209.00,2.7436
2208.00,2.7505
2207.00,2.7559
2206.00,2.7615
2205.00,2.7681
2204.00,2.7756
2203.00,2.7827
2202.00,2.7884
2201.00,2.7921
2200.00,2.7938
2199.00,2.7945
2198.00,2.7954
2197.00,2.7971
2196.00,2.7995
2195.00,2.8031
2194.00,2.8074
2193.00,2.8108
2192.00,2.8108
2191.00,2.8070
2190.00,2.8011
2189.00,2.7953
2188.00,2.7901
2187.00,2.7849
2186.00,2.7793
2185.00,2.7735
2184.00,2.7684
2183.00,2.7644
2182.00,2.7617
2181.00,2.7594
2180.00,2.7565
2179.00,2.7517
2178.00,2.7443
2177.00,2.7347
2176.00,2.7237
2175.00,2.7121
2174.00,2.7000
2173.00,2.6871
2172.00,2.6739
2171.00,2.6615
2170.00,2.6512
2169.00,2.6420
2168.00,2.6317
2167.00,2.6184
2166.00,2.6019
2165.00,2.5829
2164.00,2.5621
2163.00,2.5403
2162.00,2.5183
2161.00,2.4962
2160.00,2.4739
2159.00,2.4509
2158.00,2.4269
2157.00,2.4017
2156.00,2.3752
2155.00,2.3471
2154.00,2.3167
2153.00,2.2840
2152.00,2.2496
2151.00,2.2140
2150.00,2.1772
2149.00,2.1383
2148.00,2.0965
2147.00,2.0516
2146.00,2.0037
2145.00,1.9533
2144.00,1.9008
2143.00,1.8468
2142.00,1.7918
2141.00,1.7361
2140.00,1.6801
2139.00,1.6247
2138.00,1.5710
2137.00,1.5203
2136.00,1.4734
2135.00,1.4313
2134.00,1.3948
2133.00,1.3648
2132.00,1.3421
2131.00,1.3272
2130.00,1.3205
2129.00,1.3224
2128.00,1.3328
2127.00,1.3510
2126.00,1.3765
2125.00,1.4083
2124.00,1.4454
2123.00,1.4868
2122.00,1.5315
2121.00,1.5788
2120.00,1.6279
2119.00,1.6781
2118.00,1.7290
2117.00,1.7803
2116.00,1.8318
2115.00,1.8834
2114.00,1.9343
2113.00,1.9841
2112.00,2.0324
2111.00,2.0789
2110.00,2.1237
2109.00,2.1667
2108.00,2.2076
2107.00,2.2464
2106.00,2.2833
2105.00,2.3191
2104.00,2.3539
2103.00,2.3866
2102.00,2.4164
2101.00,2.4436
2100.00,2.4688
2099.00,2.4933
2098.00,2.5175
2097.00,2.5411
2096.00,2.5635
2095.00,2.5842
2094.00,2.6037
2093.00,2.6230
2092.00,2.6424
2091.00,2.6613
2090.00,2.6790
2089.00,2.6953
2088.00,2.7103
2087.00,2.7242
2086.00,2.7377
2085.00,2.7519
2084.00,2.7672
2083.00,2.7824
2082.00,2.7955
2081.00,2.8054
2080.00,2.8129
2079.00,2.8195
2078.00,2.8262
2077.00,2.8330
2076.00,2.8402
2075.00,2.8483
2074.00,2.8570
2073.00,2.8648
2072.00,2.8707
2071.00,2.8753
2070.00,2.8795
2069.00,2.8837
2068.00,2.8878
2067.00,2.8924
2066.00,2.8985
2065.00,2.9056
2064.00,2.9119
2063.00,2.9158
2062.00,2.9171
2061.00,2.9162
2060.00,2.9130
2059.00,2.9077
2058.00,2.9024
2057.00,2.8993
2056.00,2.8997
2055.00,2.9026
2054.00,2.9057
2053.00,2.9059
2052.00,2.9015
2051.00,2.8941
2050.00,2.8869
2049.00,2.8818
2048.00,2.8774
2047.00,2.8722
2046.00,2.8670
2045.00,2.8641
2044.00,2.8628
2043.00,2.8600
2042.00,2.8532
2041.00,2.8437
2040.00,2.8346
2039.00,2.8274
2038.00,2.8205
2037.00,2.8115
2036.00,2.7996
2035.00,2.7857
2034.00,2.7712
2033.00,2.7574
2032.00,2.7448
2031.00,2.7331
2030.00,2.7208
2029.00,2.7063
2028.00,2.6894
2027.00,2.6713
2026.00,2.6532
2025.00,2.6348
2024.00,2.6153
2023.00,2.5942
2022.00,2.5723
2021.00,2.5503
2020.00,2.5277
2019.00,2.5037
2018.00,2.4775
2017.00,2.4486
2016.00,2.4174
2015.00,2.3843
2014.00,2.3501
2013.00,2.3149
2012.00,2.2786
2011.00,2.2405
2010.00,2.1999
2009.00,2.1563
2008.00,2.1096
2007.00,2.0600
2006.00,2.0080
2005.00,1.9541
2004.00,1.8984
2003.00,1.8415
2002.00,1.7841
2001.00,1.7271
2000.00,1.6714
1999.00,1.6180
1998.00,1.5681
1997.00,1.5230
1996.00,1.4840
1995.00,1.4521
1994.00,1.4281
1993.00,1.4125
1992.00,1.4055
1991.00,1.4069
1990.00,1.4165
1989.00,1.4344
1988.00,1.4599
1987.00,1.4922
1986.00,1.5301
1985.00,1.5725
1984.00,1.6187
1983.00,1.6675
1982.00,1.7182
1981.00,1.7701
1980.00,1.8226
1979.00,1.8753
1978.00,1.9279
1977.00,1.9802
1976.00,2.0318
1975.00,2.0822
1974.00,2.1305
1973.00,2.1768
1972.00,2.2213
1971.00,2.2644
1970.00,2.3062
1969.00,2.3469
1968.00,2.3865
1967.00,2.4235
1966.00,2.4564
1965.00,2.4863
1964.00,2.5157
1963.00,2.5458
1962.00,2.5752
1961.00,2.6019
1960.00,2.6255
1959.00,2.6475
1958.00,2.6695
1957.00,2.6916
1956.00,2.7133
1955.00,2.7334
1954.00,2.7513
1953.00,2.7675
1952.00,2.7833
1951.00,2.7995
1950.00,2.8147
1949.00,2.8275
1948.00,2.8383
1947.00,2.8488
1946.00,2.8603
1945.00,2.8736
1944.00,2.8889
1943.00,2.9048
1942.00,2.9182
1941.00,2.9274
1940.00,2.9341
1939.00,2.9414
1938.00,2.9507
1937.00,2.9611
1936.00,2.9721
1935.00,2.9840
1934.00,2.9960
1933.00,3.0053
1932.00,3.0094
1931.00,3.0083
1930.00,3.0042
1929.00,3.0005
1928.00,2.9999
1927.00,3.0026
1926.00,3.0070
1925.00,3.0109
1924.00,3.0141
1923.00,3.0168
1922.00,3.0176
1921.00,3.0146
1920.00,3.0097
1919.00,3.0080
1918.00,3.0122
1917.00,3.0189
1916.00,3.0228
1915.00,3.0224
1914.00,3.0201
1913.00,3.0178
1912.00,3.0156
1911.00,3.0129
1910.00,3.0092
1909.00,3.0050
1908.00,3.0000
1907.00,2.9935
1906.00,2.9844
1905.00,2.9726
1904.00,2.9602
1903.00,2.9505
1902.00,2.9450
1901.00,2.9422
1900.00,2.9386
1899.00,2.9316
1898.00,2.9206
1897.00,2.9065
1896.00,2.8913
1895.00,2.8766
1894.00,2.8628
1893.00,2.8492
1892.00,2.8352
1891.00,2.8205
1890.00,2.8044
1889.00,2.7862
1888.00,2.7662
1887.00,2.7459
1886.00,2.7260
1885.00,2.7059
1884.00,2.6848
1883.00,2.6624
1882.00,2.6391
1881.00,2.6148
1880.00,2.5892
1879.00,2.5621
1878.00,2.5335
1877.00,2.5032
1876.00,2.4707
1875.00,2.4360
1874.00,2.3994
1873.00,2.3611
1872.00,2.3204
1871.00,2.2772
1870.00,2.2316
1869.00,2.1839
1868.00,2.1330
1867.00,2.0784
1866.00,2.0207
1865.00,1.9612
1864.00,1.9012
1863.00,1.8418
1862.00,1.7836
1861.00,1.7278
1860.00,1.6758
1859.00,1.6290
1858.00,1.5885
1857.00,1.5558
1856.00,1.5321
1855.00,1.5180
1854.00,1.5138
1853.00,1.5199
1852.00,1.5362
1851.00,1.5616
1850.00,1.5954
1849.00,1.6364
1848.00,1.6816
1847.00,1.7273
1846.00,1.7734
1845.00,1.8250
1844.00,1.8857
1843.00,1.9510
1842.00,2.0125
1841.00,2.0674
1840.00,2.1185
1839.00,2.1695
1838.00,2.2206
1837.00,2.2702
1836.00,2.3178
1835.00,2.3633
1834.00,2.4053
1833.00,2.4428
1832.00,2.4774
1831.00,2.5128
1830.00,2.5507
1829.00,2.5881
1828.00,2.6211
1827.00,2.6485
1826.00,2.6733
1825.00,2.6987
1824.00,2.7249
1823.00,2.7498
1822.00,2.7728
1821.00,2.7950
1820.00,2.8168
1819.00,2.8378
1818.00,2.8577
1817.00,2.8765
1816.00,2.8934
1815.00,2.9073
1814.00,2.9194
1813.00,2.9338
1812.00,2.9521
1811.00,2.9722
1810.00,2.9902
1809.00,3.0056
1808.00,3.0197
1807.00,3.0321
1806.00,3.0408
1805.00,3.0460
1804.00,3.0517
1803.00,3.0619
1802.00,3.0763
1801.00,3.0909
1800.00,3.1011
1799.00,3.1065
1798.00,3.1094
1797.00,3.1119
1796.00,3.1132
1795.00,3.1123
1794.00,3.1103
1793.00,3.1109
1792.00,3.1153
1791.00,3.1216
1790.00,3.1280
1789.00,3.1345
1788.00,3.1413
1787.00,3.1476
1786.00,3.1519
1785.00,3.1523
1784.00,3.1490
1783.00,3.1449
1782.00,3.1441
1781.00,3.1482
1780.00,3.1527
1779.00,3.1512
1778.00,3.1417
1777.00,3.1275
1776.00,3.1119
1775.00,3.0959
1774.00,3.0814
1773.00,3.0732
1772.00,3.0724
1771.00,3.0738
1770.00,3.0727
1769.00,3.0680
1768.00,3.0619
1767.00,3.0558
1766.00,3.0492
1765.00,3.0402
1764.00,3.0278
1763.00,3.0127
1762.00,2.9969
1761.00,2.9816
1760.00,2.9666
1759.00,2.9508
1758.00,2.9335
1757.00,2.9149
1756.00,2.8952
1755.00,2.8740
1754.00,2.8511
1753.00,2.8276
1752.00,2.8052
1751.00,2.7843
1750.00,2.7624
1749.00,2.7367
1748.00,2.7073
1747.00,2.6763
1746.00,2.6458
1745.00,2.6170
1744.00,2.5886
1743.00,2.5588
1742.00,2.5270
1741.00,2.4953
1740.00,2.4675
1739.00,2.4442
1738.00,2.4213
1737.00,2.3958
1736.00,2.3695
1735.00,2.3512
1734.00,2.3467
1733.00,2.3495
1732.00,2.3529
1731.00,2.3595
1730.00,2.3752
1729.00,2.4037
1728.00,2.4442
1727.00,2.4942
1726.00,2.5527
1725.00,2.6189
1724.00,2.6912
1723.00,2.7686
1722.00,2.8496
1721.00,2.9312
1720.00,3.0131
1719.00,3.1035
1718.00,3.2126
1717.00,3.3372
1716.00,3.4594
1715.00,3.5668
1714.00,3.6625
1713.00,3.7463
1712.00,3.8118
1711.00,3.8693
1710.00,3.9412
1709.00,4.0163
1708.00,4.0339
1707.00,3.9711
1706.00,3.8631
1705.00,3.7363
1704.00,3.6137
1703.00,3.5032
1702.00,3.3896
1701.00,3.2591
1700.00,3.1274
1699.00,3.0144
1698.00,2.9121
1697.00,2.8014
1696.00,2.6784
1695.00,2.5599
1694.00,2.4593
1693.00,2.3756
1692.00,2.3059
1691.00,2.2514
1690.00,2.2143
1689.00,2.1947
1688.00,2.1892
1687.00,2.1936
1686.00,2.2086
1685.00,2.2446
1684.00,2.3041
1683.00,2.3724
1682.00,2.4342
1681.00,2.4862
1680.00,2.5322
1679.00,2.5731
1678.00,2.6065
1677.00,2.6348
1676.00,2.6675
1675.00,2.7112
1674.00,2.7596
1673.00,2.8012
1672.00,2.8325
1671.00,2.8583
1670.00,2.8852
1669.00,2.9164
1668.00,2.9499
1667.00,2.9794
1666.00,3.0003
1665.00,3.0134
1664.00,3.0252
1663.00,3.0403
1662.00,3.0574
1661.00,3.0747
1660.00,3.0917
1659.00,3.1088
1658.00,3.1253
1657.00,3.1396
1656.00,3.1487
1655.00,3.1526
1654.00,3.1610
1653.00,3.1808
1652.00,3.2051
1651.00,3.2201
1650.00,3.2234
1649.00,3.2259
1648.00,3.2357
1647.00,3.2511
1646.00,3.2650
1645.00,3.2741
1644.00,3.2780
1643.00,3.2775
1642.00,3.2762
1641.00,3.2783
1640.00,3.2835
1639.00,3.2864
1638.00,3.2830
1637.00,3.2780
1636.00,3.2793
1635.00,3.2870
1634.00,3.2932
1633.00,3.2923
1632.00,3.2863
1631.00,3.2788
1630.00,3.2726
1629.00,3.2726
1628.00,3.2815
1627.00,3.2936
1626.00,3.2973
1625.00,3.2879
1624.00,3.2736
1623.00,3.2634
1622.00,3.2566
1621.00,3.2491
1620.00,3.2422
1619.00,3.2389
1618.00,3.2386
1617.00,3.2351
1616.00,3.2239
1615.00,3.2077
1614.00,3.1926
1613.00,3.1813
1612.00,3.1736
1611.00,3.1675
1610.00,3.1605
1609.00,3.1513
1608.00,3.1411
1607.00,3.1300
1606.00,3.1153
1605.00,3.0949
1604.00,3.0710
1603.00,3.0483
1602.00,3.0283
1601.00,3.0084
1600.00,2.9867
1599.00,2.9639
1598.00,2.9412
1597.00,2.9171
1596.00,2.8902
1595.00,2.8609
1594.00,2.8304
1593.00,2.7987
1592.00,2.7657
1591.00,2.7314
1590.00,2.6955
1589.00,2.6572
1588.00,2.6161
1587.00,2.5730
1586.00,2.5284
1585.00,2.4825
1584.00,2.4358
1583.00,2.3901
1582.00,2.3468
1581.00,2.3062
1580.00,2.2677
1579.00,2.2305
1578.00,2.1947
1577.00,2.1608
1576.00,2.1300
1575.00,2.1042
1574.00,2.0838
1573.00,2.0678
1572.00,2.0562
1571.00,2.0537
1570.00,2.0659
1569.00,2.0917
1568.00,2.1236
1567.00,2.1558
1566.00,2.1890
1565.00,2.2271
1564.00,2.2699
1563.00,2.3102
1562.00,2.3417
1561.00,2.3656
1560.00,2.4033
1559.00,2.4648
1558.00,2.5334
1557.00,2.5945
1556.00,2.6413
1555.00,2.6784
1554.00,2.7154
1553.00,2.7543
1552.00,2.7912
1551.00,2.8243
1550.00,2.8571
1549.00,2.8918
1548.00,2.9256
1547.00,2.9538
1546.00,2.9780
1545.00,3.0043
1544.00,3.0327
1543.00,3.0574
1542.00,3.0761
1541.00,3.0940
1540.00,3.1143
1539.00,3.1378
1538.00,3.1640
1537.00,3.1882
1536.00,3.2074
1535.00,3.2206
1534.00,3.2299
1533.00,3.2382
1532.00,3.2465
1531.00,3.2547
1530.00,3.2640
1529.00,3.2787
1528.00,3.3034
1527.00,3.3352
1526.00,3.3652
1525.00,3.3870
1524.00,3.3997
1523.00,3.4054
1522.00,3.4090
1521.00,3.4142
1520.00,3.4183
1519.00,3.4160
1518.00,3.4097
1517.00,3.4078
1516.00,3.4143
1515.00,3.4251
1514.00,3.4348
1513.00,3.4435
1512.00,3.4522
1511.00,3.4568
1510.00,3.4560
1509.00,3.4563
1508.00,3.4619
1507.00,3.4616
1506.00,3.4521
1505.00,3.4524
1504.00,3.4695
1503.00,3.4918
1502.00,3.5039
1501.00,3.4982
1500.00,3.4818
1499.00,3.4655
1498.00,3.4514
1497.00,3.4352
1496.00,3.4170
1495.00,3.4018
1494.00,3.3905
1493.00,3.3810
1492.00,3.3752
1491.00,3.3775
1490.00,3.3868
1489.00,3.3962
1488.00,3.4015
1487.00,3.4027
1486.00,3.3993
1485.00,3.3910
1484.00,3.3807
1483.00,3.3735
1482.00,3.3717
1481.00,3.3702
1480.00,3.3610
1479.00,3.3433
1478.00,3.3263
1477.00,3.3202
1476.00,3.3244
1475.00,3.3264
1474.00,3.3149
1473.00,3.2933
1472.00,3.2756
1471.00,3.2726
1470.00,3.2824
1469.00,3.2964
1468.00,3.3064
1467.00,3.3088
1466.00,3.3061
1465.00,3.3051
1464.00,3.3098
1463.00,3.3176
1462.00,3.3242
1461.00,3.3307
1460.00,3.3445
1459.00,3.3741
1458.00,3.4213
1457.00,3.4775
1456.00,3.5305
1455.00,3.5696
1454.00,3.5949
1453.00,3.6218
1452.00,3.6616
1451.00,3.7114
1450.00,3.7596
1449.00,3.7970
1448.00,3.8248
1447.00,3.8457
1446.00,3.8544
1445.00,3.8387
1444.00,3.7952
1443.00,3.7391
1442.00,3.6894
1441.00,3.6546
1440.00,3.6366
1439.00,3.6382
1438.00,3.6641
1437.00,3.7067
1436.00,3.7323
1435.00,3.7090
1434.00,3.6555
1433.00,3.6119
1432.00,3.5986
1431.00,3.6135
1430.00,3.6373
1429.00,3.6464
1428.00,3.6328
1427.00,3.6079
1426.00,3.5851
1425.00,3.5698
1424.00,3.5620
1423.00,3.5603
1422.00,3.5616
1421.00,3.5594
1420.00,3.5488
1419.00,3.5304
1418.00,3.5097
1417.00,3.4904
1416.00,3.4695
1415.00,3.4424
1414.00,3.4124
1413.00,3.3880
1412.00,3.3733
1411.00,3.3641
1410.00,3.3534
1409.00,3.3382
1408.00,3.3220
1407.00,3.3095
1406.00,3.3011
1405.00,3.2928
1404.00,3.2812
1403.00,3.2672
1402.00,3.2540
1401.00,3.2442
1400.00,3.2403
1399.00,3.2445
1398.00,3.2554
1397.00,3.2690
1396.00,3.2810
1395.00,3.2904
1394.00,3.2985
1393.00,3.3055
1392.00,3.3102
1391.00,3.3132
1390.00,3.3193
1389.00,3.3340
1388.00,3.3601
1387.00,3.3967
1386.00,3.4414
1385.00,3.4895
1384.00,3.5332
1383.00,3.5681
1382.00,3.6009
1381.00,3.6426
1380.00,3.6931
1379.00,3.7392
1378.00,3.7692
1377.00,3.7865
1376.00,3.7930
1375.00,3.7705
1374.00,3.7048
1373.00,3.6168
1372.00,3.5350
1371.00,3.4706
1370.00,3.4231
1369.00,3.3903
1368.00,3.3696
1367.00,3.3579
1366.00,3.3523
1365.00,3.3512
1364.00,3.3538
1363.00,3.3598
1362.00,3.3720
1361.00,3.3952
1360.00,3.4296
1359.00,3.4655
1358.00,3.4886
1357.00,3.4950
1356.00,3.4973
1355.00,3.5100
1354.00,3.5342
1353.00,3.5580
1352.00,3.5712
1351.00,3.5783
1350.00,3.5915
1349.00,3.6108
1348.00,3.6196
1347.00,3.6065
1346.00,3.5878
1345.00,3.5885
1344.00,3.6144
1343.00,3.6491
1342.00,3.6755
1341.00,3.6953
1340.00,3.7167
1339.00,3.7246
1338.00,3.6975
1337.00,3.6474
1336.00,3.6061
1335.00,3.5923
1334.00,3.6055
1333.00,3.6363
1332.00,3.6748
1331.00,3.7130
1330.00,3.7436
1329.00,3.7585
1328.00,3.7525
1327.00,3.7299
1326.00,3.7066
1325.00,3.6925
1324.00,3.6797
1323.00,3.6544
1322.00,3.6160
1321.00,3.5840
1320.00,3.5759
1319.00,3.5929
1318.00,3.6226
1317.00,3.6487
1316.00,3.6627
1315.00,3.6649
1314.00,3.6604
1313.00,3.6547
1312.00,3.6521
1311.00,3.6512
1310.00,3.6447
1309.00,3.6295
1308.00,3.6111
1307.00,3.5937
1306.00,3.5737
1305.00,3.5494
1304.00,3.5269
1303.00,3.5102
1302.00,3.4936
1301.00,3.4696
1300.00,3.4385
1299.00,3.4047
1298.00,3.3682
1297.00,3.3267
1296.00,3.2841
1295.00,3.2472
1294.00,3.2167
1293.00,3.1870
1292.00,3.1540
1291.00,3.1194
1290.00,3.0849
1289.00,3.0470
1288.00,3.0014
1287.00,2.9488
1286.00,2.8948
1285.00,2.8435
1284.00,2.7955
1283.00,2.7494
1282.00,2.7032
1281.00,2.6565
1280.00,2.6111
1279.00,2.5705
1278.00,2.5377
1277.00,2.5123
1276.00,2.4909
1275.00,2.4696
1274.00,2.4468
1273.00,2.4239
1272.00,2.4040
1271.00,2.3907
1270.00,2.3865
1269.00,2.3924
1268.00,2.4073
1267.00,2.4294
1266.00,2.4575
1265.00,2.4907
1264.00,2.5283
1263.00,2.5691
1262.00,2.6118
1261.00,2.6561
1260.00,2.7035
1259.00,2.7557
1258.00,2.8129
1257.00,2.8723
1256.00,2.9297
1255.00,2.9825
1254.00,3.0303
1253.00,3.0739
1252.00,3.1150
1251.00,3.1580
1250.00,3.2073
1249.00,3.2597
1248.00,3.3036
1247.00,3.3302
1246.00,3.3437
1245.00,3.3562
1244.00,3.3756
1243.00,3.4057
1242.00,3.4491
1241.00,3.5026
1240.00,3.5500
1239.00,3.5730
1238.00,3.5711
1237.00,3.5628
1236.00,3.5676
1235.00,3.5892
1234.00,3.6165
1233.00,3.6360
1232.00,3.6405
1231.00,3.6331
1230.00,3.6234
1229.00,3.6210
1228.00,3.6347
1227.00,3.6696
1226.00,3.7255
1225.00,3.7934
1224.00,3.8452
1223.00,3.8453
1222.00,3.8003
1221.00,3.7542
1220.00,3.7423
1219.00,3.7739
1218.00,3.8275
1217.00,3.8532
1216.00,3.8241
1215.00,3.7707
1214.00,3.7302
1213.00,3.7136
1212.00,3.7097
1211.00,3.7053
1210.00,3.7039
1209.00,3.7122
1208.00,3.7234
1207.00,3.7316
1206.00,3.7454
1205.00,3.7753
1204.00,3.8189
1203.00,3.8659
1202.00,3.9134
1201.00,3.9583
1200.00,3.9722
1199.00,3.9214
1198.00,3.8287
1197.00,3.7502
1196.00,3.7200
1195.00,3.7453
1194.00,3.8129
1193.00,3.8833
1192.00,3.9022
1191.00,3.8635
1190.00,3.8269
1189.00,3.8381
1188.00,3.8901
1187.00,3.9281
1186.00,3.9170
1185.00,3.9044
1184.00,3.9269
1183.00,3.9392
1182.00,3.9016
1181.00,3.8578
1180.00,3.8346
1179.00,3.8287
1178.00,3.8406
1177.00,3.8567
1176.00,3.8422
1175.00,3.7884
1174.00,3.7340
1173.00,3.7153
1172.00,3.7310
1171.00,3.7453
1170.00,3.7212
1169.00,3.6621
1168.00,3.6093
1167.00,3.5897
1166.00,3.5959
1165.00,3.6060
1164.00,3.6089
1163.00,3.6083
1162.00,3.6074
1161.00,3.5994
1160.00,3.5731
1159.00,3.5229
1158.00,3.4566
1157.00,3.3902
1156.00,3.3359
1155.00,3.2953
1154.00,3.2626
1153.00,3.2307
1152.00,3.1956
1151.00,3.1563
1150.00,3.1138
1149.00,3.0702
1148.00,3.0258
1147.00,2.9785
1146.00,2.9257
1145.00,2.8671
1144.00,2.8074
1143.00,2.7542
1142.00,2.7128
1141.00,2.6839
1140.00,2.6657
1139.00,2.6561
1138.00,2.6542
1137.00,2.6610
1136.00,2.6788
1135.00,2.7106
1134.00,2.7570
1133.00,2.8146
1132.00,2.8774
1131.00,2.9405
1130.00,3.0036
1129.00,3.0696
1128.00,3.1401
1127.00,3.2146
1126.00,3.2936
1125.00,3.3767
1124.00,3.4530
1123.00,3.4966
1122.00,3.4932
1121.00,3.4715
1120.00,3.4746
1119.00,3.5226
1118.00,3.5956
1117.00,3.6298
1116.00,3.5873
1115.00,3.5206
1114.00,3.4909
1113.00,3.5143
1112.00,3.5738
1111.00,3.6436
1110.00,3.7142
1109.00,3.7792
1108.00,3.8128
1107.00,3.8085
1106.00,3.7995
1105.00,3.8067
1104.00,3.8049
1103.00,3.7586
1102.00,3.6874
1101.00,3.6437
1100.00,3.6594
1099.00,3.7334
1098.00,3.8248
1097.00,3.8574
1096.00,3.8074
1095.00,3.7393
1094.00,3.6985
1093.00,3.6849
1092.00,3.6901
1091.00,3.7271
1090.00,3.8189
1089.00,3.9536
1088.00,4.0414
1087.00,4.0048
1086.00,3.9225
1085.00,3.8879
1084.00,3.9191
1083.00,3.9591
1082.00,3.9555
1081.00,3.9379
1080.00,3.9117
1079.00,3.8819
1078.00,3.8812
1077.00,3.9066
1076.00,3.9238
1075.00,3.8912
1074.00,3.8106
1073.00,3.7356
1072.00,3.7009
1071.00,3.7085
1070.00,3.7561
1069.00,3.8234
1068.00,3.8679
1067.00,3.8866
1066.00,3.8682
1065.00,3.8220
1064.00,3.8199
1063.00,3.8670
1062.00,3.9005
1061.00,3.9207
1060.00,3.9870
1059.00,4.0897
1058.00,4.1604
1057.00,4.2031
1056.00,4.2317
1055.00,4.2499
1054.00,4.2813
1053.00,4.4542
1052.00,4.4493
1051.00,4.1740
1050.00,4.0708
1049.00,4.2218
1048.00,4.5124
1047.00,4.2209
1046.00,4.0217
1045.00,3.9918
1044.00,3.9962
1043.00,4.0303
1042.00,4.0682
1041.00,4.0916
1040.00,4.0979
1039.00,4.0929
1038.00,4.0582
1037.00,4.0158
1036.00,3.9900
1035.00,3.9856
1034.00,4.0406
1033.00,4.1324
1032.00,4.0672
1031.00,3.9508
1030.00,3.9285
1029.00,3.9699
1028.00,4.0235
1027.00,4.0618
1026.00,4.0681
1025.00,4.0183
1024.00,3.9417
1023.00,3.9004
1022.00,3.9235
1021.00,3.9981
1020.00,4.0632
1019.00,4.0641
1018.00,4.0361
1017.00,4.0108
1016.00,3.9706
1015.00,3.9162
1014.00,3.8803
1013.00,3.8932
1012.00,3.9774
1011.00,4.1697
1010.00,4.5755
1009.00,5.2358
1008.00,4.8978
1007.00,4.3869
1006.00,4.0657
1005.00,3.9171
1004.00,3.8841
1003.00,3.9204
1002.00,3.9947
1001.00,4.0522
1000.00,4.0195
999.00,3.8955
998.00,3.7700
997.00,3.6841
996.00,3.6247
995.00,3.5693
994.00,3.5187
993.00,3.4890
992.00,3.4840
991.00,3.4808
990.00,3.4508
989.00,3.4064
988.00,3.3861
987.00,3.4070
986.00,3.4492
985.00,3.4716
984.00,3.4615
983.00,3.4533
982.00,3.4825
981.00,3.5575
980.00,3.6658
979.00,3.7885
978.00,3.9138
977.00,4.0258
976.00,4.0574
975.00,3.9738
974.00,3.8735
973.00,3.8168
972.00,3.7839
971.00,3.7399
970.00,3.6947
969.00,3.6878
968.00,3.7406
967.00,3.8462
966.00,3.9672
965.00,4.0517
964.00,4.0749
963.00,4.0529
962.00,3.9911
961.00,3.8941
960.00,3.8077
959.00,3.7689
958.00,3.7753
957.00,3.7979
956.00,3.8132
955.00,3.8271
954.00,3.8548
953.00,3.8962
952.00,3.9208
951.00,3.8962
950.00,3.8479
949.00,3.8229
948.00,3.8414
947.00,3.9056
946.00,4.0073
945.00,4.1027
944.00,4.1404
943.00,4.1559
942.00,4.1607
941.00,4.0967
940.00,3.9813
939.00,3.8884
938.00,3.8638
937.00,3.9304
936.00,4.0887
935.00,4.2655
934.00,4.3721
933.00,4.3740
932.00,4.2928
931.00,4.2391
930.00,4.1910
929.00,4.1071
928.00,4.0203
927.00,3.9387
926.00,3.8667
925.00,3.8274
924.00,3.8277
923.00,3.8803
922.00,4.0249
921.00,4.2652
920.00,4.4457
919.00,4.3418
918.00,4.1371
917.00,3.9873
916.00,3.8994
915.00,3.8785
914.00,3.9204
913.00,3.9881
912.00,4.0260
911.00,4.0145
910.00,4.0162
909.00,4.0820
908.00,4.1699
907.00,4.1312
906.00,4.0025
905.00,3.9594
904.00,4.0471
903.00,4.1671
902.00,4.1908
901.00,4.2018
900.00,4.2675
899.00,4.4538
898.00,4.4695
897.00,4.1462
896.00,3.9353
895.00,3.8273
894.00,3.7920
893.00,3.8276
892.00,3.8946
891.00,3.8881
890.00,3.7909
889.00,3.6967
888.00,3.6502
887.00,3.6627
886.00,3.7149
885.00,3.7693
884.00,3.8037
883.00,3.8164
882.00,3.8031
881.00,3.7598
880.00,3.7040
879.00,3.6531
878.00,3.6087
877.00,3.5770
876.00,3.5717
875.00,3.6018
874.00,3.6596
873.00,3.7117
872.00,3.7356
871.00,3.7379
870.00,3.7175
869.00,3.6830
868.00,3.6548
867.00,3.6350
866.00,3.6173
865.00,3.6044
864.00,3.6040
863.00,3.6222
862.00,3.6650
861.00,3.7273
860.00,3.7851
859.00,3.7893
858.00,3.7299
857.00,3.6811
856.00,3.6845
855.00,3.7225
854.00,3.7497
853.00,3.7378
852.00,3.7142
851.00,3.7255
850.00,3.7825
849.00,3.8493
848.00,3.8762
847.00,3.8326
846.00,3.7730
845.00,3.7464
844.00,3.7297
843.00,3.7322
842.00,3.8080
841.00,3.9442
840.00,3.9453
839.00,3.7811
838.00,3.6398
837.00,3.5744
836.00,3.5960
835.00,3.6985
834.00,3.8429
833.00,3.9540
832.00,3.9910
831.00,3.9810
830.00,3.9035
829.00,3.7791
828.00,3.6788
827.00,3.6262
826.00,3.6257
825.00,3.6800
824.00,3.7869
823.00,3.8894
822.00,3.8912
821.00,3.8315
820.00,3.7686
819.00,3.7120
818.00,3.6689
817.00,3.6545
816.00,3.6917
815.00,3.7893
814.00,3.9017
813.00,3.9032
812.00,3.7983
811.00,3.7168
810.00,3.7090
809.00,3.7642
808.00,3.8467
807.00,3.9314
806.00,4.0345
805.00,4.1238
804.00,4.0897
803.00,3.9916
802.00,3.9778
801.00,4.0494
800.00,4.0053
799.00,3.8765
798.00,3.8081
797.00,3.7768
796.00,3.7559
795.00,3.7446
794.00,3.7627
793.00,3.8200
792.00,3.8507
791.00,3.8262
790.00,3.8366
789.00,3.8834
788.00,3.8911
787.00,3.8761
786.00,3.8766
785.00,3.9139
784.00,4.0330
783.00,4.1894
782.00,4.0969
781.00,3.8854
780.00,3.7789
779.00,3.7777
778.00,3.8588
777.00,3.9967
776.00,4.1465
775.00,4.1853
774.00,4.0627
773.00,3.9557
772.00,3.9486
771.00,3.9936
770.00,3.9602
769.00,3.8508
768.00,3.7726
767.00,3.7690
766.00,3.8396
765.00,3.9166
764.00,3.9144
763.00,3.8996
762.00,3.9535
761.00,4.1134
760.00,4.3823
759.00,4.4979
758.00,4.2485
757.00,3.9999
756.00,3.8891
755.00,3.9021
754.00,3.9738
753.00,3.9830
752.00,3.8876
751.00,3.7844
750.00,3.7232
749.00,3.6974
748.00,3.6931
747.00,3.7060
746.00,3.7331
745.00,3.7595
744.00,3.7648
743.00,3.7453
742.00,3.7135
741.00,3.6823
740.00,3.6603
739.00,3.6493
738.00,3.6461
737.00,3.6504
736.00,3.6615
735.00,3.6705
734.00,3.6725
733.00,3.6715
732.00,3.6705
731.00,3.6699
730.00,3.6807
729.00,3.6723
728.00,3.5952
727.00,3.5026
726.00,3.4382
725.00,3.4133
724.00,3.4451
723.00,3.5370
722.00,3.6562
721.00,3.7145
720.00,3.6767
719.00,3.6091
718.00,3.5519
717.00,3.5257
716.00,3.5526
715.00,3.6378
714.00,3.7392
713.00,3.7793
712.00,3.7548
711.00,3.7274
710.00,3.7304
709.00,3.7588
708.00,3.7934
707.00,3.8104
706.00,3.7950
705.00,3.7706
704.00,3.7865
703.00,3.8621
702.00,3.9417
701.00,3.9151
700.00,3.7941
