Created as New Dataset,Sample 038 By Administrator Date Wednesday, November 24 2021
cm-1,A
7502.00,0.5897
7501.00,0.5988
7500.00,0.6084
7499.00,0.6180
7498.00,0.6272
7497.00,0.6365
7496.00,0.6459
7495.00,0.6555
7494.00,0.6648
7493.00,0.6737
7492.00,0.6825
7491.00,0.6913
7490.00,0.7004
7489.00,0.7098
7488.00,0.7195
7487.00,0.7294
7486.00,0.7388
7485.00,0.7476
7484.00,0.7555
7483.00,0.7630
7482.00,0.7704
7481.00,0.7776
7480.00,0.7847
7479.00,0.7918
7478.00,0.7991
7477.00,0.8067
7476.00,0.8140
7475.00,0.8205
7474.00,0.8262
7473.00,0.8315
7472.00,0.8367
7471.00,0.8418
7470.00,0.8464
7469.00,0.8506
7468.00,0.8542
7467.00,0.8571
7466.00,0.8598
7465.00,0.8626
7464.00,0.8655
7463.00,0.8678
7462.00,0.8692
7461.00,0.8704
7460.00,0.8720
7459.00,0.8742
7458.00,0.8760
7457.00,0.8769
7456.00,0.8769
7455.00,0.8764
7454.00,0.8755
7453.00,0.8742
7452.00,0.8724
7451.00,0.8701
7450.00,0.8673
7449.00,0.8639
7448.00,0.8603
7447.00,0.8570
7446.00,0.8542
7445.00,0.8513
7444.00,0.8478
7443.00,0.8436
7442.00,0.8389
7441.00,0.8343
7440.00,0.8296
7439.00,0.8242
7438.00,0.8176
7437.00,0.8100
7436.00,0.8020
7435.00,0.7942
7434.00,0.7868
7433.00,0.7796
7432.00,0.7721
7431.00,0.7645
7430.00,0.7570
7429.00,0.7504
7428.00,0.7448
7427.00,0.7400
7426.00,0.7355
7425.00,0.7306
7424.00,0.7252
7423.00,0.7193
7422.00,0.7133
7421.00,0.7073
7420.00,0.7007
7419.00,0.6930
7418.00,0.6844
7417.00,0.6755
7416.00,0.6672
7415.00,0.6596
7414.00,0.6523
7413.00,0.6450
7412.00,0.6377
7411.00,0.6310
7410.00,0.6254
7409.00,0.6211
7408.00,0.6172
7407.00,0.6131
7406.00,0.6090
7405.00,0.6052
7404.00,0.6020
7403.00,0.5988
7402.00,0.5953
7401.00,0.5914
7400.00,0.5877
7399.00,0.5842
7398.00,0.5808
7397.00,0.5778
7396.00,0.5751
7395.00,0.5729
7394.00,0.5710
7393.00,0.5693
7392.00,0.5680
7391.00,0.5670
7390.00,0.5664
7389.00,0.5660
7388.00,0.5658
7387.00,0.5662
7386.00,0.5672
7385.00,0.5691
7384.00,0.5717
7383.00,0.5748
7382.00,0.5782
7381.00,0.5818
7380.00,0.5856
7379.00,0.5898
7378.00,0.5942
7377.00,0.5986
7376.00,0.6032
7375.00,0.6079
7374.00,0.6130
7373.00,0.6186
7372.00,0.6246
7371.00,0.6310
7370.00,0.6377
7369.00,0.6451
7368.00,0.6529
7367.00,0.6608
7366.00,0.6685
7365.00,0.6763
7364.00,0.6845
7363.00,0.6933
7362.00,0.7025
7361.00,0.7118
7360.00,0.7208
7359.00,0.7295
7358.00,0.7383
7357.00,0.7477
7356.00,0.7575
7355.00,0.7674
7354.00,0.7769
7353.00,0.7859
7352.00,0.7949
7351.00,0.8041
7350.00,0.8133
7349.00,0.8222
7348.00,0.8306
7347.00,0.8388
7346.00,0.8472
7345.00,0.8563
7344.00,0.8659
7343.00,0.8758
7342.00,0.8857
7341.00,0.8951
7340.00,0.9036
7339.00,0.9108
7338.00,0.9171
7337.00,0.9233
7336.00,0.9294
7335.00,0.9355
7334.00,0.9415
7333.00,0.9479
7332.00,0.9548
7331.00,0.9621
7330.00,0.9690
7329.00,0.9748
7328.00,0.9791
7327.00,0.9824
7326.00,0.9856
7325.00,0.9893
7324.00,0.9938
7323.00,0.9985
7322.00,1.0027
7321.00,1.0064
7320.00,1.0096
7319.00,1.0127
7318.00,1.0158
7317.00,1.0188
7316.00,1.0217
7315.00,1.0245
7314.00,1.0271
7313.00,1.0293
7312.00,1.0305
7311.00,1.0305
7310.00,1.0295
7309.00,1.0276
7308.00,1.0253
7307.00,1.0234
7306.00,1.0222
7305.00,1.0217
7304.00,1.0210
7303.00,1.0194
7302.00,1.0171
7301.00,1.0142
7300.00,1.0107
7299.00,1.0063
7298.00,1.0011
7297.00,0.9960
7296.00,0.9913
7295.00,0.9873
7294.00,0.9832
7293.00,0.9785
7292.00,0.9730
7291.00,0.9666
7290.00,0.9595
7289.00,0.9523
7288.00,0.9454
7287.00,0.9387
7286.00,0.9319
7285.00,0.9250
7284.00,0.9180
7283.00,0.9111
7282.00,0.9039
7281.00,0.8963
7280.00,0.8880
7279.00,0.8794
7278.00,0.8711
7277.00,0.8636
7276.00,0.8562
7275.00,0.8484
7274.00,0.8400
7273.00,0.8313
7272.00,0.8225
7271.00,0.8135
7270.00,0.8043
7269.00,0.7952
7268.00,0.7866
7267.00,0.7785
7266.00,0.7708
7265.00,0.7635
7264.00,0.7564
7263.00,0.7496
7262.00,0.7430
7261.00,0.7363
7260.00,0.7295
7259.00,0.7228
7258.00,0.7164
7257.00,0.7104
7256.00,0.7049
7255.00,0.7001
7254.00,0.6959
7253.00,0.6924
7252.00,0.6892
7251.00,0.6864
7250.00,0.6842
7249.00,0.6824
7248.00,0.6808
7247.00,0.6794
7246.00,0.6784
7245.00,0.6780
7244.00,0.6781
7243.00,0.6783
7242.00,0.6784
7241.00,0.6790
7240.00,0.6804
7239.00,0.6824
7238.00,0.6847
7237.00,0.6873
7236.00,0.6907
7235.00,0.6951
7234.00,0.7001
7233.00,0.7052
7232.00,0.7102
7231.00,0.7154
7230.00,0.7210
7229.00,0.7273
7228.00,0.7341
7227.00,0.7412
7226.00,0.7484
7225.00,0.7555
7224.00,0.7627
7223.00,0.7699
7222.00,0.7774
7221.00,0.7852
7220.00,0.7932
7219.00,0.8014
7218.00,0.8099
7217.00,0.8189
7216.00,0.8280
7215.00,0.8371
7214.00,0.8459
7213.00,0.8545
7212.00,0.8633
7211.00,0.8721
7210.00,0.8808
7209.00,0.8892
7208.00,0.8974
7207.00,0.9054
7206.00,0.9135
7205.00,0.9216
7204.00,0.9301
7203.00,0.9388
7202.00,0.9473
7201.00,0.9553
7200.00,0.9627
7199.00,0.9700
7198.00,0.9774
7197.00,0.9845
7196.00,0.9909
7195.00,0.9967
7194.00,1.0029
7193.00,1.0098
7192.00,1.0168
7191.00,1.0231
7190.00,1.0286
7189.00,1.0338
7188.00,1.0390
7187.00,1.0441
7186.00,1.0489
7185.00,1.0529
7184.00,1.0562
7183.00,1.0590
7182.00,1.0618
7181.00,1.0646
7180.00,1.0671
7179.00,1.0691
7178.00,1.0709
7177.00,1.0730
7176.00,1.0753
7175.00,1.0775
7174.00,1.0791
7173.00,1.0796
7172.00,1.0789
7171.00,1.0776
7170.00,1.0762
7169.00,1.0750
7168.00,1.0734
7167.00,1.0712
7166.00,1.0685
7165.00,1.0656
7164.00,1.0627
7163.00,1.0597
7162.00,1.0565
7161.00,1.0532
7160.00,1.0492
7159.00,1.0445
7158.00,1.0395
7157.00,1.0346
7156.00,1.0298
7155.00,1.0251
7154.00,1.0202
7153.00,1.0151
7152.00,1.0096
7151.00,1.0038
7150.00,0.9975
7149.00,0.9908
7148.00,0.9838
7147.00,0.9764
7146.00,0.9689
7145.00,0.9616
7144.00,0.9545
7143.00,0.9475
7142.00,0.9404
7141.00,0.9331
7140.00,0.9252
7139.00,0.9166
7138.00,0.9078
7137.00,0.8994
7136.00,0.8914
7135.00,0.8837
7134.00,0.8758
7133.00,0.8679
7132.00,0.8598
7131.00,0.8517
7130.00,0.8435
7129.00,0.8352
7128.00,0.8269
7127.00,0.8185
7126.00,0.8104
7125.00,0.8026
7124.00,0.7951
7123.00,0.7876
7122.00,0.7800
7121.00,0.7725
7120.00,0.7655
7119.00,0.7592
7118.00,0.7534
7117.00,0.7478
7116.00,0.7421
7115.00,0.7363
7114.00,0.7310
7113.00,0.7264
7112.00,0.7224
7111.00,0.7188
7110.00,0.7155
7109.00,0.7127
7108.00,0.7106
7107.00,0.7090
7106.00,0.7075
7105.00,0.7060
7104.00,0.7046
7103.00,0.7036
7102.00,0.7032
7101.00,0.7035
7100.00,0.7045
7099.00,0.7060
7098.00,0.7082
7097.00,0.7110
7096.00,0.7145
7095.00,0.7184
7094.00,0.7225
7093.00,0.7267
7092.00,0.7312
7091.00,0.7360
7090.00,0.7414
7089.00,0.7470
7088.00,0.7526
7087.00,0.7582
7086.00,0.7642
7085.00,0.7708
7084.00,0.7781
7083.00,0.7857
7082.00,0.7936
7081.00,0.8018
7080.00,0.8104
7079.00,0.8188
7078.00,0.8270
7077.00,0.8351
7076.00,0.8434
7075.00,0.8520
7074.00,0.8610
7073.00,0.8701
7072.00,0.8792
7071.00,0.8882
7070.00,0.8972
7069.00,0.9061
7068.00,0.9149
7067.00,0.9237
7066.00,0.9326
7065.00,0.9419
7064.00,0.9512
7063.00,0.9599
7062.00,0.9679
7061.00,0.9758
7060.00,0.9837
7059.00,0.9918
7058.00,0.9998
7057.00,1.0081
7056.00,1.0166
7055.00,1.0252
7054.00,1.0333
7053.00,1.0406
7052.00,1.0474
7051.00,1.0539
7050.00,1.0605
7049.00,1.0672
7048.00,1.0737
7047.00,1.0801
7046.00,1.0862
7045.00,1.0921
7044.00,1.0974
7043.00,1.1015
7042.00,1.1045
7041.00,1.1070
7040.00,1.1099
7039.00,1.1132
7038.00,1.1168
7037.00,1.1203
7036.00,1.1236
7035.00,1.1262
7034.00,1.1284
7033.00,1.1301
7032.00,1.1316
7031.00,1.1327
7030.00,1.1334
7029.00,1.1340
7028.00,1.1346
7027.00,1.1352
7026.00,1.1351
7025.00,1.1341
7024.00,1.1325
7023.00,1.1308
7022.00,1.1292
7021.00,1.1279
7020.00,1.1265
7019.00,1.1249
7018.00,1.1228
7017.00,1.1202
7016.00,1.1168
7015.00,1.1127
7014.00,1.1081
7013.00,1.1032
7012.00,1.0982
7011.00,1.0928
7010.00,1.0869
7009.00,1.0809
7008.00,1.0747
7007.00,1.0684
7006.00,1.0617
7005.00,1.0546
7004.00,1.0472
7003.00,1.0399
7002.00,1.0324
7001.00,1.0248
7000.00,1.0168
6999.00,1.0085
6998.00,1.0001
6997.00,0.9917
6996.00,0.9832
6995.00,0.9744
6994.00,0.9653
6993.00,0.9563
6992.00,0.9474
6991.00,0.9385
6990.00,0.9294
6989.00,0.9202
6988.00,0.9111
6987.00,0.9021
6986.00,0.8932
6985.00,0.8842
6984.00,0.8753
6983.00,0.8665
6982.00,0.8576
6981.00,0.8490
6980.00,0.8406
6979.00,0.8327
6978.00,0.8251
6977.00,0.8176
6976.00,0.8103
6975.00,0.8033
6974.00,0.7967
6973.00,0.7903
6972.00,0.7840
6971.00,0.7780
6970.00,0.7726
6969.00,0.7678
6968.00,0.7635
6967.00,0.7596
6966.00,0.7563
6965.00,0.7535
6964.00,0.7511
6963.00,0.7490
6962.00,0.7475
6961.00,0.7464
6960.00,0.7459
6959.00,0.7459
6958.00,0.7466
6957.00,0.7480
6956.00,0.7500
6955.00,0.7523
6954.00,0.7550
6953.00,0.7583
6952.00,0.7620
6951.00,0.7658
6950.00,0.7700
6949.00,0.7748
6948.00,0.7800
6947.00,0.7855
6946.00,0.7912
6945.00,0.7970
6944.00,0.8033
6943.00,0.8101
6942.00,0.8171
6941.00,0.8246
6940.00,0.8326
6939.00,0.8408
6938.00,0.8491
6937.00,0.8574
6936.00,0.8656
6935.00,0.8740
6934.00,0.8823
6933.00,0.8908
6932.00,0.8993
6931.00,0.9080
6930.00,0.9170
6929.00,0.9259
6928.00,0.9348
6927.00,0.9437
6926.00,0.9527
6925.00,0.9617
6924.00,0.9705
6923.00,0.9793
6922.00,0.9881
6921.00,0.9969
6920.00,1.0054
6919.00,1.0138
6918.00,1.0221
6917.00,1.0303
6916.00,1.0384
6915.00,1.0459
6914.00,1.0529
6913.00,1.0598
6912.00,1.0669
6911.00,1.0740
6910.00,1.0806
6909.00,1.0868
6908.00,1.0926
6907.00,1.0981
6906.00,1.1030
6905.00,1.1073
6904.00,1.1112
6903.00,1.1149
6902.00,1.1187
6901.00,1.1222
6900.00,1.1256
6899.00,1.1289
6898.00,1.1326
6897.00,1.1366
6896.00,1.1404
6895.00,1.1435
6894.00,1.1462
6893.00,1.1483
6892.00,1.1498
6891.00,1.1508
6890.00,1.1511
6889.00,1.1511
6888.00,1.1510
6887.00,1.1507
6886.00,1.1504
6885.00,1.1499
6884.00,1.1486
6883.00,1.1462
6882.00,1.1433
6881.00,1.1407
6880.00,1.1383
6879.00,1.1358
6878.00,1.1326
6877.00,1.1290
6876.00,1.1251
6875.00,1.1207
6874.00,1.1157
6873.00,1.1100
6872.00,1.1040
6871.00,1.0980
6870.00,1.0921
6869.00,1.0860
6868.00,1.0796
6867.00,1.0725
6866.00,1.0648
6865.00,1.0567
6864.00,1.0487
6863.00,1.0408
6862.00,1.0329
6861.00,1.0250
6860.00,1.0171
6859.00,1.0089
6858.00,1.0003
6857.00,0.9914
6856.00,0.9820
6855.00,0.9726
6854.00,0.9632
6853.00,0.9539
6852.00,0.9446
6851.00,0.9351
6850.00,0.9256
6849.00,0.9163
6848.00,0.9072
6847.00,0.8981
6846.00,0.8889
6845.00,0.8799
6844.00,0.8713
6843.00,0.8628
6842.00,0.8542
6841.00,0.8455
6840.00,0.8370
6839.00,0.8289
6838.00,0.8211
6837.00,0.8137
6836.00,0.8065
6835.00,0.7995
6834.00,0.7929
6833.00,0.7867
6832.00,0.7808
6831.00,0.7753
6830.00,0.7700
6829.00,0.7652
6828.00,0.7608
6827.00,0.7567
6826.00,0.7530
6825.00,0.7498
6824.00,0.7471
6823.00,0.7449
6822.00,0.7431
6821.00,0.7417
6820.00,0.7407
6819.00,0.7402
6818.00,0.7400
6817.00,0.7403
6816.00,0.7413
6815.00,0.7429
6814.00,0.7452
6813.00,0.7479
6812.00,0.7509
6811.00,0.7543
6810.00,0.7580
6809.00,0.7621
6808.00,0.7665
6807.00,0.7714
6806.00,0.7769
6805.00,0.7828
6804.00,0.7891
6803.00,0.7957
6802.00,0.8026
6801.00,0.8098
6800.00,0.8173
6799.00,0.8252
6798.00,0.8335
6797.00,0.8421
6796.00,0.8508
6795.00,0.8594
6794.00,0.8680
6793.00,0.8769
6792.00,0.8859
6791.00,0.8949
6790.00,0.9038
6789.00,0.9129
6788.00,0.9221
6787.00,0.9314
6786.00,0.9406
6785.00,0.9498
6784.00,0.9590
6783.00,0.9683
6782.00,0.9776
6781.00,0.9870
6780.00,0.9962
6779.00,1.0051
6778.00,1.0140
6777.00,1.0231
6776.00,1.0323
6775.00,1.0413
6774.00,1.0503
6773.00,1.0591
6772.00,1.0676
6771.00,1.0755
6770.00,1.0825
6769.00,1.0889
6768.00,1.0953
6767.00,1.1019
6766.00,1.1087
6765.00,1.1156
6764.00,1.1223
6763.00,1.1287
6762.00,1.1346
6761.00,1.1400
6760.00,1.1449
6759.00,1.1492
6758.00,1.1531
6757.00,1.1569
6756.00,1.1608
6755.00,1.1645
6754.00,1.1679
6753.00,1.1709
6752.00,1.1739
6751.00,1.1769
6750.00,1.1795
6749.00,1.1814
6748.00,1.1827
6747.00,1.1837
6746.00,1.1845
6745.00,1.1850
6744.00,1.1850
6743.00,1.1846
6742.00,1.1840
6741.00,1.1832
6740.00,1.1823
6739.00,1.1808
6738.00,1.1787
6737.00,1.1764
6736.00,1.1742
6735.00,1.1718
6734.00,1.1692
6733.00,1.1658
6732.00,1.1615
6731.00,1.1566
6730.00,1.1514
6729.00,1.1461
6728.00,1.1409
6727.00,1.1355
6726.00,1.1298
6725.00,1.1240
6724.00,1.1180
6723.00,1.1117
6722.00,1.1047
6721.00,1.0971
6720.00,1.0892
6719.00,1.0813
6718.00,1.0734
6717.00,1.0652
6716.00,1.0566
6715.00,1.0477
6714.00,1.0387
6713.00,1.0296
6712.00,1.0203
6711.00,1.0108
6710.00,1.0013
6709.00,0.9917
6708.00,0.9820
6707.00,0.9723
6706.00,0.9625
6705.00,0.9527
6704.00,0.9429
6703.00,0.9332
6702.00,0.9235
6701.00,0.9139
6700.00,0.9044
6699.00,0.8949
6698.00,0.8854
6697.00,0.8761
6696.00,0.8671
6695.00,0.8583
6694.00,0.8497
6693.00,0.8414
6692.00,0.8335
6691.00,0.8258
6690.00,0.8184
6689.00,0.8115
6688.00,0.8051
6687.00,0.7991
6686.00,0.7935
6685.00,0.7886
6684.00,0.7841
6683.00,0.7800
6682.00,0.7762
6681.00,0.7728
6680.00,0.7699
6679.00,0.7675
6678.00,0.7656
6677.00,0.7642
6676.00,0.7633
6675.00,0.7631
6674.00,0.7636
6673.00,0.7647
6672.00,0.7663
6671.00,0.7683
6670.00,0.7708
6669.00,0.7739
6668.00,0.7776
6667.00,0.7817
6666.00,0.7862
6665.00,0.7911
6664.00,0.7966
6663.00,0.8025
6662.00,0.8087
6661.00,0.8153
6660.00,0.8223
6659.00,0.8296
6658.00,0.8373
6657.00,0.8450
6656.00,0.8529
6655.00,0.8610
6654.00,0.8694
6653.00,0.8781
6652.00,0.8871
6651.00,0.8962
6650.00,0.9055
6649.00,0.9148
6648.00,0.9241
6647.00,0.9334
6646.00,0.9426
6645.00,0.9518
6644.00,0.9611
6643.00,0.9704
6642.00,0.9797
6641.00,0.9890
6640.00,0.9981
6639.00,1.0071
6638.00,1.0161
6637.00,1.0252
6636.00,1.0343
6635.00,1.0431
6634.00,1.0514
6633.00,1.0592
6632.00,1.0666
6631.00,1.0740
6630.00,1.0813
6629.00,1.0885
6628.00,1.0956
6627.00,1.1028
6626.00,1.1102
6625.00,1.1174
6624.00,1.1243
6623.00,1.1306
6622.00,1.1364
6621.00,1.1418
6620.00,1.1468
6619.00,1.1515
6618.00,1.1558
6617.00,1.1597
6616.00,1.1632
6615.00,1.1666
6614.00,1.1699
6613.00,1.1731
6612.00,1.1760
6611.00,1.1787
6610.00,1.1811
6609.00,1.1831
6608.00,1.1845
6607.00,1.1854
6606.00,1.1856
6605.00,1.1850
6604.00,1.1837
6603.00,1.1823
6602.00,1.1809
6601.00,1.1796
6600.00,1.1782
6599.00,1.1767
6598.00,1.1751
6597.00,1.1729
6596.00,1.1698
6595.00,1.1661
6594.00,1.1621
6593.00,1.1577
6592.00,1.1531
6591.00,1.1483
6590.00,1.1438
6589.00,1.1393
6588.00,1.1342
6587.00,1.1282
6586.00,1.1217
6585.00,1.1151
6584.00,1.1084
6583.00,1.1014
6582.00,1.0941
6581.00,1.0866
6580.00,1.0789
6579.00,1.0707
6578.00,1.0621
6577.00,1.0530
6576.00,1.0436
6575.00,1.0342
6574.00,1.0248
6573.00,1.0158
6572.00,1.0067
6571.00,0.9975
6570.00,0.9882
6569.00,0.9787
6568.00,0.9692
6567.00,0.9594
6566.00,0.9494
6565.00,0.9394
6564.00,0.9295
6563.00,0.9197
6562.00,0.9099
6561.00,0.9004
6560.00,0.8912
6559.00,0.8821
6558.00,0.8730
6557.00,0.8642
6556.00,0.8555
6555.00,0.8470
6554.00,0.8385
6553.00,0.8301
6552.00,0.8219
6551.00,0.8139
6550.00,0.8063
6549.00,0.7993
6548.00,0.7929
6547.00,0.7869
6546.00,0.7812
6545.00,0.7757
6544.00,0.7705
6543.00,0.7655
6542.00,0.7610
6541.00,0.7570
6540.00,0.7535
6539.00,0.7507
6538.00,0.7485
6537.00,0.7469
6536.00,0.7457
6535.00,0.7448
6534.00,0.7445
6533.00,0.7447
6532.00,0.7455
6531.00,0.7468
6530.00,0.7487
6529.00,0.7511
6528.00,0.7539
6527.00,0.7572
6526.00,0.7611
6525.00,0.7655
6524.00,0.7706
6523.00,0.7761
6522.00,0.7820
6521.00,0.7885
6520.00,0.7953
6519.00,0.8022
6518.00,0.8094
6517.00,0.8170
6516.00,0.8248
6515.00,0.8328
6514.00,0.8412
6513.00,0.8499
6512.00,0.8589
6511.00,0.8680
6510.00,0.8772
6509.00,0.8865
6508.00,0.8959
6507.00,0.9055
6506.00,0.9150
6505.00,0.9246
6504.00,0.9344
6503.00,0.9445
6502.00,0.9548
6501.00,0.9651
6500.00,0.9752
6499.00,0.9851
6498.00,0.9948
6497.00,1.0045
6496.00,1.0140
6495.00,1.0232
6494.00,1.0323
6493.00,1.0415
6492.00,1.0505
6491.00,1.0591
6490.00,1.0673
6489.00,1.0755
6488.00,1.0837
6487.00,1.0919
6486.00,1.0998
6485.00,1.1077
6484.00,1.1155
6483.00,1.1230
6482.00,1.1301
6481.00,1.1368
6480.00,1.1429
6479.00,1.1487
6478.00,1.1542
6477.00,1.1595
6476.00,1.1649
6475.00,1.1699
6474.00,1.1746
6473.00,1.1789
6472.00,1.1827
6471.00,1.1860
6470.00,1.1890
6469.00,1.1916
6468.00,1.1939
6467.00,1.1960
6466.00,1.1982
6465.00,1.2003
6464.00,1.2021
6463.00,1.2033
6462.00,1.2040
6461.00,1.2044
6460.00,1.2046
6459.00,1.2043
6458.00,1.2035
6457.00,1.2020
6456.00,1.2000
6455.00,1.1977
6454.00,1.1955
6453.00,1.1931
6452.00,1.1904
6451.00,1.1872
6450.00,1.1837
6449.00,1.1801
6448.00,1.1765
6447.00,1.1725
6446.00,1.1680
6445.00,1.1628
6444.00,1.1571
6443.00,1.1513
6442.00,1.1452
6441.00,1.1386
6440.00,1.1315
6439.00,1.1241
6438.00,1.1166
6437.00,1.1089
6436.00,1.1008
6435.00,1.0923
6434.00,1.0834
6433.00,1.0744
6432.00,1.0652
6431.00,1.0556
6430.00,1.0458
6429.00,1.0357
6428.00,1.0257
6427.00,1.0156
6426.00,1.0054
6425.00,0.9950
6424.00,0.9844
6423.00,0.9738
6422.00,0.9633
6421.00,0.9529
6420.00,0.9423
6419.00,0.9318
6418.00,0.9214
6417.00,0.9111
6416.00,0.9008
6415.00,0.8905
6414.00,0.8804
6413.00,0.8708
6412.00,0.8612
6411.00,0.8517
6410.00,0.8423
6409.00,0.8333
6408.00,0.8246
6407.00,0.8164
6406.00,0.8086
6405.00,0.8013
6404.00,0.7945
6403.00,0.7879
6402.00,0.7817
6401.00,0.7760
6400.00,0.7708
6399.00,0.7662
6398.00,0.7621
6397.00,0.7586
6396.00,0.7555
6395.00,0.7530
6394.00,0.7511
6393.00,0.7498
6392.00,0.7493
6391.00,0.7494
6390.00,0.7501
6389.00,0.7514
6388.00,0.7530
6387.00,0.7551
6386.00,0.7578
6385.00,0.7611
6384.00,0.7649
6383.00,0.7694
6382.00,0.7744
6381.00,0.7799
6380.00,0.7858
6379.00,0.7918
6378.00,0.7983
6377.00,0.8051
6376.00,0.8123
6375.00,0.8199
6374.00,0.8279
6373.00,0.8363
6372.00,0.8452
6371.00,0.8543
6370.00,0.8636
6369.00,0.8729
6368.00,0.8823
6367.00,0.8919
6366.00,0.9015
6365.00,0.9111
6364.00,0.9206
6363.00,0.9300
6362.00,0.9397
6361.00,0.9494
6360.00,0.9591
6359.00,0.9688
6358.00,0.9786
6357.00,0.9887
6356.00,0.9987
6355.00,1.0083
6354.00,1.0177
6353.00,1.0270
6352.00,1.0361
6351.00,1.0450
6350.00,1.0537
6349.00,1.0622
6348.00,1.0706
6347.00,1.0787
6346.00,1.0867
6345.00,1.0944
6344.00,1.1019
6343.00,1.1091
6342.00,1.1162
6341.00,1.1232
6340.00,1.1301
6339.00,1.1367
6338.00,1.1431
6337.00,1.1493
6336.00,1.1551
6335.00,1.1606
6334.00,1.1657
6333.00,1.1707
6332.00,1.1753
6331.00,1.1796
6330.00,1.1836
6329.00,1.1872
6328.00,1.1901
6327.00,1.1925
6326.00,1.1945
6325.00,1.1961
6324.00,1.1973
6323.00,1.1981
6322.00,1.1986
6321.00,1.1989
6320.00,1.1988
6319.00,1.1983
6318.00,1.1975
6317.00,1.1964
6316.00,1.1949
6315.00,1.1930
6314.00,1.1906
6313.00,1.1877
6312.00,1.1843
6311.00,1.1804
6310.00,1.1764
6309.00,1.1723
6308.00,1.1681
6307.00,1.1635
6306.00,1.1585
6305.00,1.1534
6304.00,1.1478
6303.00,1.1416
6302.00,1.1349
6301.00,1.1279
6300.00,1.1208
6299.00,1.1136
6298.00,1.1061
6297.00,1.0982
6296.00,1.0898
6295.00,1.0812
6294.00,1.0723
6293.00,1.0633
6292.00,1.0538
6291.00,1.0441
6290.00,1.0342
6289.00,1.0243
6288.00,1.0144
6287.00,1.0043
6286.00,0.9939
6285.00,0.9835
6284.00,0.9731
6283.00,0.9627
6282.00,0.9521
6281.00,0.9414
6280.00,0.9305
6279.00,0.9198
6278.00,0.9092
6277.00,0.8988
6276.00,0.8884
6275.00,0.8779
6274.00,0.8678
6273.00,0.8580
6272.00,0.8485
6271.00,0.8391
6270.00,0.8298
6269.00,0.8206
6268.00,0.8117
6267.00,0.8029
6266.00,0.7945
6265.00,0.7864
6264.00,0.7787
6263.00,0.7714
6262.00,0.7646
6261.00,0.7582
6260.00,0.7523
6259.00,0.7467
6258.00,0.7418
6257.00,0.7377
6256.00,0.7340
6255.00,0.7308
6254.00,0.7282
6253.00,0.7263
6252.00,0.7249
6251.00,0.7238
6250.00,0.7232
6249.00,0.7234
6248.00,0.7242
6247.00,0.7257
6246.00,0.7277
6245.00,0.7303
6244.00,0.7336
6243.00,0.7375
6242.00,0.7418
6241.00,0.7465
6240.00,0.7517
6239.00,0.7572
6238.00,0.7633
6237.00,0.7700
6236.00,0.7772
6235.00,0.7848
6234.00,0.7926
6233.00,0.8007
6232.00,0.8092
6231.00,0.8181
6230.00,0.8272
6229.00,0.8366
6228.00,0.8462
6227.00,0.8560
6226.00,0.8658
6225.00,0.8757
6224.00,0.8856
6223.00,0.8957
6222.00,0.9058
6221.00,0.9162
6220.00,0.9267
6219.00,0.9371
6218.00,0.9475
6217.00,0.9578
6216.00,0.9680
6215.00,0.9783
6214.00,0.9886
6213.00,0.9989
6212.00,1.0090
6211.00,1.0188
6210.00,1.0284
6209.00,1.0379
6208.00,1.0474
6207.00,1.0568
6206.00,1.0662
6205.00,1.0754
6204.00,1.0840
6203.00,1.0920
6202.00,1.0997
6201.00,1.1072
6200.00,1.1146
6199.00,1.1217
6198.00,1.1287
6197.00,1.1358
6196.00,1.1426
6195.00,1.1488
6194.00,1.1543
6193.00,1.1597
6192.00,1.1651
6191.00,1.1701
6190.00,1.1747
6189.00,1.1787
6188.00,1.1823
6187.00,1.1857
6186.00,1.1890
6185.00,1.1920
6184.00,1.1950
6183.00,1.1977
6182.00,1.2001
6181.00,1.2020
6180.00,1.2031
6179.00,1.2038
6178.00,1.2043
6177.00,1.2044
6176.00,1.2040
6175.00,1.2030
6174.00,1.2019
6173.00,1.2007
6172.00,1.1991
6171.00,1.1971
6170.00,1.1949
6169.00,1.1928
6168.00,1.1905
6167.00,1.1876
6166.00,1.1841
6165.00,1.1801
6164.00,1.1756
6163.00,1.1705
6162.00,1.1648
6161.00,1.1588
6160.00,1.1524
6159.00,1.1459
6158.00,1.1393
6157.00,1.1326
6156.00,1.1255
6155.00,1.1179
6154.00,1.1099
6153.00,1.1017
6152.00,1.0934
6151.00,1.0847
6150.00,1.0755
6149.00,1.0659
6148.00,1.0560
6147.00,1.0457
6146.00,1.0351
6145.00,1.0243
6144.00,1.0134
6143.00,1.0026
6142.00,0.9919
6141.00,0.9811
6140.00,0.9702
6139.00,0.9589
6138.00,0.9474
6137.00,0.9358
6136.00,0.9242
6135.00,0.9125
6134.00,0.9009
6133.00,0.8895
6132.00,0.8783
6131.00,0.8673
6130.00,0.8566
6129.00,0.8461
6128.00,0.8358
6127.00,0.8259
6126.00,0.8163
6125.00,0.8069
6124.00,0.7977
6123.00,0.7888
6122.00,0.7803
6121.00,0.7721
6120.00,0.7643
6119.00,0.7569
6118.00,0.7501
6117.00,0.7440
6116.00,0.7384
6115.00,0.7335
6114.00,0.7291
6113.00,0.7253
6112.00,0.7221
6111.00,0.7195
6110.00,0.7175
6109.00,0.7163
6108.00,0.7157
6107.00,0.7158
6106.00,0.7165
6105.00,0.7178
6104.00,0.7198
6103.00,0.7223
6102.00,0.7255
6101.00,0.7295
6100.00,0.7340
6099.00,0.7390
6098.00,0.7444
6097.00,0.7504
6096.00,0.7568
6095.00,0.7638
6094.00,0.7712
6093.00,0.7791
6092.00,0.7873
6091.00,0.7958
6090.00,0.8046
6089.00,0.8136
6088.00,0.8229
6087.00,0.8323
6086.00,0.8420
6085.00,0.8520
6084.00,0.8621
6083.00,0.8723
6082.00,0.8827
6081.00,0.8933
6080.00,0.9040
6079.00,0.9147
6078.00,0.9253
6077.00,0.9359
6076.00,0.9464
6075.00,0.9567
6074.00,0.9668
6073.00,0.9768
6072.00,0.9867
6071.00,0.9966
6070.00,1.0065
6069.00,1.0166
6068.00,1.0268
6067.00,1.0368
6066.00,1.0464
6065.00,1.0557
6064.00,1.0646
6063.00,1.0731
6062.00,1.0813
6061.00,1.0893
6060.00,1.0972
6059.00,1.1050
6058.00,1.1126
6057.00,1.1197
6056.00,1.1265
6055.00,1.1331
6054.00,1.1395
6053.00,1.1456
6052.00,1.1512
6051.00,1.1564
6050.00,1.1613
6049.00,1.1659
6048.00,1.1699
6047.00,1.1734
6046.00,1.1768
6045.00,1.1800
6044.00,1.1829
6043.00,1.1852
6042.00,1.1872
6041.00,1.1890
6040.00,1.1903
6039.00,1.1911
6038.00,1.1917
6037.00,1.1925
6036.00,1.1932
6035.00,1.1934
6034.00,1.1930
6033.00,1.1923
6032.00,1.1912
6031.00,1.1896
6030.00,1.1876
6029.00,1.1854
6028.00,1.1830
6027.00,1.1804
6026.00,1.1773
6025.00,1.1738
6024.00,1.1698
6023.00,1.1654
6022.00,1.1606
6021.00,1.1555
6020.00,1.1499
6019.00,1.1441
6018.00,1.1381
6017.00,1.1319
6016.00,1.1255
6015.00,1.1188
6014.00,1.1117
6013.00,1.1043
6012.00,1.0963
6011.00,1.0879
6010.00,1.0792
6009.00,1.0702
6008.00,1.0608
6007.00,1.0512
6006.00,1.0413
6005.00,1.0312
6004.00,1.0208
6003.00,1.0103
6002.00,0.9996
6001.00,0.9888
6000.00,0.9779
5999.00,0.9668
5998.00,0.9555
5997.00,0.9443
5996.00,0.9329
5995.00,0.9213
5994.00,0.9097
5993.00,0.8982
5992.00,0.8868
5991.00,0.8753
5990.00,0.8640
5989.00,0.8528
5988.00,0.8418
5987.00,0.8308
5986.00,0.8201
5985.00,0.8096
5984.00,0.7994
5983.00,0.7895
5982.00,0.7799
5981.00,0.7708
5980.00,0.7622
5979.00,0.7540
5978.00,0.7464
5977.00,0.7393
5976.00,0.7329
5975.00,0.7271
5974.00,0.7218
5973.00,0.7171
5972.00,0.7129
5971.00,0.7095
5970.00,0.7067
5969.00,0.7048
5968.00,0.7037
5967.00,0.7034
5966.00,0.7040
5965.00,0.7054
5964.00,0.7075
5963.00,0.7101
5962.00,0.7135
5961.00,0.7175
5960.00,0.7222
5959.00,0.7275
5958.00,0.7334
5957.00,0.7397
5956.00,0.7463
5955.00,0.7531
5954.00,0.7601
5953.00,0.7673
5952.00,0.7747
5951.00,0.7823
5950.00,0.7902
5949.00,0.7982
5948.00,0.8062
5947.00,0.8143
5946.00,0.8228
5945.00,0.8317
5944.00,0.8410
5943.00,0.8505
5942.00,0.8601
5941.00,0.8699
5940.00,0.8799
5939.00,0.8900
5938.00,0.9001
5937.00,0.9105
5936.00,0.9211
5935.00,0.9318
5934.00,0.9425
5933.00,0.9533
5932.00,0.9641
5931.00,0.9750
5930.00,0.9860
5929.00,0.9969
5928.00,1.0075
5927.00,1.0178
5926.00,1.0278
5925.00,1.0377
5924.00,1.0474
5923.00,1.0570
5922.00,1.0666
5921.00,1.0759
5920.00,1.0850
5919.00,1.0935
5918.00,1.1018
5917.00,1.1099
5916.00,1.1178
5915.00,1.1256
5914.00,1.1334
5913.00,1.1410
5912.00,1.1482
5911.00,1.1548
5910.00,1.1607
5909.00,1.1660
5908.00,1.1706
5907.00,1.1748
5906.00,1.1789
5905.00,1.1831
5904.00,1.1873
5903.00,1.1913
5902.00,1.1951
5901.00,1.1986
5900.00,1.2016
5899.00,1.2041
5898.00,1.2062
5897.00,1.2080
5896.00,1.2094
5895.00,1.2104
5894.00,1.2108
5893.00,1.2109
5892.00,1.2107
5891.00,1.2102
5890.00,1.2094
5889.00,1.2082
5888.00,1.2066
5887.00,1.2045
5886.00,1.2018
5885.00,1.1988
5884.00,1.1956
5883.00,1.1919
5882.00,1.1876
5881.00,1.1826
5880.00,1.1773
5879.00,1.1719
5878.00,1.1663
5877.00,1.1604
5876.00,1.1541
5875.00,1.1476
5874.00,1.1407
5873.00,1.1334
5872.00,1.1256
5871.00,1.1176
5870.00,1.1093
5869.00,1.1010
5868.00,1.0923
5867.00,1.0831
5866.00,1.0734
5865.00,1.0635
5864.00,1.0535
5863.00,1.0433
5862.00,1.0329
5861.00,1.0221
5860.00,1.0110
5859.00,0.9997
5858.00,0.9882
5857.00,0.9765
5856.00,0.9646
5855.00,0.9529
5854.00,0.9412
5853.00,0.9297
5852.00,0.9180
5851.00,0.9062
5850.00,0.8943
5849.00,0.8826
5848.00,0.8710
5847.00,0.8596
5846.00,0.8484
5845.00,0.8375
5844.00,0.8268
5843.00,0.8165
5842.00,0.8065
5841.00,0.7969
5840.00,0.7876
5839.00,0.7788
5838.00,0.7703
5837.00,0.7624
5836.00,0.7549
5835.00,0.7479
5834.00,0.7415
5833.00,0.7357
5832.00,0.7303
5831.00,0.7254
5830.00,0.7210
5829.00,0.7171
5828.00,0.7138
5827.00,0.7111
5826.00,0.7092
5825.00,0.7078
5824.00,0.7071
5823.00,0.7069
5822.00,0.7072
5821.00,0.7082
5820.00,0.7098
5819.00,0.7121
5818.00,0.7152
5817.00,0.7190
5816.00,0.7235
5815.00,0.7286
5814.00,0.7342
5813.00,0.7405
5812.00,0.7472
5811.00,0.7543
5810.00,0.7619
5809.00,0.7699
5808.00,0.7783
5807.00,0.7871
5806.00,0.7962
5805.00,0.8058
5804.00,0.8156
5803.00,0.8256
5802.00,0.8359
5801.00,0.8464
5800.00,0.8570
5799.00,0.8678
5798.00,0.8787
5797.00,0.8898
5796.00,0.9010
5795.00,0.9122
5794.00,0.9235
5793.00,0.9349
5792.00,0.9462
5791.00,0.9575
5790.00,0.9688
5789.00,0.9799
5788.00,0.9907
5787.00,1.0011
5786.00,1.0113
5785.00,1.0213
5784.00,1.0313
5783.00,1.0413
5782.00,1.0515
5781.00,1.0620
5780.00,1.0722
5779.00,1.0817
5778.00,1.0908
5777.00,1.0994
5776.00,1.1078
5775.00,1.1158
5774.00,1.1236
5773.00,1.1314
5772.00,1.1393
5771.00,1.1467
5770.00,1.1536
5769.00,1.1601
5768.00,1.1662
5767.00,1.1720
5766.00,1.1774
5765.00,1.1827
5764.00,1.1876
5763.00,1.1922
5762.00,1.1964
5761.00,1.2002
5760.00,1.2035
5759.00,1.2063
5758.00,1.2087
5757.00,1.2107
5756.00,1.2124
5755.00,1.2139
5754.00,1.2150
5753.00,1.2158
5752.00,1.2165
5751.00,1.2171
5750.00,1.2174
5749.00,1.2172
5748.00,1.2165
5747.00,1.2151
5746.00,1.2134
5745.00,1.2113
5744.00,1.2087
5743.00,1.2057
5742.00,1.2025
5741.00,1.1990
5740.00,1.1951
5739.00,1.1908
5738.00,1.1859
5737.00,1.1807
5736.00,1.1750
5735.00,1.1690
5734.00,1.1626
5733.00,1.1560
5732.00,1.1493
5731.00,1.1424
5730.00,1.1353
5729.00,1.1278
5728.00,1.1199
5727.00,1.1116
5726.00,1.1028
5725.00,1.0933
5724.00,1.0834
5723.00,1.0730
5722.00,1.0624
5721.00,1.0515
5720.00,1.0404
5719.00,1.0290
5718.00,1.0175
5717.00,1.0057
5716.00,0.9937
5715.00,0.9815
5714.00,0.9693
5713.00,0.9570
5712.00,0.9446
5711.00,0.9321
5710.00,0.9195
5709.00,0.9067
5708.00,0.8939
5707.00,0.8813
5706.00,0.8687
5705.00,0.8563
5704.00,0.8439
5703.00,0.8316
5702.00,0.8196
5701.00,0.8078
5700.00,0.7963
5699.00,0.7852
5698.00,0.7743
5697.00,0.7639
5696.00,0.7538
5695.00,0.7441
5694.00,0.7350
5693.00,0.7266
5692.00,0.7188
5691.00,0.7117
5690.00,0.7051
5689.00,0.6991
5688.00,0.6936
5687.00,0.6888
5686.00,0.6847
5685.00,0.6814
5684.00,0.6787
5683.00,0.6769
5682.00,0.6759
5681.00,0.6758
5680.00,0.6765
5679.00,0.6780
5678.00,0.6803
5677.00,0.6833
5676.00,0.6869
5675.00,0.6911
5674.00,0.6960
5673.00,0.7016
5672.00,0.7080
5671.00,0.7149
5670.00,0.7224
5669.00,0.7303
5668.00,0.7387
5667.00,0.7474
5666.00,0.7565
5665.00,0.7661
5664.00,0.7761
5663.00,0.7865
5662.00,0.7971
5661.00,0.8079
5660.00,0.8189
5659.00,0.8301
5658.00,0.8414
5657.00,0.8531
5656.00,0.8650
5655.00,0.8771
5654.00,0.8893
5653.00,0.9015
5652.00,0.9137
5651.00,0.9258
5650.00,0.9378
5649.00,0.9499
5648.00,0.9619
5647.00,0.9738
5646.00,0.9855
5645.00,0.9970
5644.00,1.0084
5643.00,1.0196
5642.00,1.0306
5641.00,1.0415
5640.00,1.0520
5639.00,1.0624
5638.00,1.0727
5637.00,1.0829
5636.00,1.0928
5635.00,1.1024
5634.00,1.1116
5633.00,1.1204
5632.00,1.1287
5631.00,1.1365
5630.00,1.1442
5629.00,1.1519
5628.00,1.1594
5627.00,1.1666
5626.00,1.1735
5625.00,1.1801
5624.00,1.1862
5623.00,1.1920
5622.00,1.1975
5621.00,1.2026
5620.00,1.2073
5619.00,1.2114
5618.00,1.2150
5617.00,1.2180
5616.00,1.2207
5615.00,1.2234
5614.00,1.2259
5613.00,1.2282
5612.00,1.2301
5611.00,1.2315
5610.00,1.2324
5609.00,1.2328
5608.00,1.2325
5607.00,1.2318
5606.00,1.2308
5605.00,1.2297
5604.00,1.2282
5603.00,1.2263
5602.00,1.2241
5601.00,1.2216
5600.00,1.2187
5599.00,1.2152
5598.00,1.2115
5597.00,1.2075
5596.00,1.2032
5595.00,1.1984
5594.00,1.1930
5593.00,1.1871
5592.00,1.1806
5591.00,1.1736
5590.00,1.1665
5589.00,1.1592
5588.00,1.1518
5587.00,1.1438
5586.00,1.1354
5585.00,1.1265
5584.00,1.1172
5583.00,1.1077
5582.00,1.0980
5581.00,1.0880
5580.00,1.0775
5579.00,1.0666
5578.00,1.0553
5577.00,1.0437
5576.00,1.0316
5575.00,1.0194
5574.00,1.0069
5573.00,0.9943
5572.00,0.9816
5571.00,0.9687
5570.00,0.9557
5569.00,0.9428
5568.00,0.9298
5567.00,0.9166
5566.00,0.9035
5565.00,0.8903
5564.00,0.8771
5563.00,0.8641
5562.00,0.8511
5561.00,0.8384
5560.00,0.8258
5559.00,0.8136
5558.00,0.8017
5557.00,0.7901
5556.00,0.7789
5555.00,0.7681
5554.00,0.7577
5553.00,0.7478
5552.00,0.7384
5551.00,0.7295
5550.00,0.7212
5549.00,0.7137
5548.00,0.7068
5547.00,0.7008
5546.00,0.6955
5545.00,0.6911
5544.00,0.6874
5543.00,0.6844
5542.00,0.6821
5541.00,0.6807
5540.00,0.6800
5539.00,0.6802
5538.00,0.6812
5537.00,0.6831
5536.00,0.6858
5535.00,0.6892
5534.00,0.6934
5533.00,0.6984
5532.00,0.7041
5531.00,0.7105
5530.00,0.7175
5529.00,0.7251
5528.00,0.7333
5527.00,0.7419
5526.00,0.7509
5525.00,0.7605
5524.00,0.7707
5523.00,0.7814
5522.00,0.7925
5521.00,0.8040
5520.00,0.8156
5519.00,0.8273
5518.00,0.8392
5517.00,0.8513
5516.00,0.8637
5515.00,0.8762
5514.00,0.8888
5513.00,0.9015
5512.00,0.9142
5511.00,0.9268
5510.00,0.9395
5509.00,0.9523
5508.00,0.9650
5507.00,0.9775
5506.00,0.9900
5505.00,1.0025
5504.00,1.0149
5503.00,1.0270
5502.00,1.0389
5501.00,1.0507
5500.00,1.0622
5499.00,1.0734
5498.00,1.0843
5497.00,1.0951
5496.00,1.1058
5495.00,1.1162
5494.00,1.1265
5493.00,1.1363
5492.00,1.1456
5491.00,1.1542
5490.00,1.1624
5489.00,1.1705
5488.00,1.1784
5487.00,1.1859
5486.00,1.1929
5485.00,1.1995
5484.00,1.2058
5483.00,1.2120
5482.00,1.2181
5481.00,1.2239
5480.00,1.2291
5479.00,1.2334
5478.00,1.2370
5477.00,1.2404
5476.00,1.2439
5475.00,1.2472
5474.00,1.2501
5473.00,1.2527
5472.00,1.2548
5471.00,1.2566
5470.00,1.2580
5469.00,1.2592
5468.00,1.2599
5467.00,1.2600
5466.00,1.2595
5465.00,1.2585
5464.00,1.2570
5463.00,1.2552
5462.00,1.2532
5461.00,1.2510
5460.00,1.2483
5459.00,1.2451
5458.00,1.2413
5457.00,1.2372
5456.00,1.2327
5455.00,1.2275
5454.00,1.2221
5453.00,1.2167
5452.00,1.2116
5451.00,1.2062
5450.00,1.2002
5449.00,1.1936
5448.00,1.1863
5447.00,1.1783
5446.00,1.1696
5445.00,1.1603
5444.00,1.1505
5443.00,1.1404
5442.00,1.1304
5441.00,1.1205
5440.00,1.1104
5439.00,1.0998
5438.00,1.0888
5437.00,1.0777
5436.00,1.0663
5435.00,1.0545
5434.00,1.0421
5433.00,1.0290
5432.00,1.0157
5431.00,1.0022
5430.00,0.9886
5429.00,0.9747
5428.00,0.9603
5427.00,0.9456
5426.00,0.9310
5425.00,0.9168
5424.00,0.9029
5423.00,0.8891
5422.00,0.8755
5421.00,0.8622
5420.00,0.8492
5419.00,0.8363
5418.00,0.8234
5417.00,0.8107
5416.00,0.7983
5415.00,0.7861
5414.00,0.7740
5413.00,0.7620
5412.00,0.7503
5411.00,0.7392
5410.00,0.7289
5409.00,0.7194
5408.00,0.7107
5407.00,0.7029
5406.00,0.6961
5405.00,0.6903
5404.00,0.6855
5403.00,0.6814
5402.00,0.6782
5401.00,0.6758
5400.00,0.6744
5399.00,0.6738
5398.00,0.6741
5397.00,0.6750
5396.00,0.6766
5395.00,0.6790
5394.00,0.6821
5393.00,0.6860
5392.00,0.6906
5391.00,0.6960
5390.00,0.7021
5389.00,0.7089
5388.00,0.7164
5387.00,0.7248
5386.00,0.7339
5385.00,0.7436
5384.00,0.7539
5383.00,0.7647
5382.00,0.7759
5381.00,0.7871
5380.00,0.7984
5379.00,0.8099
5378.00,0.8219
5377.00,0.8345
5376.00,0.8473
5375.00,0.8602
5374.00,0.8733
5373.00,0.8866
5372.00,0.8999
5371.00,0.9132
5370.00,0.9265
5369.00,0.9399
5368.00,0.9533
5367.00,0.9665
5366.00,0.9797
5365.00,0.9930
5364.00,1.0063
5363.00,1.0194
5362.00,1.0322
5361.00,1.0449
5360.00,1.0574
5359.00,1.0698
5358.00,1.0820
5357.00,1.0938
5356.00,1.1054
5355.00,1.1169
5354.00,1.1280
5353.00,1.1386
5352.00,1.1488
5351.00,1.1589
5350.00,1.1690
5349.00,1.1786
5348.00,1.1876
5347.00,1.1959
5346.00,1.2041
5345.00,1.2123
5344.00,1.2202
5343.00,1.2275
5342.00,1.2344
5341.00,1.2406
5340.00,1.2464
5339.00,1.2518
5338.00,1.2568
5337.00,1.2614
5336.00,1.2657
5335.00,1.2696
5334.00,1.2733
5333.00,1.2766
5332.00,1.2793
5331.00,1.2815
5330.00,1.2833
5329.00,1.2851
5328.00,1.2868
5327.00,1.2881
5326.00,1.2887
5325.00,1.2885
5324.00,1.2879
5323.00,1.2871
5322.00,1.2862
5321.00,1.2851
5320.00,1.2837
5319.00,1.2817
5318.00,1.2792
5317.00,1.2763
5316.00,1.2728
5315.00,1.2690
5314.00,1.2648
5313.00,1.2604
5312.00,1.2556
5311.00,1.2502
5310.00,1.2444
5309.00,1.2383
5308.00,1.2319
5307.00,1.2249
5306.00,1.2173
5305.00,1.2092
5304.00,1.2007
5303.00,1.1919
5302.00,1.1829
5301.00,1.1736
5300.00,1.1641
5299.00,1.1543
5298.00,1.1441
5297.00,1.1333
5296.00,1.1221
5295.00,1.1106
5294.00,1.0988
5293.00,1.0868
5292.00,1.0744
5291.00,1.0616
5290.00,1.0482
5289.00,1.0343
5288.00,1.0202
5287.00,1.0061
5286.00,0.9922
5285.00,0.9781
5284.00,0.9638
5283.00,0.9493
5282.00,0.9348
5281.00,0.9204
5280.00,0.9063
5279.00,0.8922
5278.00,0.8782
5277.00,0.8645
5276.00,0.8510
5275.00,0.8378
5274.00,0.8250
5273.00,0.8127
5272.00,0.8009
5271.00,0.7898
5270.00,0.7793
5269.00,0.7693
5268.00,0.7596
5267.00,0.7504
5266.00,0.7417
5265.00,0.7338
5264.00,0.7265
5263.00,0.7199
5262.00,0.7140
5261.00,0.7091
5260.00,0.7052
5259.00,0.7022
5258.00,0.7003
5257.00,0.6993
5256.00,0.6994
5255.00,0.7005
5254.00,0.7022
5253.00,0.7046
5252.00,0.7077
5251.00,0.7116
5250.00,0.7165
5249.00,0.7223
5248.00,0.7287
5247.00,0.7356
5246.00,0.7431
5245.00,0.7512
5244.00,0.7600
5243.00,0.7694
5242.00,0.7793
5241.00,0.7898
5240.00,0.8008
5239.00,0.8124
5238.00,0.8243
5237.00,0.8366
5236.00,0.8491
5235.00,0.8619
5234.00,0.8749
5233.00,0.8883
5232.00,0.9019
5231.00,0.9158
5230.00,0.9295
5229.00,0.9431
5228.00,0.9566
5227.00,0.9701
5226.00,0.9837
5225.00,0.9976
5224.00,1.0114
5223.00,1.0251
5222.00,1.0386
5221.00,1.0518
5220.00,1.0648
5219.00,1.0776
5218.00,1.0902
5217.00,1.1028
5216.00,1.1152
5215.00,1.1272
5214.00,1.1390
5213.00,1.1504
5212.00,1.1615
5211.00,1.1721
5210.00,1.1824
5209.00,1.1924
5208.00,1.2022
5207.00,1.2116
5206.00,1.2205
5205.00,1.2290
5204.00,1.2373
5203.00,1.2453
5202.00,1.2530
5201.00,1.2604
5200.00,1.2674
5199.00,1.2739
5198.00,1.2800
5197.00,1.2856
5196.00,1.2908
5195.00,1.2953
5194.00,1.2992
5193.00,1.3025
5192.00,1.3054
5191.00,1.3079
5190.00,1.3104
5189.00,1.3128
5188.00,1.3152
5187.00,1.3171
5186.00,1.3185
5185.00,1.3192
5184.00,1.3191
5183.00,1.3185
5182.00,1.3176
5181.00,1.3166
5180.00,1.3155
5179.00,1.3142
5178.00,1.3125
5177.00,1.3104
5176.00,1.3079
5175.00,1.3049
5174.00,1.3014
5173.00,1.2973
5172.00,1.2926
5171.00,1.2874
5170.00,1.2820
5169.00,1.2765
5168.00,1.2706
5167.00,1.2644
5166.00,1.2576
5165.00,1.2501
5164.00,1.2422
5163.00,1.2337
5162.00,1.2249
5161.00,1.2158
5160.00,1.2064
5159.00,1.1966
5158.00,1.1864
5157.00,1.1757
5156.00,1.1645
5155.00,1.1528
5154.00,1.1406
5153.00,1.1282
5152.00,1.1155
5151.00,1.1024
5150.00,1.0890
5149.00,1.0752
5148.00,1.0611
5147.00,1.0467
5146.00,1.0321
5145.00,1.0172
5144.00,1.0022
5143.00,0.9870
5142.00,0.9716
5141.00,0.9560
5140.00,0.9405
5139.00,0.9250
5138.00,0.9097
5137.00,0.8945
5136.00,0.8794
5135.00,0.8644
5134.00,0.8497
5133.00,0.8353
5132.00,0.8213
5131.00,0.8078
5130.00,0.7948
5129.00,0.7823
5128.00,0.7703
5127.00,0.7589
5126.00,0.7482
5125.00,0.7382
5124.00,0.7290
5123.00,0.7205
5122.00,0.7127
5121.00,0.7058
5120.00,0.6998
5119.00,0.6948
5118.00,0.6908
5117.00,0.6878
5116.00,0.6858
5115.00,0.6847
5114.00,0.6847
5113.00,0.6857
5112.00,0.6876
5111.00,0.6905
5110.00,0.6943
5109.00,0.6991
5108.00,0.7046
5107.00,0.7110
5106.00,0.7182
5105.00,0.7262
5104.00,0.7350
5103.00,0.7446
5102.00,0.7548
5101.00,0.7657
5100.00,0.7771
5099.00,0.7891
5098.00,0.8015
5097.00,0.8143
5096.00,0.8275
5095.00,0.8409
5094.00,0.8547
5093.00,0.8687
5092.00,0.8830
5091.00,0.8976
5090.00,0.9125
5089.00,0.9276
5088.00,0.9425
5087.00,0.9574
5086.00,0.9721
5085.00,0.9868
5084.00,1.0016
5083.00,1.0164
5082.00,1.0310
5081.00,1.0455
5080.00,1.0596
5079.00,1.0734
5078.00,1.0871
5077.00,1.1006
5076.00,1.1141
5075.00,1.1273
5074.00,1.1402
5073.00,1.1530
5072.00,1.1654
5071.00,1.1775
5070.00,1.1892
5069.00,1.2004
5068.00,1.2111
5067.00,1.2215
5066.00,1.2314
5065.00,1.2410
5064.00,1.2501
5063.00,1.2590
5062.00,1.2676
5061.00,1.2760
5060.00,1.2840
5059.00,1.2915
5058.00,1.2984
5057.00,1.3047
5056.00,1.3107
5055.00,1.3165
5054.00,1.3221
5053.00,1.3272
5052.00,1.3317
5051.00,1.3356
5050.00,1.3390
5049.00,1.3420
5048.00,1.3449
5047.00,1.3476
5046.00,1.3501
5045.00,1.3520
5044.00,1.3532
5043.00,1.3539
5042.00,1.3542
5041.00,1.3543
5040.00,1.3542
5039.00,1.3538
5038.00,1.3529
5037.00,1.3513
5036.00,1.3489
5035.00,1.3461
5034.00,1.3433
5033.00,1.3403
5032.00,1.3371
5031.00,1.3334
5030.00,1.3291
5029.00,1.3243
5028.00,1.3190
5027.00,1.3131
5026.00,1.3069
5025.00,1.3002
5024.00,1.2932
5023.00,1.2858
5022.00,1.2780
5021.00,1.2700
5020.00,1.2616
5019.00,1.2527
5018.00,1.2432
5017.00,1.2332
5016.00,1.2228
5015.00,1.2120
5014.00,1.2008
5013.00,1.1893
5012.00,1.1772
5011.00,1.1647
5010.00,1.1517
5009.00,1.1382
5008.00,1.1243
5007.00,1.1102
5006.00,1.0958
5005.00,1.0811
5004.00,1.0662
5003.00,1.0509
5002.00,1.0355
5001.00,1.0200
5000.00,1.0043
4999.00,0.9885
4998.00,0.9725
4997.00,0.9564
4996.00,0.9403
4995.00,0.9243
4994.00,0.9086
4993.00,0.8931
4992.00,0.8778
4991.00,0.8626
4990.00,0.8478
4989.00,0.8334
4988.00,0.8195
4987.00,0.8060
4986.00,0.7930
4985.00,0.7805
4984.00,0.7687
4983.00,0.7575
4982.00,0.7471
4981.00,0.7378
4980.00,0.7293
4979.00,0.7218
4978.00,0.7152
4977.00,0.7096
4976.00,0.7050
4975.00,0.7015
4974.00,0.6991
4973.00,0.6977
4972.00,0.6975
4971.00,0.6983
4970.00,0.7003
4969.00,0.7034
4968.00,0.7076
4967.00,0.7127
4966.00,0.7187
4965.00,0.7257
4964.00,0.7336
4963.00,0.7423
4962.00,0.7519
4961.00,0.7623
4960.00,0.7733
4959.00,0.7850
4958.00,0.7972
4957.00,0.8100
4956.00,0.8231
4955.00,0.8367
4954.00,0.8506
4953.00,0.8648
4952.00,0.8794
4951.00,0.8943
4950.00,0.9095
4949.00,0.9249
4948.00,0.9404
4947.00,0.9559
4946.00,0.9714
4945.00,0.9869
4944.00,1.0023
4943.00,1.0177
4942.00,1.0330
4941.00,1.0482
4940.00,1.0632
4939.00,1.0782
4938.00,1.0929
4937.00,1.1075
4936.00,1.1217
4935.00,1.1358
4934.00,1.1496
4933.00,1.1631
4932.00,1.1762
4931.00,1.1890
4930.00,1.2014
4929.00,1.2136
4928.00,1.2253
4927.00,1.2367
4926.00,1.2477
4925.00,1.2582
4924.00,1.2684
4923.00,1.2782
4922.00,1.2877
4921.00,1.2968
4920.00,1.3055
4919.00,1.3137
4918.00,1.3213
4917.00,1.3285
4916.00,1.3353
4915.00,1.3415
4914.00,1.3474
4913.00,1.3528
4912.00,1.3579
4911.00,1.3627
4910.00,1.3671
4909.00,1.3712
4908.00,1.3748
4907.00,1.3779
4906.00,1.3805
4905.00,1.3826
4904.00,1.3846
4903.00,1.3862
4902.00,1.3874
4901.00,1.3881
4900.00,1.3882
4899.00,1.3879
4898.00,1.3871
4897.00,1.3860
4896.00,1.3845
4895.00,1.3825
4894.00,1.3801
4893.00,1.3772
4892.00,1.3740
4891.00,1.3704
4890.00,1.3666
4889.00,1.3624
4888.00,1.3577
4887.00,1.3525
4886.00,1.3468
4885.00,1.3407
4884.00,1.3342
4883.00,1.3273
4882.00,1.3200
4881.00,1.3123
4880.00,1.3040
4879.00,1.2953
4878.00,1.2860
4877.00,1.2761
4876.00,1.2658
4875.00,1.2550
4874.00,1.2440
4873.00,1.2326
4872.00,1.2209
4871.00,1.2086
4870.00,1.1958
4869.00,1.1825
4868.00,1.1687
4867.00,1.1544
4866.00,1.1398
4865.00,1.1249
4864.00,1.1097
4863.00,1.0941
4862.00,1.0782
4861.00,1.0619
4860.00,1.0454
4859.00,1.0288
4858.00,1.0119
4857.00,0.9950
4856.00,0.9779
4855.00,0.9609
4854.00,0.9439
4853.00,0.9271
4852.00,0.9105
4851.00,0.8941
4850.00,0.8780
4849.00,0.8622
4848.00,0.8468
4847.00,0.8318
4846.00,0.8173
4845.00,0.8033
4844.00,0.7898
4843.00,0.7771
4842.00,0.7652
4841.00,0.7541
4840.00,0.7439
4839.00,0.7346
4838.00,0.7263
4837.00,0.7189
4836.00,0.7125
4835.00,0.7072
4834.00,0.7030
4833.00,0.6999
4832.00,0.6980
4831.00,0.6972
4830.00,0.6977
4829.00,0.6994
4828.00,0.7021
4827.00,0.7060
4826.00,0.7110
4825.00,0.7171
4824.00,0.7242
4823.00,0.7323
4822.00,0.7413
4821.00,0.7512
4820.00,0.7619
4819.00,0.7734
4818.00,0.7856
4817.00,0.7983
4816.00,0.8115
4815.00,0.8253
4814.00,0.8396
4813.00,0.8544
4812.00,0.8697
4811.00,0.8852
4810.00,0.9010
4809.00,0.9170
4808.00,0.9331
4807.00,0.9493
4806.00,0.9656
4805.00,0.9820
4804.00,0.9984
4803.00,1.0148
4802.00,1.0312
4801.00,1.0474
4800.00,1.0635
4799.00,1.0794
4798.00,1.0953
4797.00,1.1111
4796.00,1.1268
4795.00,1.1421
4794.00,1.1572
4793.00,1.1719
4792.00,1.1861
4791.00,1.2000
4790.00,1.2135
4789.00,1.2267
4788.00,1.2396
4787.00,1.2521
4786.00,1.2641
4785.00,1.2758
4784.00,1.2870
4783.00,1.2978
4782.00,1.3083
4781.00,1.3183
4780.00,1.3280
4779.00,1.3372
4778.00,1.3459
4777.00,1.3542
4776.00,1.3620
4775.00,1.3693
4774.00,1.3760
4773.00,1.3824
4772.00,1.3884
4771.00,1.3940
4770.00,1.3994
4769.00,1.4044
4768.00,1.4089
4767.00,1.4129
4766.00,1.4164
4765.00,1.4195
4764.00,1.4223
4763.00,1.4247
4762.00,1.4267
4761.00,1.4282
4760.00,1.4292
4759.00,1.4298
4758.00,1.4300
4757.00,1.4297
4756.00,1.4288
4755.00,1.4274
4754.00,1.4258
4753.00,1.4240
4752.00,1.4221
4751.00,1.4198
4750.00,1.4169
4749.00,1.4133
4748.00,1.4090
4747.00,1.4043
4746.00,1.3994
4745.00,1.3941
4744.00,1.3886
4743.00,1.3826
4742.00,1.3762
4741.00,1.3692
4740.00,1.3618
4739.00,1.3539
4738.00,1.3456
4737.00,1.3368
4736.00,1.3275
4735.00,1.3177
4734.00,1.3075
4733.00,1.2968
4732.00,1.2854
4731.00,1.2735
4730.00,1.2611
4729.00,1.2483
4728.00,1.2350
4727.00,1.2214
4726.00,1.2074
4725.00,1.1929
4724.00,1.1779
4723.00,1.1624
4722.00,1.1465
4721.00,1.1303
4720.00,1.1136
4719.00,1.0967
4718.00,1.0793
4717.00,1.0617
4716.00,1.0439
4715.00,1.0259
4714.00,1.0079
4713.00,0.9899
4712.00,0.9718
4711.00,0.9537
4710.00,0.9359
4709.00,0.9182
4708.00,0.9009
4707.00,0.8838
4706.00,0.8672
4705.00,0.8509
4704.00,0.8353
4703.00,0.8202
4702.00,0.8059
4701.00,0.7923
4700.00,0.7796
4699.00,0.7677
4698.00,0.7568
4697.00,0.7469
4696.00,0.7381
4695.00,0.7303
4694.00,0.7237
4693.00,0.7183
4692.00,0.7142
4691.00,0.7112
4690.00,0.7096
4689.00,0.7093
4688.00,0.7103
4687.00,0.7125
4686.00,0.7162
4685.00,0.7210
4684.00,0.7270
4683.00,0.7341
4682.00,0.7422
4681.00,0.7514
4680.00,0.7615
4679.00,0.7725
4678.00,0.7843
4677.00,0.7969
4676.00,0.8102
4675.00,0.8241
4674.00,0.8387
4673.00,0.8537
4672.00,0.8693
4671.00,0.8852
4670.00,0.9014
4669.00,0.9178
4668.00,0.9345
4667.00,0.9515
4666.00,0.9686
4665.00,0.9859
4664.00,1.0031
4663.00,1.0204
4662.00,1.0375
4661.00,1.0545
4660.00,1.0714
4659.00,1.0883
4658.00,1.1051
4657.00,1.1218
4656.00,1.1383
4655.00,1.1545
4654.00,1.1704
4653.00,1.1861
4652.00,1.2013
4651.00,1.2163
4650.00,1.2310
4649.00,1.2452
4648.00,1.2591
4647.00,1.2725
4646.00,1.2855
4645.00,1.2981
4644.00,1.3102
4643.00,1.3218
4642.00,1.3330
4641.00,1.3438
4640.00,1.3542
4639.00,1.3643
4638.00,1.3739
4637.00,1.3830
4636.00,1.3914
4635.00,1.3992
4634.00,1.4065
4633.00,1.4134
4632.00,1.4200
4631.00,1.4263
4630.00,1.4323
4629.00,1.4379
4628.00,1.4432
4627.00,1.4479
4626.00,1.4521
4625.00,1.4556
4624.00,1.4587
4623.00,1.4612
4622.00,1.4635
4621.00,1.4654
4620.00,1.4668
4619.00,1.4675
4618.00,1.4676
4617.00,1.4672
4616.00,1.4666
4615.00,1.4659
4614.00,1.4650
4613.00,1.4637
4612.00,1.4619
4611.00,1.4594
4610.00,1.4563
4609.00,1.4530
4608.00,1.4494
4607.00,1.4455
4606.00,1.4412
4605.00,1.4365
4604.00,1.4315
4603.00,1.4262
4602.00,1.4208
4601.00,1.4151
4600.00,1.4091
4599.00,1.4024
4598.00,1.3950
4597.00,1.3870
4596.00,1.3784
4595.00,1.3693
4594.00,1.3598
4593.00,1.3500
4592.00,1.3398
4591.00,1.3291
4590.00,1.3177
4589.00,1.3057
4588.00,1.2930
4587.00,1.2797
4586.00,1.2658
4585.00,1.2514
4584.00,1.2364
4583.00,1.2209
4582.00,1.2050
4581.00,1.1889
4580.00,1.1723
4579.00,1.1554
4578.00,1.1379
4577.00,1.1198
4576.00,1.1014
4575.00,1.0826
4574.00,1.0636
4573.00,1.0445
4572.00,1.0252
4571.00,1.0059
4570.00,0.9866
4569.00,0.9674
4568.00,0.9484
4567.00,0.9297
4566.00,0.9113
4565.00,0.8934
4564.00,0.8759
4563.00,0.8589
4562.00,0.8425
4561.00,0.8268
4560.00,0.8119
4559.00,0.7979
4558.00,0.7848
4557.00,0.7728
4556.00,0.7618
4555.00,0.7520
4554.00,0.7434
4553.00,0.7360
4552.00,0.7300
4551.00,0.7254
4550.00,0.7221
4549.00,0.7202
4548.00,0.7197
4547.00,0.7206
4546.00,0.7228
4545.00,0.7265
4544.00,0.7315
4543.00,0.7378
4542.00,0.7453
4541.00,0.7541
4540.00,0.7639
4539.00,0.7748
4538.00,0.7868
4537.00,0.7996
4536.00,0.8132
4535.00,0.8276
4534.00,0.8427
4533.00,0.8584
4532.00,0.8745
4531.00,0.8912
4530.00,0.9082
4529.00,0.9256
4528.00,0.9433
4527.00,0.9612
4526.00,0.9792
4525.00,0.9975
4524.00,1.0159
4523.00,1.0343
4522.00,1.0528
4521.00,1.0713
4520.00,1.0897
4519.00,1.1079
4518.00,1.1259
4517.00,1.1438
4516.00,1.1614
4515.00,1.1788
4514.00,1.1960
4513.00,1.2129
4512.00,1.2295
4511.00,1.2456
4510.00,1.2613
4509.00,1.2765
4508.00,1.2912
4507.00,1.3055
4506.00,1.3195
4505.00,1.3330
4504.00,1.3462
4503.00,1.3590
4502.00,1.3713
4501.00,1.3830
4500.00,1.3942
4499.00,1.4047
4498.00,1.4148
4497.00,1.4244
4496.00,1.4337
4495.00,1.4426
4494.00,1.4509
4493.00,1.4586
4492.00,1.4655
4491.00,1.4718
4490.00,1.4778
4489.00,1.4836
4488.00,1.4889
4487.00,1.4936
4486.00,1.4976
4485.00,1.5010
4484.00,1.5039
4483.00,1.5066
4482.00,1.5089
4481.00,1.5110
4480.00,1.5127
4479.00,1.5143
4478.00,1.5156
4477.00,1.5167
4476.00,1.5173
4475.00,1.5175
4474.00,1.5174
4473.00,1.5168
4472.00,1.5158
4471.00,1.5144
4470.00,1.5126
4469.00,1.5103
4468.00,1.5075
4467.00,1.5042
4466.00,1.5003
4465.00,1.4960
4464.00,1.4913
4463.00,1.4864
4462.00,1.4812
4461.00,1.4757
4460.00,1.4699
4459.00,1.4637
4458.00,1.4571
4457.00,1.4498
4456.00,1.4419
4455.00,1.4336
4454.00,1.4250
4453.00,1.4161
4452.00,1.4068
4451.00,1.3970
4450.00,1.3869
4449.00,1.3765
4448.00,1.3660
4447.00,1.3554
4446.00,1.3446
4445.00,1.3335
4444.00,1.3222
4443.00,1.3106
4442.00,1.2987
4441.00,1.2867
4440.00,1.2744
4439.00,1.2620
4438.00,1.2492
4437.00,1.2358
4436.00,1.2217
4435.00,1.2067
4434.00,1.1909
4433.00,1.1741
4432.00,1.1566
4431.00,1.1383
4430.00,1.1194
4429.00,1.1001
4428.00,1.0802
4427.00,1.0601
4426.00,1.0397
4425.00,1.0194
4424.00,0.9993
4423.00,0.9796
4422.00,0.9603
4421.00,0.9415
4420.00,0.9234
4419.00,0.9061
4418.00,0.8899
4417.00,0.8748
4416.00,0.8609
4415.00,0.8484
4414.00,0.8372
4413.00,0.8274
4412.00,0.8192
4411.00,0.8126
4410.00,0.8079
4409.00,0.8049
4408.00,0.8036
4407.00,0.8040
4406.00,0.8061
4405.00,0.8097
4404.00,0.8148
4403.00,0.8214
4402.00,0.8291
4401.00,0.8378
4400.00,0.8472
4399.00,0.8572
4398.00,0.8677
4397.00,0.8786
4396.00,0.8898
4395.00,0.9015
4394.00,0.9136
4393.00,0.9261
4392.00,0.9393
4391.00,0.9529
4390.00,0.9671
4389.00,0.9817
4388.00,0.9969
4387.00,1.0126
4386.00,1.0289
4385.00,1.0456
4384.00,1.0626
4383.00,1.0799
4382.00,1.0974
4381.00,1.1150
4380.00,1.1327
4379.00,1.1505
4378.00,1.1683
4377.00,1.1859
4376.00,1.2033
4375.00,1.2205
4374.00,1.2376
4373.00,1.2545
4372.00,1.2709
4371.00,1.2867
4370.00,1.3018
4369.00,1.3163
4368.00,1.3304
4367.00,1.3441
4366.00,1.3575
4365.00,1.3702
4364.00,1.3822
4363.00,1.3936
4362.00,1.4043
4361.00,1.4146
4360.00,1.4245
4359.00,1.4339
4358.00,1.4429
4357.00,1.4517
4356.00,1.4603
4355.00,1.4689
4354.00,1.4774
4353.00,1.4856
4352.00,1.4934
4351.00,1.5007
4350.00,1.5077
4349.00,1.5146
4348.00,1.5213
4347.00,1.5277
4346.00,1.5336
4345.00,1.5389
4344.00,1.5437
4343.00,1.5483
4342.00,1.5528
4341.00,1.5571
4340.00,1.5610
4339.00,1.5643
4338.00,1.5669
4337.00,1.5690
4336.00,1.5707
4335.00,1.5722
4334.00,1.5733
4333.00,1.5740
4332.00,1.5742
4331.00,1.5740
4330.00,1.5736
4329.00,1.5729
4328.00,1.5717
4327.00,1.5700
4326.00,1.5678
4325.00,1.5651
4324.00,1.5622
4323.00,1.5590
4322.00,1.5554
4321.00,1.5512
4320.00,1.5465
4319.00,1.5413
4318.00,1.5356
4317.00,1.5297
4316.00,1.5232
4315.00,1.5161
4314.00,1.5084
4313.00,1.5000
4312.00,1.4911
4311.00,1.4817
4310.00,1.4720
4309.00,1.4619
4308.00,1.4513
4307.00,1.4400
4306.00,1.4281
4305.00,1.4155
4304.00,1.4024
4303.00,1.3888
4302.00,1.3746
4301.00,1.3599
4300.00,1.3445
4299.00,1.3286
4298.00,1.3123
4297.00,1.2954
4296.00,1.2780
4295.00,1.2601
4294.00,1.2416
4293.00,1.2226
4292.00,1.2031
4291.00,1.1832
4290.00,1.1629
4289.00,1.1423
4288.00,1.1213
4287.00,1.0999
4286.00,1.0783
4285.00,1.0567
4284.00,1.0351
4283.00,1.0136
4282.00,0.9923
4281.00,0.9711
4280.00,0.9504
4279.00,0.9301
4278.00,0.9105
4277.00,0.8915
4276.00,0.8733
4275.00,0.8560
4274.00,0.8396
4273.00,0.8243
4272.00,0.8101
4271.00,0.7972
4270.00,0.7855
4269.00,0.7753
4268.00,0.7666
4267.00,0.7593
4266.00,0.7537
4265.00,0.7497
4264.00,0.7474
4263.00,0.7467
4262.00,0.7478
4261.00,0.7504
4260.00,0.7547
4259.00,0.7605
4258.00,0.7679
4257.00,0.7768
4256.00,0.7871
4255.00,0.7987
4254.00,0.8114
4253.00,0.8253
4252.00,0.8403
4251.00,0.8561
4250.00,0.8728
4249.00,0.8902
4248.00,0.9082
4247.00,0.9267
4246.00,0.9457
4245.00,0.9652
4244.00,0.9850
4243.00,1.0050
4242.00,1.0253
4241.00,1.0456
4240.00,1.0660
4239.00,1.0864
4238.00,1.1069
4237.00,1.1274
4236.00,1.1479
4235.00,1.1682
4234.00,1.1883
4233.00,1.2080
4232.00,1.2273
4231.00,1.2462
4230.00,1.2648
4229.00,1.2831
4228.00,1.3011
4227.00,1.3189
4226.00,1.3362
4225.00,1.3531
4224.00,1.3694
4223.00,1.3851
4222.00,1.4003
4221.00,1.4148
4220.00,1.4287
4219.00,1.4421
4218.00,1.4552
4217.00,1.4681
4216.00,1.4806
4215.00,1.4925
4214.00,1.5036
4213.00,1.5139
4212.00,1.5236
4211.00,1.5328
4210.00,1.5415
4209.00,1.5498
4208.00,1.5575
4207.00,1.5648
4206.00,1.5717
4205.00,1.5781
4204.00,1.5841
4203.00,1.5899
4202.00,1.5953
4201.00,1.6002
4200.00,1.6044
4199.00,1.6080
4198.00,1.6112
4197.00,1.6140
4196.00,1.6167
4195.00,1.6190
4194.00,1.6209
4193.00,1.6223
4192.00,1.6232
4191.00,1.6237
4190.00,1.6237
4189.00,1.6234
4188.00,1.6225
4187.00,1.6212
4186.00,1.6193
4185.00,1.6168
4184.00,1.6136
4183.00,1.6100
4182.00,1.6062
4181.00,1.6021
4180.00,1.5976
4179.00,1.5926
4178.00,1.5872
4177.00,1.5816
4176.00,1.5756
4175.00,1.5690
4174.00,1.5617
4173.00,1.5537
4172.00,1.5453
4171.00,1.5366
4170.00,1.5278
4169.00,1.5185
4168.00,1.5085
4167.00,1.4977
4166.00,1.4860
4165.00,1.4737
4164.00,1.4609
4163.00,1.4477
4162.00,1.4340
4161.00,1.4196
4160.00,1.4045
4159.00,1.3889
4158.00,1.3728
4157.00,1.3562
4156.00,1.3391
4155.00,1.3213
4154.00,1.3028
4153.00,1.2836
4152.00,1.2638
4151.00,1.2434
4150.00,1.2226
4149.00,1.2014
4148.00,1.1797
4147.00,1.1577
4146.00,1.1353
4145.00,1.1126
4144.00,1.0898
4143.00,1.0670
4142.00,1.0441
4141.00,1.0214
4140.00,0.9991
4139.00,0.9771
4138.00,0.9557
4137.00,0.9348
4136.00,0.9147
4135.00,0.8954
4134.00,0.8771
4133.00,0.8598
4132.00,0.8437
4131.00,0.8288
4130.00,0.8151
4129.00,0.8030
4128.00,0.7923
4127.00,0.7833
4126.00,0.7760
4125.00,0.7704
4124.00,0.7667
4123.00,0.7647
4122.00,0.7646
4121.00,0.7664
4120.00,0.7699
4119.00,0.7752
4118.00,0.7823
4117.00,0.7910
4116.00,0.8012
4115.00,0.8130
4114.00,0.8261
4113.00,0.8404
4112.00,0.8558
4111.00,0.8723
4110.00,0.8896
4109.00,0.9079
4108.00,0.9268
4107.00,0.9464
4106.00,0.9665
4105.00,0.9870
4104.00,1.0080
4103.00,1.0292
4102.00,1.0506
4101.00,1.0722
4100.00,1.0939
4099.00,1.1155
4098.00,1.1371
4097.00,1.1585
4096.00,1.1798
4095.00,1.2010
4094.00,1.2220
4093.00,1.2429
4092.00,1.2636
4091.00,1.2839
4090.00,1.3038
4089.00,1.3233
4088.00,1.3424
4087.00,1.3611
4086.00,1.3792
4085.00,1.3969
4084.00,1.4139
4083.00,1.4303
4082.00,1.4461
4081.00,1.4615
4080.00,1.4764
4079.00,1.4909
4078.00,1.5048
4077.00,1.5180
4076.00,1.5307
4075.00,1.5429
4074.00,1.5544
4073.00,1.5653
4072.00,1.5755
4071.00,1.5850
4070.00,1.5943
4069.00,1.6032
4068.00,1.6118
4067.00,1.6199
4066.00,1.6274
4065.00,1.6344
4064.00,1.6408
4063.00,1.6467
4062.00,1.6523
4061.00,1.6575
4060.00,1.6623
4059.00,1.6665
4058.00,1.6701
4057.00,1.6732
4056.00,1.6758
4055.00,1.6781
4054.00,1.6800
4053.00,1.6815
4052.00,1.6824
4051.00,1.6828
4050.00,1.6828
4049.00,1.6826
4048.00,1.6822
4047.00,1.6813
4046.00,1.6800
4045.00,1.6782
4044.00,1.6759
4043.00,1.6733
4042.00,1.6703
4041.00,1.6668
4040.00,1.6630
4039.00,1.6587
4038.00,1.6541
4037.00,1.6489
4036.00,1.6434
4035.00,1.6376
4034.00,1.6315
4033.00,1.6250
4032.00,1.6180
4031.00,1.6106
4030.00,1.6026
4029.00,1.5942
4028.00,1.5853
4027.00,1.5757
4026.00,1.5657
4025.00,1.5551
4024.00,1.5439
4023.00,1.5319
4022.00,1.5191
4021.00,1.5057
4020.00,1.4916
4019.00,1.4769
4018.00,1.4615
4017.00,1.4454
4016.00,1.4286
4015.00,1.4111
4014.00,1.3930
4013.00,1.3742
4012.00,1.3545
4011.00,1.3342
4010.00,1.3131
4009.00,1.2915
4008.00,1.2692
4007.00,1.2465
4006.00,1.2233
4005.00,1.1996
4004.00,1.1756
4003.00,1.1513
4002.00,1.1268
4001.00,1.1023
4000.00,1.0780
3999.00,1.0539
3998.00,1.0302
3997.00,1.0070
3996.00,0.9844
3995.00,0.9626
3994.00,0.9417
3993.00,0.9218
3992.00,0.9032
3991.00,0.8859
3990.00,0.8701
3989.00,0.8558
3988.00,0.8432
3987.00,0.8324
3986.00,0.8235
3985.00,0.8166
3984.00,0.8117
3983.00,0.8089
3982.00,0.8081
3981.00,0.8091
3980.00,0.8120
3979.00,0.8166
3978.00,0.8227
3977.00,0.8302
3976.00,0.8391
3975.00,0.8490
3974.00,0.8599
3973.00,0.8716
3972.00,0.8842
3971.00,0.8977
3970.00,0.9121
3969.00,0.9274
3968.00,0.9436
3967.00,0.9606
3966.00,0.9783
3965.00,0.9968
3964.00,1.0160
3963.00,1.0359
3962.00,1.0564
3961.00,1.0774
3960.00,1.0988
3959.00,1.1205
3958.00,1.1425
3957.00,1.1645
3956.00,1.1866
3955.00,1.2086
3954.00,1.2304
3953.00,1.2519
3952.00,1.2733
3951.00,1.2945
3950.00,1.3155
3949.00,1.3364
3948.00,1.3569
3947.00,1.3771
3946.00,1.3967
3945.00,1.4156
3944.00,1.4340
3943.00,1.4521
3942.00,1.4702
3941.00,1.4880
3940.00,1.5053
3939.00,1.5214
3938.00,1.5363
3937.00,1.5502
3936.00,1.5633
3935.00,1.5759
3934.00,1.5881
3933.00,1.6000
3932.00,1.6119
3931.00,1.6238
3930.00,1.6351
3929.00,1.6455
3928.00,1.6550
3927.00,1.6636
3926.00,1.6715
3925.00,1.6791
3924.00,1.6865
3923.00,1.6936
3922.00,1.7000
3921.00,1.7057
3920.00,1.7109
3919.00,1.7158
3918.00,1.7207
3917.00,1.7253
3916.00,1.7294
3915.00,1.7330
3914.00,1.7362
3913.00,1.7390
3912.00,1.7412
3911.00,1.7428
3910.00,1.7434
3909.00,1.7432
3908.00,1.7424
3907.00,1.7410
3906.00,1.7391
3905.00,1.7368
3904.00,1.7342
3903.00,1.7315
3902.00,1.7288
3901.00,1.7261
3900.00,1.7235
3899.00,1.7210
3898.00,1.7181
3897.00,1.7146
3896.00,1.7101
3895.00,1.7049
3894.00,1.6991
3893.00,1.6927
3892.00,1.6853
3891.00,1.6767
3890.00,1.6674
3889.00,1.6582
3888.00,1.6491
3887.00,1.6396
3886.00,1.6290
3885.00,1.6178
3884.00,1.6063
3883.00,1.5948
3882.00,1.5827
3881.00,1.5697
3880.00,1.5559
3879.00,1.5415
3878.00,1.5271
3877.00,1.5122
3876.00,1.4961
3875.00,1.4779
3874.00,1.4583
3873.00,1.4385
3872.00,1.4188
3871.00,1.3981
3870.00,1.3756
3869.00,1.3522
3868.00,1.3294
3867.00,1.3071
3866.00,1.2842
3865.00,1.2600
3864.00,1.2352
3863.00,1.2100
3862.00,1.1846
3861.00,1.1588
3860.00,1.1321
3859.00,1.1046
3858.00,1.0769
3857.00,1.0497
3856.00,1.0237
3855.00,0.9979
3854.00,0.9710
3853.00,0.9434
3852.00,0.9177
3851.00,0.8956
3850.00,0.8768
3849.00,0.8603
3848.00,0.8455
3847.00,0.8322
3846.00,0.8199
3845.00,0.8086
3844.00,0.7982
3843.00,0.7890
3842.00,0.7814
3841.00,0.7761
3840.00,0.7735
3839.00,0.7740
3838.00,0.7774
3837.00,0.7836
3836.00,0.7920
3835.00,0.8025
3834.00,0.8150
3833.00,0.8298
3832.00,0.8466
3831.00,0.8651
3830.00,0.8846
3829.00,0.9047
3828.00,0.9254
3827.00,0.9464
3826.00,0.9678
3825.00,0.9892
3824.00,1.0103
3823.00,1.0318
3822.00,1.0546
3821.00,1.0800
3820.00,1.1073
3819.00,1.1342
3818.00,1.1595
3817.00,1.1843
3816.00,1.2108
3815.00,1.2398
3814.00,1.2692
3813.00,1.2964
3812.00,1.3202
3811.00,1.3415
3810.00,1.3614
3809.00,1.3809
3808.00,1.4005
3807.00,1.4211
3806.00,1.4424
3805.00,1.4632
3804.00,1.4824
3803.00,1.5001
3802.00,1.5178
3801.00,1.5371
3800.00,1.5574
3799.00,1.5770
3798.00,1.5947
3797.00,1.6109
3796.00,1.6263
3795.00,1.6414
3794.00,1.6558
3793.00,1.6691
3792.00,1.6814
3791.00,1.6929
3790.00,1.7037
3789.00,1.7138
3788.00,1.7232
3787.00,1.7321
3786.00,1.7406
3785.00,1.7485
3784.00,1.7559
3783.00,1.7627
3782.00,1.7690
3781.00,1.7746
3780.00,1.7799
3779.00,1.7852
3778.00,1.7907
3777.00,1.7957
3776.00,1.7996
3775.00,1.8024
3774.00,1.8044
3773.00,1.8063
3772.00,1.8080
3771.00,1.8092
3770.00,1.8100
3769.00,1.8104
3768.00,1.8105
3767.00,1.8102
3766.00,1.8093
3765.00,1.8079
3764.00,1.8062
3763.00,1.8043
3762.00,1.8016
3761.00,1.7982
3760.00,1.7943
3759.00,1.7899
3758.00,1.7848
3757.00,1.7784
3756.00,1.7710
3755.00,1.7627
3754.00,1.7538
3753.00,1.7446
3752.00,1.7353
3751.00,1.7259
3750.00,1.7161
3749.00,1.7057
3748.00,1.6953
3747.00,1.6857
3746.00,1.6764
3745.00,1.6663
3744.00,1.6554
3743.00,1.6443
3742.00,1.6329
3741.00,1.6205
3740.00,1.6068
3739.00,1.5923
3738.00,1.5770
3737.00,1.5603
3736.00,1.5420
3735.00,1.5228
3734.00,1.5034
3733.00,1.4836
3732.00,1.4629
3731.00,1.4417
3730.00,1.4203
3729.00,1.3986
3728.00,1.3755
3727.00,1.3509
3726.00,1.3249
3725.00,1.2983
3724.00,1.2709
3723.00,1.2428
3722.00,1.2141
3721.00,1.1853
3720.00,1.1568
3719.00,1.1284
3718.00,1.1001
3717.00,1.0722
3716.00,1.0452
3715.00,1.0197
3714.00,0.9953
3713.00,0.9716
3712.00,0.9488
3711.00,0.9274
3710.00,0.9083
3709.00,0.8919
3708.00,0.8782
3707.00,0.8671
3706.00,0.8587
3705.00,0.8529
3704.00,0.8496
3703.00,0.8490
3702.00,0.8511
3701.00,0.8557
3700.00,0.8629
3699.00,0.8726
3698.00,0.8846
3697.00,0.8986
3696.00,0.9146
3695.00,0.9320
3694.00,0.9502
3693.00,0.9692
3692.00,0.9894
3691.00,1.0115
3690.00,1.0363
3689.00,1.0643
3688.00,1.0951
3687.00,1.1270
3686.00,1.1578
3685.00,1.1866
3684.00,1.2138
3683.00,1.2404
3682.00,1.2667
3681.00,1.2921
3680.00,1.3162
3679.00,1.3390
3678.00,1.3613
3677.00,1.3842
3676.00,1.4089
3675.00,1.4359
3674.00,1.4633
3673.00,1.4887
3672.00,1.5113
3671.00,1.5329
3670.00,1.5555
3669.00,1.5796
3668.00,1.6036
3667.00,1.6258
3666.00,1.6457
3665.00,1.6636
3664.00,1.6800
3663.00,1.6953
3662.00,1.7099
3661.00,1.7236
3660.00,1.7366
3659.00,1.7489
3658.00,1.7606
3657.00,1.7720
3656.00,1.7832
3655.00,1.7939
3654.00,1.8031
3653.00,1.8104
3652.00,1.8167
3651.00,1.8231
3650.00,1.8309
3649.00,1.8399
3648.00,1.8495
3647.00,1.8591
3646.00,1.8685
3645.00,1.8776
3644.00,1.8860
3643.00,1.8935
3642.00,1.9001
3641.00,1.9059
3640.00,1.9110
3639.00,1.9153
3638.00,1.9191
3637.00,1.9226
3636.00,1.9258
3635.00,1.9284
3634.00,1.9299
3633.00,1.9304
3632.00,1.9303
3631.00,1.9301
3630.00,1.9302
3629.00,1.9309
3628.00,1.9322
3627.00,1.9337
3626.00,1.9348
3625.00,1.9353
3624.00,1.9353
3623.00,1.9345
3622.00,1.9331
3621.00,1.9309
3620.00,1.9282
3619.00,1.9251
3618.00,1.9216
3617.00,1.9177
3616.00,1.9136
3615.00,1.9092
3614.00,1.9044
3613.00,1.8991
3612.00,1.8936
3611.00,1.8879
3610.00,1.8823
3609.00,1.8767
3608.00,1.8709
3607.00,1.8646
3606.00,1.8577
3605.00,1.8502
3604.00,1.8422
3603.00,1.8337
3602.00,1.8245
3601.00,1.8142
3600.00,1.8030
3599.00,1.7911
3598.00,1.7787
3597.00,1.7658
3596.00,1.7523
3595.00,1.7383
3594.00,1.7236
3593.00,1.7083
3592.00,1.6923
3591.00,1.6760
3590.00,1.6595
3589.00,1.6427
3588.00,1.6250
3587.00,1.6066
3586.00,1.5877
3585.00,1.5686
3584.00,1.5495
3583.00,1.5302
3582.00,1.5105
3581.00,1.4904
3580.00,1.4697
3579.00,1.4488
3578.00,1.4279
3577.00,1.4071
3576.00,1.3864
3575.00,1.3658
3574.00,1.3453
3573.00,1.3251
3572.00,1.3053
3571.00,1.2862
3570.00,1.2680
3569.00,1.2510
3568.00,1.2350
3567.00,1.2201
3566.00,1.2067
3565.00,1.1951
3564.00,1.1854
3563.00,1.1774
3562.00,1.1711
3561.00,1.1664
3560.00,1.1632
3559.00,1.1616
3558.00,1.1613
3557.00,1.1625
3556.00,1.1651
3555.00,1.1693
3554.00,1.1749
3553.00,1.1820
3552.00,1.1903
3551.00,1.1996
3550.00,1.2097
3549.00,1.2207
3548.00,1.2326
3547.00,1.2455
3546.00,1.2595
3545.00,1.2743
3544.00,1.2895
3543.00,1.3051
3542.00,1.3208
3541.00,1.3366
3540.00,1.3526
3539.00,1.3689
3538.00,1.3854
3537.00,1.4023
3536.00,1.4196
3535.00,1.4369
3534.00,1.4541
3533.00,1.4709
3532.00,1.4876
3531.00,1.5043
3530.00,1.5211
3529.00,1.5380
3528.00,1.5550
3527.00,1.5721
3526.00,1.5891
3525.00,1.6061
3524.00,1.6230
3523.00,1.6396
3522.00,1.6561
3521.00,1.6722
3520.00,1.6881
3519.00,1.7038
3518.00,1.7194
3517.00,1.7346
3516.00,1.7493
3515.00,1.7632
3514.00,1.7764
3513.00,1.7890
3512.00,1.8013
3511.00,1.8137
3510.00,1.8261
3509.00,1.8382
3508.00,1.8497
3507.00,1.8605
3506.00,1.8708
3505.00,1.8807
3504.00,1.8904
3503.00,1.8997
3502.00,1.9082
3501.00,1.9159
3500.00,1.9230
3499.00,1.9299
3498.00,1.9368
3497.00,1.9435
3496.00,1.9500
3495.00,1.9559
3494.00,1.9610
3493.00,1.9656
3492.00,1.9698
3491.00,1.9736
3490.00,1.9768
3489.00,1.9794
3488.00,1.9815
3487.00,1.9835
3486.00,1.9854
3485.00,1.9870
3484.00,1.9879
3483.00,1.9883
3482.00,1.9881
3481.00,1.9876
3480.00,1.9868
3479.00,1.9858
3478.00,1.9845
3477.00,1.9826
3476.00,1.9798
3475.00,1.9763
3474.00,1.9726
3473.00,1.9688
3472.00,1.9651
3471.00,1.9610
3470.00,1.9564
3469.00,1.9514
3468.00,1.9461
3467.00,1.9400
3466.00,1.9329
3465.00,1.9250
3464.00,1.9165
3463.00,1.9078
3462.00,1.8989
3461.00,1.8897
3460.00,1.8800
3459.00,1.8698
3458.00,1.8592
3457.00,1.8481
3456.00,1.8363
3455.00,1.8236
3454.00,1.8101
3453.00,1.7958
3452.00,1.7810
3451.00,1.7657
3450.00,1.7498
3449.00,1.7332
3448.00,1.7158
3447.00,1.6975
3446.00,1.6785
3445.00,1.6589
3444.00,1.6387
3443.00,1.6179
3442.00,1.5964
3441.00,1.5743
3440.00,1.5513
3439.00,1.5275
3438.00,1.5030
3437.00,1.4780
3436.00,1.4525
3435.00,1.4265
3434.00,1.4001
3433.00,1.3735
3432.00,1.3470
3431.00,1.3207
3430.00,1.2948
3429.00,1.2695
3428.00,1.2446
3427.00,1.2205
3426.00,1.1973
3425.00,1.1753
3424.00,1.1547
3423.00,1.1356
3422.00,1.1182
3421.00,1.1025
3420.00,1.0887
3419.00,1.0771
3418.00,1.0677
3417.00,1.0607
3416.00,1.0561
3415.00,1.0540
3414.00,1.0542
3413.00,1.0569
3412.00,1.0618
3411.00,1.0690
3410.00,1.0783
3409.00,1.0896
3408.00,1.1028
3407.00,1.1175
3406.00,1.1337
3405.00,1.1512
3404.00,1.1699
3403.00,1.1894
3402.00,1.2097
3401.00,1.2305
3400.00,1.2519
3399.00,1.2738
3398.00,1.2962
3397.00,1.3190
3396.00,1.3422
3395.00,1.3658
3394.00,1.3896
3393.00,1.4136
3392.00,1.4378
3391.00,1.4619
3390.00,1.4858
3389.00,1.5094
3388.00,1.5327
3387.00,1.5555
3386.00,1.5778
3385.00,1.5997
3384.00,1.6214
3383.00,1.6427
3382.00,1.6635
3381.00,1.6839
3380.00,1.7037
3379.00,1.7230
3378.00,1.7417
3377.00,1.7600
3376.00,1.7775
3375.00,1.7943
3374.00,1.8104
3373.00,1.8260
3372.00,1.8411
3371.00,1.8557
3370.00,1.8698
3369.00,1.8829
3368.00,1.8952
3367.00,1.9069
3366.00,1.9181
3365.00,1.9288
3364.00,1.9388
3363.00,1.9482
3362.00,1.9572
3361.00,1.9662
3360.00,1.9751
3359.00,1.9833
3358.00,1.9907
3357.00,1.9971
3356.00,2.0030
3355.00,2.0086
3354.00,2.0142
3353.00,2.0196
3352.00,2.0247
3351.00,2.0292
3350.00,2.0330
3349.00,2.0362
3348.00,2.0389
3347.00,2.0412
3346.00,2.0433
3345.00,2.0450
3344.00,2.0461
3343.00,2.0466
3342.00,2.0465
3341.00,2.0460
3340.00,2.0453
3339.00,2.0440
3338.00,2.0423
3337.00,2.0403
3336.00,2.0384
3335.00,2.0364
3334.00,2.0341
3333.00,2.0308
3332.00,2.0265
3331.00,2.0213
3330.00,2.0158
3329.00,2.0104
3328.00,2.0050
3327.00,1.9991
3326.00,1.9924
3325.00,1.9850
3324.00,1.9774
3323.00,1.9696
3322.00,1.9613
3321.00,1.9523
3320.00,1.9423
3319.00,1.9317
3318.00,1.9204
3317.00,1.9085
3316.00,1.8962
3315.00,1.8835
3314.00,1.8703
3313.00,1.8563
3312.00,1.8416
3311.00,1.8264
3310.00,1.8105
3309.00,1.7939
3308.00,1.7764
3307.00,1.7580
3306.00,1.7391
3305.00,1.7194
3304.00,1.6992
3303.00,1.6783
3302.00,1.6566
3301.00,1.6341
3300.00,1.6108
3299.00,1.5869
3298.00,1.5624
3297.00,1.5374
3296.00,1.5119
3295.00,1.4859
3294.00,1.4594
3293.00,1.4327
3292.00,1.4058
3291.00,1.3791
3290.00,1.3526
3289.00,1.3264
3288.00,1.3007
3287.00,1.2756
3286.00,1.2513
3285.00,1.2280
3284.00,1.2059
3283.00,1.1852
3282.00,1.1661
3281.00,1.1488
3280.00,1.1334
3279.00,1.1200
3278.00,1.1088
3277.00,1.0999
3276.00,1.0934
3275.00,1.0893
3274.00,1.0879
3273.00,1.0889
3272.00,1.0925
3271.00,1.0984
3270.00,1.1068
3269.00,1.1174
3268.00,1.1303
3267.00,1.1451
3266.00,1.1618
3265.00,1.1801
3264.00,1.1998
3263.00,1.2208
3262.00,1.2429
3261.00,1.2659
3260.00,1.2898
3259.00,1.3145
3258.00,1.3396
3257.00,1.3651
3256.00,1.3909
3255.00,1.4168
3254.00,1.4428
3253.00,1.4687
3252.00,1.4946
3251.00,1.5205
3250.00,1.5462
3249.00,1.5716
3248.00,1.5966
3247.00,1.6211
3246.00,1.6450
3245.00,1.6684
3244.00,1.6912
3243.00,1.7135
3242.00,1.7352
3241.00,1.7563
3240.00,1.7768
3239.00,1.7967
3238.00,1.8157
3237.00,1.8339
3236.00,1.8511
3235.00,1.8678
3234.00,1.8840
3233.00,1.8997
3232.00,1.9148
3231.00,1.9291
3230.00,1.9429
3229.00,1.9562
3228.00,1.9691
3227.00,1.9815
3226.00,1.9933
3225.00,2.0043
3224.00,2.0146
3223.00,2.0244
3222.00,2.0335
3221.00,2.0421
3220.00,2.0502
3219.00,2.0583
3218.00,2.0666
3217.00,2.0747
3216.00,2.0819
3215.00,2.0879
3214.00,2.0928
3213.00,2.0972
3212.00,2.1012
3211.00,2.1050
3210.00,2.1090
3209.00,2.1134
3208.00,2.1176
3207.00,2.1210
3206.00,2.1232
3205.00,2.1245
3204.00,2.1254
3203.00,2.1262
3202.00,2.1267
3201.00,2.1268
3200.00,2.1262
3199.00,2.1249
3198.00,2.1231
3197.00,2.1209
3196.00,2.1184
3195.00,2.1153
3194.00,2.1117
3193.00,2.1077
3192.00,2.1034
3191.00,2.0987
3190.00,2.0935
3189.00,2.0875
3188.00,2.0811
3187.00,2.0741
3186.00,2.0667
3185.00,2.0585
3184.00,2.0498
3183.00,2.0407
3182.00,2.0313
3181.00,2.0215
3180.00,2.0109
3179.00,1.9993
3178.00,1.9871
3177.00,1.9745
3176.00,1.9617
3175.00,1.9488
3174.00,1.9354
3173.00,1.9216
3172.00,1.9080
3171.00,1.8955
3170.00,1.8851
3169.00,1.8780
3168.00,1.8749
3167.00,1.8757
3166.00,1.8796
3165.00,1.8844
3164.00,1.8874
3163.00,1.8854
3162.00,1.8764
3161.00,1.8599
3160.00,1.8369
3159.00,1.8096
3158.00,1.7795
3157.00,1.7480
3156.00,1.7160
3155.00,1.6840
3154.00,1.6520
3153.00,1.6202
3152.00,1.5884
3151.00,1.5569
3150.00,1.5260
3149.00,1.4958
3148.00,1.4662
3147.00,1.4374
3146.00,1.4094
3145.00,1.3823
3144.00,1.3564
3143.00,1.3318
3142.00,1.3086
3141.00,1.2872
3140.00,1.2677
3139.00,1.2505
3138.00,1.2355
3137.00,1.2229
3136.00,1.2129
3135.00,1.2057
3134.00,1.2012
3133.00,1.1995
3132.00,1.2005
3131.00,1.2041
3130.00,1.2103
3129.00,1.2189
3128.00,1.2298
3127.00,1.2428
3126.00,1.2579
3125.00,1.2749
3124.00,1.2937
3123.00,1.3140
3122.00,1.3357
3121.00,1.3586
3120.00,1.3824
3119.00,1.4071
3118.00,1.4324
3117.00,1.4582
3116.00,1.4844
3115.00,1.5105
3114.00,1.5365
3113.00,1.5623
3112.00,1.5878
3111.00,1.6133
3110.00,1.6386
3109.00,1.6636
3108.00,1.6882
3107.00,1.7125
3106.00,1.7363
3105.00,1.7596
3104.00,1.7822
3103.00,1.8043
3102.00,1.8258
3101.00,1.8466
3100.00,1.8668
3099.00,1.8864
3098.00,1.9056
3097.00,1.9244
3096.00,1.9425
3095.00,1.9598
3094.00,1.9763
3093.00,1.9921
3092.00,2.0071
3091.00,2.0209
3090.00,2.0339
3089.00,2.0465
3088.00,2.0591
3087.00,2.0716
3086.00,2.0839
3085.00,2.0955
3084.00,2.1062
3083.00,2.1159
3082.00,2.1247
3081.00,2.1330
3080.00,2.1410
3079.00,2.1488
3078.00,2.1566
3077.00,2.1641
3076.00,2.1711
3075.00,2.1772
3074.00,2.1825
3073.00,2.1871
3072.00,2.1916
3071.00,2.1962
3070.00,2.2005
3069.00,2.2045
3068.00,2.2080
3067.00,2.2110
3066.00,2.2138
3065.00,2.2161
3064.00,2.2175
3063.00,2.2178
3062.00,2.2174
3061.00,2.2167
3060.00,2.2160
3059.00,2.2148
3058.00,2.2131
3057.00,2.2110
3056.00,2.2089
3055.00,2.2067
3054.00,2.2042
3053.00,2.2010
3052.00,2.1974
3051.00,2.1933
3050.00,2.1887
3049.00,2.1832
3048.00,2.1768
3047.00,2.1701
3046.00,2.1637
3045.00,2.1573
3044.00,2.1505
3043.00,2.1427
3042.00,2.1341
3041.00,2.1245
3040.00,2.1141
3039.00,2.1030
3038.00,2.0917
3037.00,2.0806
3036.00,2.0694
3035.00,2.0577
3034.00,2.0452
3033.00,2.0320
3032.00,2.0183
3031.00,2.0042
3030.00,1.9900
3029.00,1.9754
3028.00,1.9603
3027.00,1.9448
3026.00,1.9290
3025.00,1.9132
3024.00,1.8975
3023.00,1.8821
3022.00,1.8673
3021.00,1.8531
3020.00,1.8395
3019.00,1.8265
3018.00,1.8143
3017.00,1.8036
3016.00,1.7947
3015.00,1.7876
3014.00,1.7821
3013.00,1.7779
3012.00,1.7752
3011.00,1.7742
3010.00,1.7751
3009.00,1.7776
3008.00,1.7812
3007.00,1.7853
3006.00,1.7894
3005.00,1.7929
3004.00,1.7953
3003.00,1.7962
3002.00,1.7951
3001.00,1.7919
3000.00,1.7863
2999.00,1.7786
2998.00,1.7685
2997.00,1.7565
2996.00,1.7430
2995.00,1.7285
2994.00,1.7140
2993.00,1.7002
2992.00,1.6879
2991.00,1.6776
2990.00,1.6696
2989.00,1.6643
2988.00,1.6619
2987.00,1.6629
2986.00,1.6671
2985.00,1.6747
2984.00,1.6854
2983.00,1.6991
2982.00,1.7159
2981.00,1.7356
2980.00,1.7576
2979.00,1.7815
2978.00,1.8068
2977.00,1.8334
2976.00,1.8613
2975.00,1.8903
2974.00,1.9201
2973.00,1.9500
2972.00,1.9796
2971.00,2.0084
2970.00,2.0362
2969.00,2.0626
2968.00,2.0876
2967.00,2.1112
2966.00,2.1336
2965.00,2.1552
2964.00,2.1759
2963.00,2.1954
2962.00,2.2138
2961.00,2.2317
2960.00,2.2496
2959.00,2.2676
2958.00,2.2858
2957.00,2.3040
2956.00,2.3220
2955.00,2.3393
2954.00,2.3560
2953.00,2.3728
2952.00,2.3905
2951.00,2.4092
2950.00,2.4287
2949.00,2.4485
2948.00,2.4680
2947.00,2.4860
2946.00,2.5004
2945.00,2.5094
2944.00,2.5116
2943.00,2.5064
2942.00,2.4941
2941.00,2.4758
2940.00,2.4539
2939.00,2.4309
2938.00,2.4086
2937.00,2.3878
2936.00,2.3690
2935.00,2.3529
2934.00,2.3401
2933.00,2.3300
2932.00,2.3214
2931.00,2.3137
2930.00,2.3070
2929.00,2.3019
2928.00,2.2988
2927.00,2.2980
2926.00,2.2989
2925.00,2.3004
2924.00,2.3018
2923.00,2.3027
2922.00,2.3037
2921.00,2.3053
2920.00,2.3077
2919.00,2.3109
2918.00,2.3143
2917.00,2.3177
2916.00,2.3207
2915.00,2.3232
2914.00,2.3257
2913.00,2.3286
2912.00,2.3322
2911.00,2.3361
2910.00,2.3398
2909.00,2.3426
2908.00,2.3440
2907.00,2.3444
2906.00,2.3442
2905.00,2.3438
2904.00,2.3432
2903.00,2.3427
2902.00,2.3426
2901.00,2.3425
2900.00,2.3417
2899.00,2.3395
2898.00,2.3359
2897.00,2.3313
2896.00,2.3261
2895.00,2.3203
2894.00,2.3142
2893.00,2.3076
2892.00,2.3008
2891.00,2.2939
2890.00,2.2872
2889.00,2.2809
2888.00,2.2745
2887.00,2.2677
2886.00,2.2597
2885.00,2.2504
2884.00,2.2397
2883.00,2.2285
2882.00,2.2176
2881.00,2.2075
2880.00,2.1980
2879.00,2.1890
2878.00,2.1805
2877.00,2.1726
2876.00,2.1653
2875.00,2.1586
2874.00,2.1532
2873.00,2.1494
2872.00,2.1469
2871.00,2.1447
2870.00,2.1421
2869.00,2.1383
2868.00,2.1333
2867.00,2.1268
2866.00,2.1187
2865.00,2.1090
2864.00,2.0978
2863.00,2.0850
2862.00,2.0706
2861.00,2.0541
2860.00,2.0349
2859.00,2.0124
2858.00,1.9869
2857.00,1.9590
2856.00,1.9289
2855.00,1.8967
2854.00,1.8625
2853.00,1.8266
2852.00,1.7895
2851.00,1.7515
2850.00,1.7130
2849.00,1.6742
2848.00,1.6357
2847.00,1.5975
2846.00,1.5601
2845.00,1.5237
2844.00,1.4889
2843.00,1.4560
2842.00,1.4253
2841.00,1.3970
2840.00,1.3714
2839.00,1.3488
2838.00,1.3293
2837.00,1.3132
2836.00,1.3006
2835.00,1.2916
2834.00,1.2864
2833.00,1.2849
2832.00,1.2870
2831.00,1.2925
2830.00,1.3014
2829.00,1.3134
2828.00,1.3283
2827.00,1.3460
2826.00,1.3661
2825.00,1.3885
2824.00,1.4130
2823.00,1.4394
2822.00,1.4672
2821.00,1.4963
2820.00,1.5264
2819.00,1.5572
2818.00,1.5887
2817.00,1.6206
2816.00,1.6526
2815.00,1.6844
2814.00,1.7161
2813.00,1.7475
2812.00,1.7785
2811.00,1.8090
2810.00,1.8388
2809.00,1.8681
2808.00,1.8966
2807.00,1.9240
2806.00,1.9500
2805.00,1.9746
2804.00,1.9984
2803.00,2.0215
2802.00,2.0442
2801.00,2.0665
2800.00,2.0878
2799.00,2.1077
2798.00,2.1261
2797.00,2.1432
2796.00,2.1593
2795.00,2.1747
2794.00,2.1898
2793.00,2.2045
2792.00,2.2190
2791.00,2.2331
2790.00,2.2466
2789.00,2.2590
2788.00,2.2701
2787.00,2.2803
2786.00,2.2904
2785.00,2.3005
2784.00,2.3099
2783.00,2.3181
2782.00,2.3253
2781.00,2.3322
2780.00,2.3390
2779.00,2.3449
2778.00,2.3495
2777.00,2.3530
2776.00,2.3560
2775.00,2.3597
2774.00,2.3643
2773.00,2.3696
2772.00,2.3745
2771.00,2.3778
2770.00,2.3794
2769.00,2.3800
2768.00,2.3802
2767.00,2.3804
2766.00,2.3807
2765.00,2.3809
2764.00,2.3805
2763.00,2.3791
2762.00,2.3770
2761.00,2.3751
2760.00,2.3736
2759.00,2.3720
2758.00,2.3695
2757.00,2.3660
2756.00,2.3613
2755.00,2.3559
2754.00,2.3501
2753.00,2.3444
2752.00,2.3386
2751.00,2.3322
2750.00,2.3248
2749.00,2.3167
2748.00,2.3081
2747.00,2.2990
2746.00,2.2893
2745.00,2.2790
2744.00,2.2680
2743.00,2.2564
2742.00,2.2444
2741.00,2.2325
2740.00,2.2207
2739.00,2.2082
2738.00,2.1941
2737.00,2.1780
2736.00,2.1602
2735.00,2.1417
2734.00,2.1231
2733.00,2.1046
2732.00,2.0858
2731.00,2.0661
2730.00,2.0450
2729.00,2.0223
2728.00,1.9981
2727.00,1.9723
2726.00,1.9450
2725.00,1.9164
2724.00,1.8865
2723.00,1.8555
2722.00,1.8232
2721.00,1.7896
2720.00,1.7544
2719.00,1.7175
2718.00,1.6791
2717.00,1.6393
2716.00,1.5984
2715.00,1.5565
2714.00,1.5139
2713.00,1.4711
2712.00,1.4286
2711.00,1.3869
2710.00,1.3464
2709.00,1.3077
2708.00,1.2712
2707.00,1.2373
2706.00,1.2063
2705.00,1.1789
2704.00,1.1554
2703.00,1.1363
2702.00,1.1220
2701.00,1.1126
2700.00,1.1085
2699.00,1.1096
2698.00,1.1158
2697.00,1.1270
2696.00,1.1430
2695.00,1.1632
2694.00,1.1874
2693.00,1.2151
2692.00,1.2457
2691.00,1.2788
2690.00,1.3140
2689.00,1.3508
2688.00,1.3890
2687.00,1.4282
2686.00,1.4681
2685.00,1.5083
2684.00,1.5486
2683.00,1.5886
2682.00,1.6281
2681.00,1.6670
2680.00,1.7050
2679.00,1.7420
2678.00,1.7778
2677.00,1.8124
2676.00,1.8459
2675.00,1.8783
2674.00,1.9096
2673.00,1.9396
2672.00,1.9683
2671.00,1.9955
2670.00,2.0216
2669.00,2.0467
2668.00,2.0709
2667.00,2.0945
2666.00,2.1174
2665.00,2.1394
2664.00,2.1603
2663.00,2.1803
2662.00,2.1994
2661.00,2.2177
2660.00,2.2352
2659.00,2.2518
2658.00,2.2677
2657.00,2.2830
2656.00,2.2976
2655.00,2.3116
2654.00,2.3250
2653.00,2.3380
2652.00,2.3503
2651.00,2.3616
2650.00,2.3717
2649.00,2.3810
2648.00,2.3901
2647.00,2.3990
2646.00,2.4077
2645.00,2.4158
2644.00,2.4232
2643.00,2.4301
2642.00,2.4367
2641.00,2.4427
2640.00,2.4480
2639.00,2.4530
2638.00,2.4582
2637.00,2.4636
2636.00,2.4684
2635.00,2.4717
2634.00,2.4740
2633.00,2.4761
2632.00,2.4787
2631.00,2.4814
2630.00,2.4841
2629.00,2.4866
2628.00,2.4886
2627.00,2.4897
2626.00,2.4895
2625.00,2.4883
2624.00,2.4867
2623.00,2.4848
2622.00,2.4828
2621.00,2.4807
2620.00,2.4784
2619.00,2.4749
2618.00,2.4693
2617.00,2.4620
2616.00,2.4550
2615.00,2.4500
2614.00,2.4467
2613.00,2.4432
2612.00,2.4376
2611.00,2.4299
2610.00,2.4211
2609.00,2.4121
2608.00,2.4031
2607.00,2.3937
2606.00,2.3833
2605.00,2.3716
2604.00,2.3589
2603.00,2.3463
2602.00,2.3343
2601.00,2.3219
2600.00,2.3081
2599.00,2.2925
2598.00,2.2759
2597.00,2.2591
2596.00,2.2421
2595.00,2.2240
2594.00,2.2046
2593.00,2.1841
2592.00,2.1627
2591.00,2.1403
2590.00,2.1169
2589.00,2.0923
2588.00,2.0664
2587.00,2.0392
2586.00,2.0105
2585.00,1.9806
2584.00,1.9494
2583.00,1.9166
2582.00,1.8820
2581.00,1.8455
2580.00,1.8071
2579.00,1.7672
2578.00,1.7259
2577.00,1.6835
2576.00,1.6399
2575.00,1.5953
2574.00,1.5500
2573.00,1.5046
2572.00,1.4600
2571.00,1.4165
2570.00,1.3747
2569.00,1.3350
2568.00,1.2978
2567.00,1.2636
2566.00,1.2328
2565.00,1.2060
2564.00,1.1835
2563.00,1.1660
2562.00,1.1537
2561.00,1.1470
2560.00,1.1460
2559.00,1.1509
2558.00,1.1614
2557.00,1.1774
2556.00,1.1983
2555.00,1.2237
2554.00,1.2528
2553.00,1.2852
2552.00,1.3204
2551.00,1.3579
2550.00,1.3970
2549.00,1.4375
2548.00,1.4789
2547.00,1.5206
2546.00,1.5626
2545.00,1.6045
2544.00,1.6465
2543.00,1.6883
2542.00,1.7299
2541.00,1.7709
2540.00,1.8110
2539.00,1.8499
2538.00,1.8875
2537.00,1.9238
2536.00,1.9589
2535.00,1.9928
2534.00,2.0254
2533.00,2.0565
2532.00,2.0859
2531.00,2.1137
2530.00,2.1400
2529.00,2.1654
2528.00,2.1900
2527.00,2.2135
2526.00,2.2359
2525.00,2.2574
2524.00,2.2777
2523.00,2.2966
2522.00,2.3144
2521.00,2.3315
2520.00,2.3486
2519.00,2.3654
2518.00,2.3816
2517.00,2.3964
2516.00,2.4097
2515.00,2.4218
2514.00,2.4338
2513.00,2.4462
2512.00,2.4592
2511.00,2.4717
2510.00,2.4830
2509.00,2.4926
2508.00,2.5011
2507.00,2.5091
2506.00,2.5171
2505.00,2.5245
2504.00,2.5310
2503.00,2.5370
2502.00,2.5428
2501.00,2.5483
2500.00,2.5531
2499.00,2.5570
2498.00,2.5609
2497.00,2.5651
2496.00,2.5692
2495.00,2.5723
2494.00,2.5747
2493.00,2.5769
2492.00,2.5787
2491.00,2.5795
2490.00,2.5794
2489.00,2.5789
2488.00,2.5786
2487.00,2.5785
2486.00,2.5784
2485.00,2.5783
2484.00,2.5779
2483.00,2.5762
2482.00,2.5731
2481.00,2.5696
2480.00,2.5662
2479.00,2.5622
2478.00,2.5569
2477.00,2.5509
2476.00,2.5450
2475.00,2.5397
2474.00,2.5345
2473.00,2.5290
2472.00,2.5227
2471.00,2.5157
2470.00,2.5076
2469.00,2.4986
2468.00,2.4893
2467.00,2.4802
2466.00,2.4710
2465.00,2.4609
2464.00,2.4492
2463.00,2.4356
2462.00,2.4210
2461.00,2.4059
2460.00,2.3903
2459.00,2.3738
2458.00,2.3564
2457.00,2.3385
2456.00,2.3204
2455.00,2.3018
2454.00,2.2825
2453.00,2.2619
2452.00,2.2402
2451.00,2.2174
2450.00,2.1937
2449.00,2.1688
2448.00,2.1426
2447.00,2.1147
2446.00,2.0852
2445.00,2.0546
2444.00,2.0227
2443.00,1.9894
2442.00,1.9545
2441.00,1.9181
2440.00,1.8804
2439.00,1.8413
2438.00,1.8008
2437.00,1.7592
2436.00,1.7169
2435.00,1.6745
2434.00,1.6323
2433.00,1.5907
2432.00,1.5504
2431.00,1.5118
2430.00,1.4756
2429.00,1.4426
2428.00,1.4132
2427.00,1.3879
2426.00,1.3673
2425.00,1.3518
2424.00,1.3417
2423.00,1.3372
2422.00,1.3382
2421.00,1.3446
2420.00,1.3559
2419.00,1.3719
2418.00,1.3919
2417.00,1.4153
2416.00,1.4416
2415.00,1.4699
2414.00,1.4997
2413.00,1.5303
2412.00,1.5615
2411.00,1.5932
2410.00,1.6251
2409.00,1.6572
2408.00,1.6892
2407.00,1.7210
2406.00,1.7526
2405.00,1.7843
2404.00,1.8162
2403.00,1.8483
2402.00,1.8808
2401.00,1.9135
2400.00,1.9464
2399.00,1.9793
2398.00,2.0121
2397.00,2.0444
2396.00,2.0759
2395.00,2.1065
2394.00,2.1361
2393.00,2.1651
2392.00,2.1939
2391.00,2.2223
2390.00,2.2495
2389.00,2.2750
2388.00,2.2989
2387.00,2.3216
2386.00,2.3433
2385.00,2.3638
2384.00,2.3834
2383.00,2.4027
2382.00,2.4220
2381.00,2.4414
2380.00,2.4603
2379.00,2.4788
2378.00,2.4974
2377.00,2.5159
2376.00,2.5338
2375.00,2.5505
2374.00,2.5658
2373.00,2.5798
2372.00,2.5928
2371.00,2.6052
2370.00,2.6176
2369.00,2.6298
2368.00,2.6411
2367.00,2.6508
2366.00,2.6590
2365.00,2.6674
2364.00,2.6774
2363.00,2.6887
2362.00,2.6991
2361.00,2.7066
2360.00,2.7112
2359.00,2.7153
2358.00,2.7210
2357.00,2.7283
2356.00,2.7354
2355.00,2.7401
2354.00,2.7417
2353.00,2.7407
2352.00,2.7383
2351.00,2.7352
2350.00,2.7324
2349.00,2.7306
2348.00,2.7301
2347.00,2.7292
2346.00,2.7264
2345.00,2.7216
2344.00,2.7158
2343.00,2.7099
2342.00,2.7041
2341.00,2.6984
2340.00,2.6929
2339.00,2.6876
2338.00,2.6819
2337.00,2.6743
2336.00,2.6642
2335.00,2.6529
2334.00,2.6421
2333.00,2.6325
2332.00,2.6233
2331.00,2.6129
2330.00,2.6003
2329.00,2.5851
2328.00,2.5684
2327.00,2.5520
2326.00,2.5376
2325.00,2.5248
2324.00,2.5118
2323.00,2.4968
2322.00,2.4789
2321.00,2.4586
2320.00,2.4364
2319.00,2.4125
2318.00,2.3871
2317.00,2.3601
2316.00,2.3313
2315.00,2.3002
2314.00,2.2671
2313.00,2.2325
2312.00,2.1965
2311.00,2.1590
2310.00,2.1194
2309.00,2.0780
2308.00,2.0360
2307.00,1.9947
2306.00,1.9560
2305.00,1.9221
2304.00,1.8956
2303.00,1.8791
2302.00,1.8751
2301.00,1.8854
2300.00,1.9109
2299.00,1.9513
2298.00,2.0048
2297.00,2.0685
2296.00,2.1372
2295.00,2.2041
2294.00,2.2601
2293.00,2.2970
2292.00,2.3086
2291.00,2.2931
2290.00,2.2529
2289.00,2.1940
2288.00,2.1240
2287.00,2.0497
2286.00,1.9762
2285.00,1.9068
2284.00,1.8445
2283.00,1.7914
2282.00,1.7496
2281.00,1.7206
2280.00,1.7054
2279.00,1.7044
2278.00,1.7173
2277.00,1.7431
2276.00,1.7801
2275.00,1.8261
2274.00,1.8789
2273.00,1.9364
2272.00,1.9969
2271.00,2.0591
2270.00,2.1226
2269.00,2.1871
2268.00,2.2523
2267.00,2.3177
2266.00,2.3828
2265.00,2.4471
2264.00,2.5104
2263.00,2.5729
2262.00,2.6366
2261.00,2.7041
2260.00,2.7787
2259.00,2.8632
2258.00,2.9617
2257.00,3.0796
2256.00,3.2235
2255.00,3.3936
2254.00,3.5624
2253.00,3.6465
2252.00,3.5780
2251.00,3.4162
2250.00,3.2364
2249.00,3.0606
2248.00,2.8904
2247.00,2.7263
2246.00,2.5716
2245.00,2.4304
2244.00,2.3067
2243.00,2.2041
2242.00,2.1250
2241.00,2.0709
2240.00,2.0414
2239.00,2.0344
2238.00,2.0467
2237.00,2.0741
2236.00,2.1120
2235.00,2.1562
2234.00,2.2035
2233.00,2.2513
2232.00,2.2982
2231.00,2.3429
2230.00,2.3849
2229.00,2.4235
2228.00,2.4578
2227.00,2.4872
2226.00,2.5124
2225.00,2.5352
2224.00,2.5576
2223.00,2.5801
2222.00,2.6019
2221.00,2.6222
2220.00,2.6408
2219.00,2.6581
2218.00,2.6733
2217.00,2.6855
2216.00,2.6948
2215.00,2.7028
2214.00,2.7113
2213.00,2.7208
2212.00,2.7310
2211.00,2.7418
2210.00,2.7525
2209.00,2.7619
2208.00,2.7689
2207.00,2.7742
2206.00,2.7794
2205.00,2.7851
2204.00,2.7900
2203.00,2.7924
2202.00,2.7926
2201.00,2.7917
2200.00,2.7911
2199.00,2.7916
2198.00,2.7931
2197.00,2.7943
2196.00,2.7937
2195.00,2.7915
2194.00,2.7892
2193.00,2.7875
2192.00,2.7854
2191.00,2.7819
2190.00,2.7775
2189.00,2.7732
2188.00,2.7694
2187.00,2.7655
2186.00,2.7608
2185.00,2.7552
2184.00,2.7488
2183.00,2.7417
2182.00,2.7342
2181.00,2.7261
2180.00,2.7176
2179.00,2.7085
2178.00,2.6986
2177.00,2.6876
2176.00,2.6754
2175.00,2.6623
2174.00,2.6487
2173.00,2.6351
2172.00,2.6214
2171.00,2.6073
2170.00,2.5925
2169.00,2.5764
2168.00,2.5586
2167.00,2.5393
2166.00,2.5192
2165.00,2.4990
2164.00,2.4781
2163.00,2.4555
2162.00,2.4308
2161.00,2.4045
2160.00,2.3774
2159.00,2.3497
2158.00,2.3208
2157.00,2.2899
2156.00,2.2568
2155.00,2.2217
2154.00,2.1845
2153.00,2.1450
2152.00,2.1029
2151.00,2.0584
2150.00,2.0119
2149.00,1.9634
2148.00,1.9127
2147.00,1.8598
2146.00,1.8050
2145.00,1.7488
2144.00,1.6924
2143.00,1.6368
2142.00,1.5831
2141.00,1.5322
2140.00,1.4849
2139.00,1.4421
2138.00,1.4045
2137.00,1.3731
2136.00,1.3486
2135.00,1.3315
2134.00,1.3223
2133.00,1.3212
2132.00,1.3284
2131.00,1.3434
2130.00,1.3659
2129.00,1.3952
2128.00,1.4302
2127.00,1.4701
2126.00,1.5137
2125.00,1.5603
2124.00,1.6091
2123.00,1.6594
2122.00,1.7107
2121.00,1.7627
2120.00,1.8148
2119.00,1.8665
2118.00,1.9173
2117.00,1.9669
2116.00,2.0152
2115.00,2.0619
2114.00,2.1070
2113.00,2.1504
2112.00,2.1919
2111.00,2.2312
2110.00,2.2683
2109.00,2.3035
2108.00,2.3367
2107.00,2.3682
2106.00,2.3985
2105.00,2.4278
2104.00,2.4556
2103.00,2.4813
2102.00,2.5051
2101.00,2.5275
2100.00,2.5488
2099.00,2.5689
2098.00,2.5881
2097.00,2.6069
2096.00,2.6255
2095.00,2.6440
2094.00,2.6628
2093.00,2.6821
2092.00,2.7001
2091.00,2.7145
2090.00,2.7250
2089.00,2.7344
2088.00,2.7456
2087.00,2.7587
2086.00,2.7712
2085.00,2.7812
2084.00,2.7890
2083.00,2.7967
2082.00,2.8055
2081.00,2.8150
2080.00,2.8240
2079.00,2.8317
2078.00,2.8383
2077.00,2.8448
2076.00,2.8521
2075.00,2.8602
2074.00,2.8688
2073.00,2.8772
2072.00,2.8849
2071.00,2.8911
2070.00,2.8948
2069.00,2.8960
2068.00,2.8960
2067.00,2.8965
2066.00,2.8984
2065.00,2.9010
2064.00,2.9022
2063.00,2.9011
2062.00,2.8985
2061.00,2.8968
2060.00,2.8967
2059.00,2.8975
2058.00,2.8971
2057.00,2.8941
2056.00,2.8888
2055.00,2.8828
2054.00,2.8786
2053.00,2.8768
2052.00,2.8758
2051.00,2.8736
2050.00,2.8701
2049.00,2.8669
2048.00,2.8650
2047.00,2.8621
2046.00,2.8547
2045.00,2.8422
2044.00,2.8285
2043.00,2.8179
2042.00,2.8111
2041.00,2.8048
2040.00,2.7956
2039.00,2.7822
2038.00,2.7664
2037.00,2.7499
2036.00,2.7342
2035.00,2.7202
2034.00,2.7080
2033.00,2.6967
2032.00,2.6849
2031.00,2.6707
2030.00,2.6534
2029.00,2.6333
2028.00,2.6118
2027.00,2.5907
2026.00,2.5709
2025.00,2.5512
2024.00,2.5301
2023.00,2.5063
2022.00,2.4802
2021.00,2.4527
2020.00,2.4243
2019.00,2.3948
2018.00,2.3634
2017.00,2.3293
2016.00,2.2923
2015.00,2.2529
2014.00,2.2117
2013.00,2.1691
2012.00,2.1245
2011.00,2.0776
2010.00,2.0279
2009.00,1.9755
2008.00,1.9209
2007.00,1.8646
2006.00,1.8075
2005.00,1.7504
2004.00,1.6945
2003.00,1.6407
2002.00,1.5899
2001.00,1.5430
2000.00,1.5011
1999.00,1.4653
1998.00,1.4365
1997.00,1.4154
1996.00,1.4029
1995.00,1.4001
1994.00,1.4069
1993.00,1.4224
1992.00,1.4449
1991.00,1.4733
1990.00,1.5073
1989.00,1.5467
1988.00,1.5909
1987.00,1.6385
1986.00,1.6884
1985.00,1.7399
1984.00,1.7927
1983.00,1.8461
1982.00,1.8995
1981.00,1.9523
1980.00,2.0042
1979.00,2.0551
1978.00,2.1047
1977.00,2.1526
1976.00,2.1984
1975.00,2.2420
1974.00,2.2834
1973.00,2.3229
1972.00,2.3606
1971.00,2.3965
1970.00,2.4308
1969.00,2.4633
1968.00,2.4941
1967.00,2.5224
1966.00,2.5478
1965.00,2.5714
1964.00,2.5945
1963.00,2.6179
1962.00,2.6411
1961.00,2.6636
1960.00,2.6858
1959.00,2.7078
1958.00,2.7285
1957.00,2.7469
1956.00,2.7633
1955.00,2.7786
1954.00,2.7934
1953.00,2.8080
1952.00,2.8223
1951.00,2.8364
1950.00,2.8505
1949.00,2.8646
1948.00,2.8787
1947.00,2.8924
1946.00,2.9048
1945.00,2.9154
1944.00,2.9235
1943.00,2.9288
1942.00,2.9320
1941.00,2.9357
1940.00,2.9425
1939.00,2.9525
1938.00,2.9623
1937.00,2.9690
1936.00,2.9733
1935.00,2.9783
1934.00,2.9850
1933.00,2.9921
1932.00,2.9979
1931.00,3.0020
1930.00,3.0046
1929.00,3.0057
1928.00,3.0056
1927.00,3.0062
1926.00,3.0088
1925.00,3.0124
1924.00,3.0144
1923.00,3.0129
1922.00,3.0088
1921.00,3.0050
1920.00,3.0036
1919.00,3.0042
1918.00,3.0050
1917.00,3.0041
1916.00,3.0013
1915.00,2.9977
1914.00,2.9940
1913.00,2.9893
1912.00,2.9828
1911.00,2.9748
1910.00,2.9669
1909.00,2.9602
1908.00,2.9537
1907.00,2.9455
1906.00,2.9349
1905.00,2.9236
1904.00,2.9141
1903.00,2.9072
1902.00,2.9015
1901.00,2.8945
1900.00,2.8850
1899.00,2.8739
1898.00,2.8623
1897.00,2.8500
1896.00,2.8358
1895.00,2.8191
1894.00,2.8013
1893.00,2.7847
1892.00,2.7700
1891.00,2.7553
1890.00,2.7379
1889.00,2.7172
1888.00,2.6943
1887.00,2.6707
1886.00,2.6469
1885.00,2.6225
1884.00,2.5971
1883.00,2.5705
1882.00,2.5425
1881.00,2.5130
1880.00,2.4817
1879.00,2.4485
1878.00,2.4133
1877.00,2.3767
1876.00,2.3390
1875.00,2.2991
1874.00,2.2563
1873.00,2.2111
1872.00,2.1649
1871.00,2.1169
1870.00,2.0642
1869.00,2.0058
1868.00,1.9440
1867.00,1.8823
1866.00,1.8230
1865.00,1.7669
1864.00,1.7142
1863.00,1.6652
1862.00,1.6208
1861.00,1.5825
1860.00,1.5514
1859.00,1.5286
1858.00,1.5149
1857.00,1.5110
1856.00,1.5174
1855.00,1.5337
1854.00,1.5589
1853.00,1.5920
1852.00,1.6319
1851.00,1.6779
1850.00,1.7282
1849.00,1.7811
1848.00,1.8355
1847.00,1.8916
1846.00,1.9504
1845.00,2.0114
1844.00,2.0716
1843.00,2.1272
1842.00,2.1771
1841.00,2.2239
1840.00,2.2697
1839.00,2.3150
1838.00,2.3593
1837.00,2.4020
1836.00,2.4427
1835.00,2.4800
1834.00,2.5137
1833.00,2.5449
1832.00,2.5753
1831.00,2.6058
1830.00,2.6366
1829.00,2.6672
1828.00,2.6973
1827.00,2.7266
1826.00,2.7537
1825.00,2.7763
1824.00,2.7935
1823.00,2.8070
1822.00,2.8196
1821.00,2.8339
1820.00,2.8506
1819.00,2.8690
1818.00,2.8878
1817.00,2.9057
1816.00,2.9217
1815.00,2.9357
1814.00,2.9484
1813.00,2.9612
1812.00,2.9745
1811.00,2.9882
1810.00,3.0019
1809.00,3.0151
1808.00,3.0257
1807.00,3.0326
1806.00,3.0388
1805.00,3.0490
1804.00,3.0639
1803.00,3.0780
1802.00,3.0858
1801.00,3.0873
1800.00,3.0865
1799.00,3.0855
1798.00,3.0844
1797.00,3.0848
1796.00,3.0899
1795.00,3.1012
1794.00,3.1170
1793.00,3.1322
1792.00,3.1408
1791.00,3.1387
1790.00,3.1287
1789.00,3.1202
1788.00,3.1207
1787.00,3.1303
1786.00,3.1424
1785.00,3.1492
1784.00,3.1476
1783.00,3.1400
1782.00,3.1304
1781.00,3.1216
1780.00,3.1151
1779.00,3.1104
1778.00,3.1056
1777.00,3.0978
1776.00,3.0868
1775.00,3.0758
1774.00,3.0672
1773.00,3.0605
1772.00,3.0545
1771.00,3.0493
1770.00,3.0464
1769.00,3.0445
1768.00,3.0380
1767.00,3.0231
1766.00,3.0031
1765.00,2.9846
1764.00,2.9709
1763.00,2.9599
1762.00,2.9465
1761.00,2.9282
1760.00,2.9075
1759.00,2.8883
1758.00,2.8707
1757.00,2.8502
1756.00,2.8245
1755.00,2.7980
1754.00,2.7764
1753.00,2.7593
1752.00,2.7393
1751.00,2.7099
1750.00,2.6726
1749.00,2.6337
1748.00,2.5974
1747.00,2.5648
1746.00,2.5351
1745.00,2.5067
1744.00,2.4770
1743.00,2.4458
1742.00,2.4159
1741.00,2.3904
1740.00,2.3684
1739.00,2.3469
1738.00,2.3270
1737.00,2.3140
1736.00,2.3108
1735.00,2.3129
1734.00,2.3139
1733.00,2.3134
1732.00,2.3188
1731.00,2.3370
1730.00,2.3684
1729.00,2.4099
1728.00,2.4591
1727.00,2.5153
1726.00,2.5790
1725.00,2.6495
1724.00,2.7246
1723.00,2.8014
1722.00,2.8782
1721.00,2.9540
1720.00,3.0291
1719.00,3.1063
1718.00,3.1917
1717.00,3.2881
1716.00,3.3902
1715.00,3.4960
1714.00,3.6059
1713.00,3.7086
1712.00,3.7835
1711.00,3.8246
1710.00,3.8428
1709.00,3.8430
1708.00,3.8276
1707.00,3.8037
1706.00,3.7617
1705.00,3.6806
1704.00,3.5709
1703.00,3.4631
1702.00,3.3597
1701.00,3.2349
1700.00,3.0839
1699.00,2.9371
1698.00,2.8135
1697.00,2.7054
1696.00,2.5983
1695.00,2.4905
1694.00,2.3945
1693.00,2.3206
1692.00,2.2688
1691.00,2.2359
1690.00,2.2190
1689.00,2.2150
1688.00,2.2216
1687.00,2.2403
1686.00,2.2746
1685.00,2.3281
1684.00,2.3987
1683.00,2.4693
1682.00,2.5265
1681.00,2.5730
1680.00,2.6139
1679.00,2.6525
1678.00,2.6915
1677.00,2.7324
1676.00,2.7733
1675.00,2.8090
1674.00,2.8363
1673.00,2.8574
1672.00,2.8766
1671.00,2.8975
1670.00,2.9219
1669.00,2.9482
1668.00,2.9720
1667.00,2.9932
1666.00,3.0149
1665.00,3.0372
1664.00,3.0575
1663.00,3.0750
1662.00,3.0933
1661.00,3.1147
1660.00,3.1354
1659.00,3.1489
1658.00,3.1541
1657.00,3.1559
1656.00,3.1586
1655.00,3.1602
1654.00,3.1605
1653.00,3.1663
1652.00,3.1727
1651.00,3.1775
1650.00,3.1820
1649.00,3.1839
1648.00,3.1875
1647.00,3.2005
1646.00,3.2215
1645.00,3.2405
1644.00,3.2527
1643.00,3.2594
1642.00,3.2625
1641.00,3.2613
1640.00,3.2534
1639.00,3.2385
1638.00,3.2219
1637.00,3.2115
1636.00,3.2129
1635.00,3.2196
1634.00,3.2228
1633.00,3.2259
1632.00,3.2331
1631.00,3.2427
1630.00,3.2513
1629.00,3.2579
1628.00,3.2623
1627.00,3.2618
1626.00,3.2544
1625.00,3.2432
1624.00,3.2352
1623.00,3.2344
1622.00,3.2360
1621.00,3.2322
1620.00,3.2202
1619.00,3.2022
1618.00,3.1821
1617.00,3.1642
1616.00,3.1499
1615.00,3.1377
1614.00,3.1263
1613.00,3.1143
1612.00,3.1002
1611.00,3.0856
1610.00,3.0733
1609.00,3.0637
1608.00,3.0536
1607.00,3.0397
1606.00,3.0226
1605.00,3.0051
1604.00,2.9885
1603.00,2.9716
1602.00,2.9519
1601.00,2.9287
1600.00,2.9033
1599.00,2.8775
1598.00,2.8512
1597.00,2.8230
1596.00,2.7924
1595.00,2.7600
1594.00,2.7259
1593.00,2.6899
1592.00,2.6525
1591.00,2.6143
1590.00,2.5753
1589.00,2.5342
1588.00,2.4904
1587.00,2.4444
1586.00,2.3975
1585.00,2.3505
1584.00,2.3045
1583.00,2.2610
1582.00,2.2200
1581.00,2.1807
1580.00,2.1431
1579.00,2.1089
1578.00,2.0799
1577.00,2.0583
1576.00,2.0454
1575.00,2.0388
1574.00,2.0376
1573.00,2.0429
1572.00,2.0557
1571.00,2.0764
1570.00,2.1068
1569.00,2.1450
1568.00,2.1851
1567.00,2.2247
1566.00,2.2658
1565.00,2.3088
1564.00,2.3516
1563.00,2.3926
1562.00,2.4326
1561.00,2.4728
1560.00,2.5111
1559.00,2.5635
1558.00,2.6266
1557.00,2.6779
1556.00,2.7183
1555.00,2.7543
1554.00,2.7888
1553.00,2.8240
1552.00,2.8605
1551.00,2.8954
1550.00,2.9242
1549.00,2.9472
1548.00,2.9683
1547.00,2.9912
1546.00,3.0154
1545.00,3.0386
1544.00,3.0585
1543.00,3.0732
1542.00,3.0819
1541.00,3.0920
1540.00,3.1140
1539.00,3.1405
1538.00,3.1636
1537.00,3.1888
1536.00,3.2169
1535.00,3.2413
1534.00,3.2561
1533.00,3.2619
1532.00,3.2629
1531.00,3.2644
1530.00,3.2712
1529.00,3.2863
1528.00,3.3080
1527.00,3.3313
1526.00,3.3510
1525.00,3.3648
1524.00,3.3713
1523.00,3.3691
1522.00,3.3619
1521.00,3.3538
1520.00,3.3461
1519.00,3.3398
1518.00,3.3361
1517.00,3.3383
1516.00,3.3504
1515.00,3.3723
1514.00,3.3997
1513.00,3.4223
1512.00,3.4307
1511.00,3.4279
1510.00,3.4271
1509.00,3.4363
1508.00,3.4505
1507.00,3.4600
1506.00,3.4512
1505.00,3.4268
1504.00,3.4076
1503.00,3.3988
1502.00,3.3937
1501.00,3.3886
1500.00,3.3842
1499.00,3.3826
1498.00,3.3850
1497.00,3.3909
1496.00,3.3972
1495.00,3.4001
1494.00,3.4010
1493.00,3.4028
1492.00,3.4014
1491.00,3.3881
1490.00,3.3652
1489.00,3.3486
1488.00,3.3500
1487.00,3.3645
1486.00,3.3768
1485.00,3.3750
1484.00,3.3597
1483.00,3.3402
1482.00,3.3265
1481.00,3.3229
1480.00,3.3281
1479.00,3.3354
1478.00,3.3362
1477.00,3.3255
1476.00,3.3050
1475.00,3.2830
1474.00,3.2661
1473.00,3.2533
1472.00,3.2385
1471.00,3.2193
1470.00,3.2035
1469.00,3.2002
1468.00,3.2086
1467.00,3.2201
1466.00,3.2264
1465.00,3.2266
1464.00,3.2249
1463.00,3.2246
1462.00,3.2281
1461.00,3.2375
1460.00,3.2558
1459.00,3.2874
1458.00,3.3375
1457.00,3.4027
1456.00,3.4640
1455.00,3.5060
1454.00,3.5329
1453.00,3.5578
1452.00,3.5856
1451.00,3.6101
1450.00,3.6242
1449.00,3.6301
1448.00,3.6322
1447.00,3.6311
1446.00,3.6264
1445.00,3.6216
1444.00,3.6201
1443.00,3.6175
1442.00,3.6074
1441.00,3.5905
1440.00,3.5714
1439.00,3.5532
1438.00,3.5339
1437.00,3.5102
1436.00,3.4868
1435.00,3.4763
1434.00,3.4875
1433.00,3.5155
1432.00,3.5412
1431.00,3.5431
1430.00,3.5219
1429.00,3.5004
1428.00,3.4961
1427.00,3.5075
1426.00,3.5191
1425.00,3.5171
1424.00,3.5028
1423.00,3.4887
1422.00,3.4843
1421.00,3.4892
1420.00,3.4939
1419.00,3.4885
1418.00,3.4717
1417.00,3.4504
1416.00,3.4299
1415.00,3.4093
1414.00,3.3853
1413.00,3.3587
1412.00,3.3352
1411.00,3.3197
1410.00,3.3092
1409.00,3.2960
1408.00,3.2771
1407.00,3.2583
1406.00,3.2470
1405.00,3.2431
1404.00,3.2400
1403.00,3.2337
1402.00,3.2292
1401.00,3.2338
1400.00,3.2472
1399.00,3.2616
1398.00,3.2688
1397.00,3.2682
1396.00,3.2657
1395.00,3.2670
1394.00,3.2736
1393.00,3.2843
1392.00,3.2983
1391.00,3.3171
1390.00,3.3423
1389.00,3.3719
1388.00,3.3998
1387.00,3.4237
1386.00,3.4515
1385.00,3.4928
1384.00,3.5432
1383.00,3.5835
1382.00,3.6045
1381.00,3.6222
1380.00,3.6584
1379.00,3.7200
1378.00,3.7981
1377.00,3.8721
1376.00,3.9092
1375.00,3.8748
1374.00,3.7716
1373.00,3.6440
1372.00,3.5320
1371.00,3.4531
1370.00,3.4089
1369.00,3.3903
1368.00,3.3845
1367.00,3.3841
1366.00,3.3922
1365.00,3.4138
1364.00,3.4431
1363.00,3.4608
1362.00,3.4539
1361.00,3.4334
1360.00,3.4215
1359.00,3.4320
1358.00,3.4635
1357.00,3.5027
1356.00,3.5342
1355.00,3.5542
1354.00,3.5728
1353.00,3.5983
1352.00,3.6248
1351.00,3.6371
1350.00,3.6254
1349.00,3.6018
1348.00,3.5885
1347.00,3.5898
1346.00,3.5925
1345.00,3.5866
1344.00,3.5758
1343.00,3.5717
1342.00,3.5837
1341.00,3.6112
1340.00,3.6403
1339.00,3.6528
1338.00,3.6439
1337.00,3.6258
1336.00,3.6095
1335.00,3.5963
1334.00,3.5876
1333.00,3.5862
1332.00,3.5906
1331.00,3.5971
1330.00,3.6066
1329.00,3.6180
1328.00,3.6182
1327.00,3.5958
1326.00,3.5624
1325.00,3.5413
1324.00,3.5401
1323.00,3.5436
1322.00,3.5314
1321.00,3.5027
1320.00,3.4739
1319.00,3.4589
1318.00,3.4637
1317.00,3.4890
1316.00,3.5246
1315.00,3.5460
1314.00,3.5404
1313.00,3.5219
1312.00,3.5085
1311.00,3.5059
1310.00,3.5088
1309.00,3.5090
1308.00,3.5023
1307.00,3.4869
1306.00,3.4617
1305.00,3.4314
1304.00,3.4038
1303.00,3.3825
1302.00,3.3656
1301.00,3.3484
1300.00,3.3264
1299.00,3.2988
1298.00,3.2688
1297.00,3.2391
1296.00,3.2082
1295.00,3.1727
1294.00,3.1320
1293.00,3.0911
1292.00,3.0539
1291.00,3.0188
1290.00,2.9806
1289.00,2.9363
1288.00,2.8871
1287.00,2.8353
1286.00,2.7819
1285.00,2.7278
1284.00,2.6738
1283.00,2.6210
1282.00,2.5706
1281.00,2.5245
1280.00,2.4856
1279.00,2.4566
1278.00,2.4377
1277.00,2.4264
1276.00,2.4184
1275.00,2.4102
1274.00,2.4018
1273.00,2.3958
1272.00,2.3951
1271.00,2.4016
1270.00,2.4160
1269.00,2.4380
1268.00,2.4671
1267.00,2.5015
1266.00,2.5388
1265.00,2.5780
1264.00,2.6204
1263.00,2.6678
1262.00,2.7195
1261.00,2.7720
1260.00,2.8230
1259.00,2.8723
1258.00,2.9200
1257.00,2.9643
1256.00,3.0047
1255.00,3.0447
1254.00,3.0881
1253.00,3.1335
1252.00,3.1751
1251.00,3.2080
1250.00,3.2336
1249.00,3.2561
1248.00,3.2769
1247.00,3.2939
1246.00,3.3081
1245.00,3.3253
1244.00,3.3518
1243.00,3.3880
1242.00,3.4279
1241.00,3.4652
1240.00,3.4992
1239.00,3.5331
1238.00,3.5655
1237.00,3.5892
1236.00,3.5987
1235.00,3.5949
1234.00,3.5912
1233.00,3.6062
1232.00,3.6420
1231.00,3.6856
1230.00,3.7233
1229.00,3.7407
1228.00,3.7367
1227.00,3.7286
1226.00,3.7331
1225.00,3.7537
1224.00,3.7740
1223.00,3.7753
1222.00,3.7634
1221.00,3.7599
1220.00,3.7795
1219.00,3.8180
1218.00,3.8449
1217.00,3.8461
1216.00,3.8520
1215.00,3.8741
1214.00,3.8943
1213.00,3.8872
1212.00,3.8398
1211.00,3.7767
1210.00,3.7278
1209.00,3.7064
1208.00,3.7116
1207.00,3.7345
1206.00,3.7727
1205.00,3.8317
1204.00,3.8955
1203.00,3.9065
1202.00,3.8403
1201.00,3.7669
1200.00,3.7481
1199.00,3.7860
1198.00,3.8329
1197.00,3.8295
1196.00,3.7834
1195.00,3.7456
1194.00,3.7378
1193.00,3.7491
1192.00,3.7585
1191.00,3.7627
1190.00,3.7751
1189.00,3.7925
1188.00,3.7969
1187.00,3.7873
1186.00,3.7737
1185.00,3.7639
1184.00,3.7703
1183.00,3.7880
1182.00,3.7850
1181.00,3.7486
1180.00,3.7141
1179.00,3.7195
1178.00,3.7670
1177.00,3.8232
1176.00,3.8423
1175.00,3.8045
1174.00,3.7314
1173.00,3.6566
1172.00,3.6047
1171.00,3.5859
1170.00,3.5893
1169.00,3.5861
1168.00,3.5611
1167.00,3.5329
1166.00,3.5229
1165.00,3.5218
1164.00,3.5012
1163.00,3.4570
1162.00,3.4170
1161.00,3.4005
1160.00,3.3988
1159.00,3.3896
1158.00,3.3602
1157.00,3.3174
1156.00,3.2734
1155.00,3.2325
1154.00,3.1921
1153.00,3.1475
1152.00,3.0963
1151.00,3.0438
1150.00,2.9962
1149.00,2.9522
1148.00,2.9045
1147.00,2.8493
1146.00,2.7915
1145.00,2.7388
1144.00,2.6944
1143.00,2.6574
1142.00,2.6276
1141.00,2.6079
1140.00,2.6017
1139.00,2.6098
1138.00,2.6297
1137.00,2.6585
1136.00,2.6952
1135.00,2.7408
1134.00,2.7962
1133.00,2.8599
1132.00,2.9279
1131.00,2.9937
1130.00,3.0524
1129.00,3.1040
1128.00,3.1544
1127.00,3.2114
1126.00,3.2811
1125.00,3.3633
1124.00,3.4482
1123.00,3.5173
1122.00,3.5567
1121.00,3.5731
1120.00,3.5829
1119.00,3.5915
1118.00,3.5886
1117.00,3.5646
1116.00,3.5295
1115.00,3.5046
1114.00,3.5056
1113.00,3.5389
1112.00,3.5964
1111.00,3.6473
1110.00,3.6550
1109.00,3.6259
1108.00,3.6065
1107.00,3.6252
1106.00,3.6653
1105.00,3.7003
1104.00,3.7362
1103.00,3.7957
1102.00,3.9006
1101.00,4.0291
1100.00,4.0905
1099.00,4.0341
1098.00,3.9490
1097.00,3.9242
1096.00,3.9603
1095.00,4.0074
1094.00,4.0176
1093.00,4.0119
1092.00,4.0727
1091.00,4.2107
1090.00,4.2473
1089.00,4.1783
1088.00,4.1255
1087.00,4.0614
1086.00,4.0342
1085.00,4.0859
1084.00,4.1534
1083.00,4.0808
1082.00,3.8993
1081.00,3.7534
1080.00,3.6820
1079.00,3.6813
1078.00,3.7409
1077.00,3.8481
1076.00,3.9609
1075.00,3.9919
1074.00,3.9176
1073.00,3.8280
1072.00,3.8092
1071.00,3.8835
1070.00,4.0293
1069.00,4.1973
1068.00,4.2110
1067.00,4.0853
1066.00,4.0312
1065.00,4.0523
1064.00,4.0890
1063.00,4.1025
1062.00,4.0565
1061.00,3.9530
1060.00,3.8484
1059.00,3.7833
1058.00,3.7706
1057.00,3.8070
1056.00,3.9025
1055.00,3.9709
1054.00,3.9382
1053.00,3.9220
1052.00,4.0511
1051.00,4.5262
1050.00,4.4654
1049.00,4.0131
1048.00,3.8792
1047.00,3.8653
1046.00,3.8683
1045.00,3.8581
1044.00,3.8941
1043.00,3.9901
1042.00,4.0856
1041.00,4.1876
1040.00,4.2491
1039.00,4.1551
1038.00,4.0445
1037.00,4.0471
1036.00,4.1504
1035.00,4.4022
1034.00,4.9087
1033.00,4.6373
1032.00,4.3109
1031.00,4.1983
1030.00,4.1480
1029.00,4.1299
1028.00,4.1370
1027.00,4.1662
1026.00,4.1354
1025.00,4.0217
1024.00,3.9142
1023.00,3.8693
1022.00,3.9119
1021.00,3.9713
1020.00,3.9347
1019.00,3.8864
1018.00,3.8777
1017.00,3.8953
1016.00,3.9451
1015.00,3.9979
1014.00,4.0118
1013.00,4.0032
1012.00,4.0228
1011.00,4.0557
1010.00,4.0160
1009.00,3.9019
1008.00,3.7911
1007.00,3.7196
1006.00,3.6888
1005.00,3.6790
1004.00,3.6678
1003.00,3.6564
1002.00,3.6439
1001.00,3.6138
1000.00,3.5651
999.00,3.5142
998.00,3.4737
997.00,3.4441
996.00,3.4188
995.00,3.3910
994.00,3.3558
993.00,3.3183
992.00,3.2922
991.00,3.2850
990.00,3.2924
989.00,3.3065
988.00,3.3231
987.00,3.3432
986.00,3.3703
985.00,3.4092
984.00,3.4622
983.00,3.5242
982.00,3.5780
981.00,3.6055
980.00,3.6171
979.00,3.6506
978.00,3.7339
977.00,3.8515
976.00,3.9274
975.00,3.9156
974.00,3.8682
973.00,3.8439
972.00,3.8840
971.00,3.9737
970.00,3.9974
969.00,3.9569
968.00,3.9719
967.00,4.0596
966.00,4.1507
965.00,4.1672
964.00,4.0792
963.00,3.9501
962.00,3.8803
961.00,3.9165
960.00,4.0692
959.00,4.3934
958.00,5.0770
957.00,4.9107
956.00,4.4232
955.00,4.2395
954.00,4.1825
953.00,4.1539
952.00,4.1180
951.00,4.1025
950.00,4.0976
949.00,4.0856
948.00,4.0517
947.00,4.0183
946.00,4.0244
945.00,4.0967
944.00,4.1845
943.00,4.1073
942.00,3.9761
941.00,3.9467
940.00,4.0203
939.00,4.1438
938.00,4.2447
937.00,4.3024
936.00,4.3327
935.00,4.3593
934.00,4.3886
933.00,4.4563
932.00,4.5928
931.00,4.6127
930.00,4.4351
929.00,4.3589
928.00,4.4341
927.00,4.6963
926.00,5.2742
925.00,4.9020
924.00,4.4951
923.00,4.3887
922.00,4.3926
921.00,4.3530
920.00,4.2377
919.00,4.0785
918.00,3.9877
917.00,4.0336
916.00,4.1805
915.00,4.2720
914.00,4.1796
913.00,4.0560
912.00,4.0308
911.00,4.1169
910.00,4.2996
909.00,4.6287
908.00,4.9376
907.00,4.7743
906.00,4.6584
905.00,4.7758
904.00,4.6888
903.00,4.3242
902.00,4.1234
901.00,4.1180
900.00,4.2961
899.00,4.3366
898.00,4.2075
897.00,4.3629
896.00,4.6523
895.00,4.4212
894.00,4.2677
893.00,4.1197
892.00,4.0201
891.00,4.0284
890.00,4.2288
889.00,4.5658
888.00,4.3138
887.00,4.1551
886.00,4.2831
885.00,4.5829
884.00,4.3554
883.00,4.1667
882.00,4.1074
881.00,4.0263
880.00,4.0099
879.00,4.0650
878.00,4.1543
877.00,4.1972
876.00,4.1648
875.00,4.1056
874.00,4.0199
873.00,3.9469
872.00,3.9508
871.00,4.1177
870.00,4.5699
869.00,4.6160
868.00,4.3031
867.00,4.1990
866.00,4.1465
865.00,4.1372
864.00,4.1861
863.00,4.2546
862.00,4.2501
861.00,4.1846
860.00,4.1262
859.00,4.1337
858.00,4.2614
857.00,4.4119
856.00,4.4073
855.00,4.3923
854.00,4.3927
853.00,4.3780
852.00,4.3347
851.00,4.2569
850.00,4.2029
849.00,4.3458
848.00,4.5877
847.00,4.3286
846.00,4.2683
845.00,4.3395
844.00,4.1762
843.00,4.0037
842.00,3.9089
841.00,3.8707
840.00,3.8597
839.00,3.8957
838.00,4.0035
837.00,4.1100
836.00,4.1464
835.00,4.1225
834.00,3.9918
833.00,3.8526
832.00,3.8034
831.00,3.8510
830.00,3.9826
829.00,4.1029
828.00,4.0720
827.00,3.9899
826.00,3.9057
825.00,3.8234
824.00,3.8000
823.00,3.8392
822.00,3.8947
821.00,3.9051
820.00,3.9221
819.00,4.0160
818.00,4.3624
817.00,4.8720
816.00,4.7086
815.00,4.8702
814.00,4.3398
813.00,4.1101
812.00,4.1361
811.00,4.1107
810.00,3.8955
809.00,3.7057
808.00,3.6347
807.00,3.6693
806.00,3.8069
805.00,3.9549
804.00,3.9925
803.00,4.0089
802.00,4.0173
801.00,3.9522
800.00,3.8595
799.00,3.7865
798.00,3.7540
797.00,3.7664
796.00,3.8247
795.00,3.9507
794.00,4.0968
793.00,4.1210
792.00,4.1393
791.00,4.1708
790.00,4.1523
789.00,4.2853
788.00,4.2963
787.00,4.0004
786.00,3.8660
785.00,3.8335
784.00,3.8165
783.00,3.8098
782.00,3.8178
781.00,3.8492
780.00,3.8922
779.00,3.9387
778.00,3.9855
777.00,4.0942
776.00,4.4370
775.00,4.5087
774.00,4.1697
773.00,4.1744
772.00,4.3652
771.00,4.4631
770.00,4.4201
769.00,4.3130
768.00,4.1842
767.00,4.0726
766.00,3.9851
765.00,3.9267
764.00,3.9394
763.00,4.0111
762.00,4.0614
761.00,4.1334
760.00,4.4414
759.00,4.6874
758.00,4.3693
757.00,4.2898
756.00,4.3236
755.00,4.3760
754.00,4.2393
753.00,4.0283
752.00,3.9639
751.00,4.0459
750.00,4.2381
749.00,4.4544
748.00,4.6710
747.00,4.8304
746.00,4.8625
745.00,4.4426
744.00,4.0650
743.00,3.9107
742.00,3.9066
741.00,3.9557
740.00,3.9956
739.00,4.0214
738.00,4.2040
737.00,4.7195
736.00,4.4703
735.00,4.2546
734.00,4.3296
733.00,4.4823
732.00,4.3825
731.00,4.1833
730.00,4.1258
729.00,4.1814
728.00,4.3628
727.00,4.6656
726.00,4.9404
725.00,5.0677
724.00,4.6761
723.00,4.3526
722.00,4.2396
721.00,4.3458
720.00,4.3746
719.00,4.0186
718.00,3.7991
717.00,3.7194
716.00,3.7356
715.00,3.8109
714.00,3.8687
713.00,3.8923
712.00,3.9312
711.00,4.0376
710.00,4.1455
709.00,4.2798
708.00,4.6904
707.00,4.8407
706.00,4.6035
705.00,4.3483
704.00,4.0785
703.00,4.0292
702.00,4.0149
701.00,3.8481
700.00,3.7435
