Created as New Dataset,Sample 039 By Administrator Date Wednesday, November 24 2021
cm-1,A
7502.00,0.7104
7501.00,0.7166
7500.00,0.7229
7499.00,0.7293
7498.00,0.7358
7497.00,0.7424
7496.00,0.7491
7495.00,0.7559
7494.00,0.7629
7493.00,0.7696
7492.00,0.7766
7491.00,0.7839
7490.00,0.7906
7489.00,0.7965
7488.00,0.8025
7487.00,0.8089
7486.00,0.8151
7485.00,0.8199
7484.00,0.8235
7483.00,0.8269
7482.00,0.8310
7481.00,0.8355
7480.00,0.8396
7479.00,0.8430
7478.00,0.8462
7477.00,0.8495
7476.00,0.8528
7475.00,0.8559
7474.00,0.8588
7473.00,0.8617
7472.00,0.8643
7471.00,0.8662
7470.00,0.8669
7469.00,0.8664
7468.00,0.8651
7467.00,0.8636
7466.00,0.8620
7465.00,0.8596
7464.00,0.8563
7463.00,0.8525
7462.00,0.8489
7461.00,0.8456
7460.00,0.8420
7459.00,0.8374
7458.00,0.8321
7457.00,0.8269
7456.00,0.8222
7455.00,0.8177
7454.00,0.8132
7453.00,0.8081
7452.00,0.8028
7451.00,0.7972
7450.00,0.7912
7449.00,0.7846
7448.00,0.7778
7447.00,0.7711
7446.00,0.7648
7445.00,0.7583
7444.00,0.7509
7443.00,0.7425
7442.00,0.7339
7441.00,0.7260
7440.00,0.7187
7439.00,0.7112
7438.00,0.7032
7437.00,0.6952
7436.00,0.6875
7435.00,0.6801
7434.00,0.6729
7433.00,0.6654
7432.00,0.6576
7431.00,0.6500
7430.00,0.6431
7429.00,0.6374
7428.00,0.6329
7427.00,0.6293
7426.00,0.6260
7425.00,0.6226
7424.00,0.6189
7423.00,0.6146
7422.00,0.6098
7421.00,0.6047
7420.00,0.5991
7419.00,0.5932
7418.00,0.5875
7417.00,0.5822
7416.00,0.5776
7415.00,0.5732
7414.00,0.5692
7413.00,0.5654
7412.00,0.5623
7411.00,0.5597
7410.00,0.5576
7409.00,0.5557
7408.00,0.5540
7407.00,0.5529
7406.00,0.5524
7405.00,0.5522
7404.00,0.5520
7403.00,0.5518
7402.00,0.5520
7401.00,0.5529
7400.00,0.5540
7399.00,0.5553
7398.00,0.5568
7397.00,0.5589
7396.00,0.5617
7395.00,0.5650
7394.00,0.5685
7393.00,0.5724
7392.00,0.5768
7391.00,0.5817
7390.00,0.5868
7389.00,0.5921
7388.00,0.5978
7387.00,0.6040
7386.00,0.6107
7385.00,0.6178
7384.00,0.6250
7383.00,0.6324
7382.00,0.6401
7381.00,0.6481
7380.00,0.6564
7379.00,0.6647
7378.00,0.6730
7377.00,0.6813
7376.00,0.6898
7375.00,0.6985
7374.00,0.7074
7373.00,0.7164
7372.00,0.7253
7371.00,0.7342
7370.00,0.7434
7369.00,0.7528
7368.00,0.7623
7367.00,0.7717
7366.00,0.7811
7365.00,0.7904
7364.00,0.7996
7363.00,0.8085
7362.00,0.8170
7361.00,0.8256
7360.00,0.8341
7359.00,0.8426
7358.00,0.8508
7357.00,0.8589
7356.00,0.8669
7355.00,0.8751
7354.00,0.8835
7353.00,0.8918
7352.00,0.9001
7351.00,0.9086
7350.00,0.9172
7349.00,0.9252
7348.00,0.9320
7347.00,0.9378
7346.00,0.9435
7345.00,0.9497
7344.00,0.9560
7343.00,0.9618
7342.00,0.9673
7341.00,0.9732
7340.00,0.9792
7339.00,0.9847
7338.00,0.9889
7337.00,0.9920
7336.00,0.9946
7335.00,0.9971
7334.00,0.9997
7333.00,1.0024
7332.00,1.0048
7331.00,1.0070
7330.00,1.0089
7329.00,1.0106
7328.00,1.0121
7327.00,1.0133
7326.00,1.0142
7325.00,1.0149
7324.00,1.0154
7323.00,1.0157
7322.00,1.0156
7321.00,1.0149
7320.00,1.0138
7319.00,1.0125
7318.00,1.0112
7317.00,1.0099
7316.00,1.0084
7315.00,1.0064
7314.00,1.0041
7313.00,1.0013
7312.00,0.9979
7311.00,0.9936
7310.00,0.9885
7309.00,0.9831
7308.00,0.9773
7307.00,0.9710
7306.00,0.9643
7305.00,0.9576
7304.00,0.9514
7303.00,0.9458
7302.00,0.9403
7301.00,0.9345
7300.00,0.9279
7299.00,0.9205
7298.00,0.9128
7297.00,0.9052
7296.00,0.8977
7295.00,0.8899
7294.00,0.8817
7293.00,0.8736
7292.00,0.8661
7291.00,0.8589
7290.00,0.8513
7289.00,0.8427
7288.00,0.8335
7287.00,0.8244
7286.00,0.8159
7285.00,0.8078
7284.00,0.7996
7283.00,0.7912
7282.00,0.7829
7281.00,0.7749
7280.00,0.7669
7279.00,0.7589
7278.00,0.7512
7277.00,0.7438
7276.00,0.7366
7275.00,0.7294
7274.00,0.7225
7273.00,0.7163
7272.00,0.7106
7271.00,0.7050
7270.00,0.6996
7269.00,0.6947
7268.00,0.6905
7267.00,0.6867
7266.00,0.6829
7265.00,0.6791
7264.00,0.6758
7263.00,0.6730
7262.00,0.6708
7261.00,0.6688
7260.00,0.6673
7259.00,0.6665
7258.00,0.6666
7257.00,0.6675
7256.00,0.6685
7255.00,0.6696
7254.00,0.6710
7253.00,0.6733
7252.00,0.6764
7251.00,0.6801
7250.00,0.6840
7249.00,0.6883
7248.00,0.6929
7247.00,0.6981
7246.00,0.7035
7245.00,0.7091
7244.00,0.7147
7243.00,0.7204
7242.00,0.7266
7241.00,0.7334
7240.00,0.7407
7239.00,0.7482
7238.00,0.7555
7237.00,0.7627
7236.00,0.7701
7235.00,0.7777
7234.00,0.7858
7233.00,0.7944
7232.00,0.8033
7231.00,0.8121
7230.00,0.8208
7229.00,0.8294
7228.00,0.8381
7227.00,0.8468
7226.00,0.8551
7225.00,0.8631
7224.00,0.8709
7223.00,0.8789
7222.00,0.8872
7221.00,0.8958
7220.00,0.9042
7219.00,0.9124
7218.00,0.9204
7217.00,0.9286
7216.00,0.9368
7215.00,0.9450
7214.00,0.9528
7213.00,0.9601
7212.00,0.9670
7211.00,0.9737
7210.00,0.9803
7209.00,0.9866
7208.00,0.9927
7207.00,0.9986
7206.00,1.0046
7205.00,1.0106
7204.00,1.0166
7203.00,1.0225
7202.00,1.0281
7201.00,1.0333
7200.00,1.0378
7199.00,1.0417
7198.00,1.0452
7197.00,1.0484
7196.00,1.0515
7195.00,1.0549
7194.00,1.0583
7193.00,1.0613
7192.00,1.0632
7191.00,1.0646
7190.00,1.0662
7189.00,1.0683
7188.00,1.0702
7187.00,1.0709
7186.00,1.0706
7185.00,1.0701
7184.00,1.0696
7183.00,1.0688
7182.00,1.0674
7181.00,1.0656
7180.00,1.0640
7179.00,1.0630
7178.00,1.0620
7177.00,1.0603
7176.00,1.0575
7175.00,1.0537
7174.00,1.0497
7173.00,1.0458
7172.00,1.0419
7171.00,1.0373
7170.00,1.0319
7169.00,1.0259
7168.00,1.0198
7167.00,1.0139
7166.00,1.0080
7165.00,1.0017
7164.00,0.9949
7163.00,0.9880
7162.00,0.9813
7161.00,0.9747
7160.00,0.9679
7159.00,0.9604
7158.00,0.9524
7157.00,0.9443
7156.00,0.9364
7155.00,0.9288
7154.00,0.9215
7153.00,0.9142
7152.00,0.9066
7151.00,0.8986
7150.00,0.8903
7149.00,0.8816
7148.00,0.8726
7147.00,0.8633
7146.00,0.8540
7145.00,0.8449
7144.00,0.8362
7143.00,0.8279
7142.00,0.8198
7141.00,0.8118
7140.00,0.8041
7139.00,0.7969
7138.00,0.7901
7137.00,0.7835
7136.00,0.7770
7135.00,0.7706
7134.00,0.7643
7133.00,0.7580
7132.00,0.7516
7131.00,0.7452
7130.00,0.7390
7129.00,0.7332
7128.00,0.7278
7127.00,0.7229
7126.00,0.7184
7125.00,0.7143
7124.00,0.7105
7123.00,0.7070
7122.00,0.7042
7121.00,0.7021
7120.00,0.7006
7119.00,0.6993
7118.00,0.6984
7117.00,0.6979
7116.00,0.6981
7115.00,0.6988
7114.00,0.6998
7113.00,0.7011
7112.00,0.7027
7111.00,0.7049
7110.00,0.7079
7109.00,0.7115
7108.00,0.7156
7107.00,0.7202
7106.00,0.7251
7105.00,0.7301
7104.00,0.7352
7103.00,0.7404
7102.00,0.7458
7101.00,0.7515
7100.00,0.7577
7099.00,0.7642
7098.00,0.7711
7097.00,0.7784
7096.00,0.7861
7095.00,0.7941
7094.00,0.8023
7093.00,0.8105
7092.00,0.8186
7091.00,0.8266
7090.00,0.8348
7089.00,0.8436
7088.00,0.8526
7087.00,0.8614
7086.00,0.8702
7085.00,0.8789
7084.00,0.8877
7083.00,0.8964
7082.00,0.9049
7081.00,0.9135
7080.00,0.9221
7079.00,0.9307
7078.00,0.9393
7077.00,0.9481
7076.00,0.9568
7075.00,0.9655
7074.00,0.9738
7073.00,0.9819
7072.00,0.9900
7071.00,0.9980
7070.00,1.0057
7069.00,1.0132
7068.00,1.0208
7067.00,1.0286
7066.00,1.0364
7065.00,1.0437
7064.00,1.0505
7063.00,1.0571
7062.00,1.0636
7061.00,1.0697
7060.00,1.0749
7059.00,1.0792
7058.00,1.0832
7057.00,1.0877
7056.00,1.0930
7055.00,1.0984
7054.00,1.1032
7053.00,1.1072
7052.00,1.1108
7051.00,1.1143
7050.00,1.1181
7049.00,1.1218
7048.00,1.1249
7047.00,1.1271
7046.00,1.1288
7045.00,1.1303
7044.00,1.1315
7043.00,1.1320
7042.00,1.1314
7041.00,1.1304
7040.00,1.1295
7039.00,1.1291
7038.00,1.1288
7037.00,1.1283
7036.00,1.1271
7035.00,1.1252
7034.00,1.1229
7033.00,1.1206
7032.00,1.1185
7031.00,1.1163
7030.00,1.1135
7029.00,1.1102
7028.00,1.1065
7027.00,1.1026
7026.00,1.0981
7025.00,1.0930
7024.00,1.0875
7023.00,1.0820
7022.00,1.0764
7021.00,1.0707
7020.00,1.0645
7019.00,1.0578
7018.00,1.0506
7017.00,1.0431
7016.00,1.0355
7015.00,1.0278
7014.00,1.0201
7013.00,1.0125
7012.00,1.0048
7011.00,0.9970
7010.00,0.9889
7009.00,0.9805
7008.00,0.9716
7007.00,0.9623
7006.00,0.9530
7005.00,0.9437
7004.00,0.9344
7003.00,0.9251
7002.00,0.9156
7001.00,0.9063
7000.00,0.8971
6999.00,0.8878
6998.00,0.8786
6997.00,0.8694
6996.00,0.8605
6995.00,0.8518
6994.00,0.8432
6993.00,0.8347
6992.00,0.8265
6991.00,0.8186
6990.00,0.8110
6989.00,0.8036
6988.00,0.7965
6987.00,0.7899
6986.00,0.7839
6985.00,0.7784
6984.00,0.7734
6983.00,0.7686
6982.00,0.7644
6981.00,0.7605
6980.00,0.7568
6979.00,0.7533
6978.00,0.7503
6977.00,0.7479
6976.00,0.7459
6975.00,0.7444
6974.00,0.7434
6973.00,0.7433
6972.00,0.7438
6971.00,0.7447
6970.00,0.7460
6969.00,0.7478
6968.00,0.7503
6967.00,0.7532
6966.00,0.7565
6965.00,0.7602
6964.00,0.7644
6963.00,0.7691
6962.00,0.7740
6961.00,0.7793
6960.00,0.7849
6959.00,0.7911
6958.00,0.7977
6957.00,0.8045
6956.00,0.8113
6955.00,0.8182
6954.00,0.8255
6953.00,0.8331
6952.00,0.8407
6951.00,0.8484
6950.00,0.8562
6949.00,0.8645
6948.00,0.8731
6947.00,0.8819
6946.00,0.8906
6945.00,0.8991
6944.00,0.9076
6943.00,0.9160
6942.00,0.9244
6941.00,0.9329
6940.00,0.9414
6939.00,0.9499
6938.00,0.9585
6937.00,0.9672
6936.00,0.9760
6935.00,0.9849
6934.00,0.9937
6933.00,1.0023
6932.00,1.0104
6931.00,1.0182
6930.00,1.0259
6929.00,1.0334
6928.00,1.0407
6927.00,1.0479
6926.00,1.0548
6925.00,1.0617
6924.00,1.0682
6923.00,1.0745
6922.00,1.0805
6921.00,1.0862
6920.00,1.0918
6919.00,1.0975
6918.00,1.1034
6917.00,1.1092
6916.00,1.1147
6915.00,1.1195
6914.00,1.1236
6913.00,1.1270
6912.00,1.1296
6911.00,1.1318
6910.00,1.1341
6909.00,1.1366
6908.00,1.1388
6907.00,1.1407
6906.00,1.1425
6905.00,1.1441
6904.00,1.1452
6903.00,1.1457
6902.00,1.1459
6901.00,1.1462
6900.00,1.1463
6899.00,1.1457
6898.00,1.1446
6897.00,1.1433
6896.00,1.1418
6895.00,1.1398
6894.00,1.1371
6893.00,1.1345
6892.00,1.1320
6891.00,1.1294
6890.00,1.1262
6889.00,1.1220
6888.00,1.1171
6887.00,1.1119
6886.00,1.1066
6885.00,1.1012
6884.00,1.0953
6883.00,1.0889
6882.00,1.0823
6881.00,1.0755
6880.00,1.0689
6879.00,1.0622
6878.00,1.0553
6877.00,1.0483
6876.00,1.0413
6875.00,1.0340
6874.00,1.0262
6873.00,1.0179
6872.00,1.0090
6871.00,0.9997
6870.00,0.9903
6869.00,0.9809
6868.00,0.9716
6867.00,0.9624
6866.00,0.9535
6865.00,0.9447
6864.00,0.9358
6863.00,0.9268
6862.00,0.9175
6861.00,0.9082
6860.00,0.8988
6859.00,0.8892
6858.00,0.8796
6857.00,0.8701
6856.00,0.8607
6855.00,0.8515
6854.00,0.8425
6853.00,0.8339
6852.00,0.8256
6851.00,0.8179
6850.00,0.8106
6849.00,0.8038
6848.00,0.7972
6847.00,0.7908
6846.00,0.7846
6845.00,0.7785
6844.00,0.7725
6843.00,0.7668
6842.00,0.7617
6841.00,0.7573
6840.00,0.7535
6839.00,0.7500
6838.00,0.7470
6837.00,0.7442
6836.00,0.7418
6835.00,0.7397
6834.00,0.7383
6833.00,0.7376
6832.00,0.7376
6831.00,0.7379
6830.00,0.7386
6829.00,0.7397
6828.00,0.7413
6827.00,0.7432
6826.00,0.7456
6825.00,0.7484
6824.00,0.7518
6823.00,0.7557
6822.00,0.7602
6821.00,0.7653
6820.00,0.7708
6819.00,0.7764
6818.00,0.7820
6817.00,0.7878
6816.00,0.7941
6815.00,0.8009
6814.00,0.8078
6813.00,0.8149
6812.00,0.8223
6811.00,0.8303
6810.00,0.8389
6809.00,0.8477
6808.00,0.8564
6807.00,0.8650
6806.00,0.8737
6805.00,0.8827
6804.00,0.8918
6803.00,0.9008
6802.00,0.9096
6801.00,0.9183
6800.00,0.9271
6799.00,0.9360
6798.00,0.9450
6797.00,0.9541
6796.00,0.9635
6795.00,0.9729
6794.00,0.9822
6793.00,0.9912
6792.00,1.0000
6791.00,1.0090
6790.00,1.0181
6789.00,1.0269
6788.00,1.0354
6787.00,1.0437
6786.00,1.0520
6785.00,1.0600
6784.00,1.0676
6783.00,1.0749
6782.00,1.0823
6781.00,1.0899
6780.00,1.0973
6779.00,1.1041
6778.00,1.1105
6777.00,1.1164
6776.00,1.1219
6775.00,1.1268
6774.00,1.1318
6773.00,1.1373
6772.00,1.1431
6771.00,1.1487
6770.00,1.1539
6769.00,1.1586
6768.00,1.1626
6767.00,1.1660
6766.00,1.1688
6765.00,1.1713
6764.00,1.1737
6763.00,1.1758
6762.00,1.1774
6761.00,1.1787
6760.00,1.1798
6759.00,1.1809
6758.00,1.1819
6757.00,1.1826
6756.00,1.1830
6755.00,1.1830
6754.00,1.1824
6753.00,1.1812
6752.00,1.1794
6751.00,1.1770
6750.00,1.1743
6749.00,1.1716
6748.00,1.1689
6747.00,1.1662
6746.00,1.1632
6745.00,1.1597
6744.00,1.1557
6743.00,1.1513
6742.00,1.1463
6741.00,1.1410
6740.00,1.1355
6739.00,1.1298
6738.00,1.1240
6737.00,1.1180
6736.00,1.1117
6735.00,1.1052
6734.00,1.0986
6733.00,1.0918
6732.00,1.0846
6731.00,1.0770
6730.00,1.0688
6729.00,1.0604
6728.00,1.0516
6727.00,1.0426
6726.00,1.0334
6725.00,1.0240
6724.00,1.0146
6723.00,1.0050
6722.00,0.9953
6721.00,0.9854
6720.00,0.9755
6719.00,0.9656
6718.00,0.9558
6717.00,0.9460
6716.00,0.9362
6715.00,0.9262
6714.00,0.9162
6713.00,0.9062
6712.00,0.8964
6711.00,0.8867
6710.00,0.8773
6709.00,0.8682
6708.00,0.8594
6707.00,0.8508
6706.00,0.8424
6705.00,0.8342
6704.00,0.8263
6703.00,0.8187
6702.00,0.8116
6701.00,0.8049
6700.00,0.7987
6699.00,0.7930
6698.00,0.7877
6697.00,0.7828
6696.00,0.7784
6695.00,0.7746
6694.00,0.7714
6693.00,0.7687
6692.00,0.7665
6691.00,0.7648
6690.00,0.7637
6689.00,0.7632
6688.00,0.7631
6687.00,0.7637
6686.00,0.7649
6685.00,0.7665
6684.00,0.7685
6683.00,0.7708
6682.00,0.7737
6681.00,0.7772
6680.00,0.7812
6679.00,0.7855
6678.00,0.7902
6677.00,0.7952
6676.00,0.8006
6675.00,0.8065
6674.00,0.8127
6673.00,0.8192
6672.00,0.8261
6671.00,0.8335
6670.00,0.8415
6669.00,0.8500
6668.00,0.8586
6667.00,0.8671
6666.00,0.8757
6665.00,0.8843
6664.00,0.8930
6663.00,0.9017
6662.00,0.9104
6661.00,0.9192
6660.00,0.9281
6659.00,0.9371
6658.00,0.9461
6657.00,0.9552
6656.00,0.9643
6655.00,0.9734
6654.00,0.9826
6653.00,0.9919
6652.00,1.0010
6651.00,1.0099
6650.00,1.0188
6649.00,1.0278
6648.00,1.0365
6647.00,1.0448
6646.00,1.0527
6645.00,1.0605
6644.00,1.0683
6643.00,1.0759
6642.00,1.0834
6641.00,1.0906
6640.00,1.0978
6639.00,1.1049
6638.00,1.1119
6637.00,1.1186
6636.00,1.1249
6635.00,1.1306
6634.00,1.1359
6633.00,1.1409
6632.00,1.1456
6631.00,1.1499
6630.00,1.1542
6629.00,1.1583
6628.00,1.1621
6627.00,1.1655
6626.00,1.1685
6625.00,1.1712
6624.00,1.1735
6623.00,1.1751
6622.00,1.1760
6621.00,1.1767
6620.00,1.1777
6619.00,1.1788
6618.00,1.1798
6617.00,1.1805
6616.00,1.1806
6615.00,1.1804
6614.00,1.1799
6613.00,1.1790
6612.00,1.1774
6611.00,1.1751
6610.00,1.1724
6609.00,1.1695
6608.00,1.1664
6607.00,1.1630
6606.00,1.1593
6605.00,1.1554
6604.00,1.1511
6603.00,1.1465
6602.00,1.1417
6601.00,1.1367
6600.00,1.1311
6599.00,1.1250
6598.00,1.1185
6597.00,1.1119
6596.00,1.1051
6595.00,1.0979
6594.00,1.0903
6593.00,1.0825
6592.00,1.0745
6591.00,1.0662
6590.00,1.0575
6589.00,1.0486
6588.00,1.0394
6587.00,1.0302
6586.00,1.0212
6585.00,1.0124
6584.00,1.0036
6583.00,0.9944
6582.00,0.9849
6581.00,0.9752
6580.00,0.9652
6579.00,0.9550
6578.00,0.9449
6577.00,0.9349
6576.00,0.9250
6575.00,0.9152
6574.00,0.9056
6573.00,0.8960
6572.00,0.8865
6571.00,0.8769
6570.00,0.8674
6569.00,0.8583
6568.00,0.8497
6567.00,0.8413
6566.00,0.8331
6565.00,0.8250
6564.00,0.8172
6563.00,0.8097
6562.00,0.8026
6561.00,0.7956
6560.00,0.7889
6559.00,0.7826
6558.00,0.7767
6557.00,0.7714
6556.00,0.7666
6555.00,0.7621
6554.00,0.7582
6553.00,0.7547
6552.00,0.7517
6551.00,0.7492
6550.00,0.7471
6549.00,0.7456
6548.00,0.7446
6547.00,0.7440
6546.00,0.7441
6545.00,0.7448
6544.00,0.7462
6543.00,0.7479
6542.00,0.7500
6541.00,0.7525
6540.00,0.7555
6539.00,0.7591
6538.00,0.7630
6537.00,0.7676
6536.00,0.7727
6535.00,0.7784
6534.00,0.7845
6533.00,0.7910
6532.00,0.7977
6531.00,0.8046
6530.00,0.8118
6529.00,0.8193
6528.00,0.8272
6527.00,0.8354
6526.00,0.8439
6525.00,0.8527
6524.00,0.8616
6523.00,0.8706
6522.00,0.8798
6521.00,0.8892
6520.00,0.8988
6519.00,0.9083
6518.00,0.9179
6517.00,0.9275
6516.00,0.9371
6515.00,0.9466
6514.00,0.9560
6513.00,0.9655
6512.00,0.9752
6511.00,0.9849
6510.00,0.9946
6509.00,1.0042
6508.00,1.0136
6507.00,1.0228
6506.00,1.0317
6505.00,1.0403
6504.00,1.0486
6503.00,1.0571
6502.00,1.0657
6501.00,1.0742
6500.00,1.0826
6499.00,1.0907
6498.00,1.0987
6497.00,1.1065
6496.00,1.1140
6495.00,1.1211
6494.00,1.1280
6493.00,1.1347
6492.00,1.1412
6491.00,1.1473
6490.00,1.1529
6489.00,1.1581
6488.00,1.1629
6487.00,1.1675
6486.00,1.1723
6485.00,1.1771
6484.00,1.1816
6483.00,1.1857
6482.00,1.1891
6481.00,1.1922
6480.00,1.1948
6479.00,1.1970
6478.00,1.1988
6477.00,1.2005
6476.00,1.2020
6475.00,1.2032
6474.00,1.2041
6473.00,1.2042
6472.00,1.2037
6471.00,1.2028
6470.00,1.2016
6469.00,1.2002
6468.00,1.1985
6467.00,1.1967
6466.00,1.1948
6465.00,1.1927
6464.00,1.1901
6463.00,1.1869
6462.00,1.1831
6461.00,1.1789
6460.00,1.1744
6459.00,1.1698
6458.00,1.1646
6457.00,1.1591
6456.00,1.1534
6455.00,1.1478
6454.00,1.1419
6453.00,1.1354
6452.00,1.1283
6451.00,1.1213
6450.00,1.1143
6449.00,1.1071
6448.00,1.0991
6447.00,1.0906
6446.00,1.0821
6445.00,1.0735
6444.00,1.0645
6443.00,1.0549
6442.00,1.0447
6441.00,1.0344
6440.00,1.0241
6439.00,1.0138
6438.00,1.0037
6437.00,0.9936
6436.00,0.9835
6435.00,0.9733
6434.00,0.9629
6433.00,0.9524
6432.00,0.9416
6431.00,0.9307
6430.00,0.9200
6429.00,0.9097
6428.00,0.8996
6427.00,0.8895
6426.00,0.8794
6425.00,0.8694
6424.00,0.8595
6423.00,0.8498
6422.00,0.8405
6421.00,0.8317
6420.00,0.8233
6419.00,0.8152
6418.00,0.8077
6417.00,0.8005
6416.00,0.7938
6415.00,0.7873
6414.00,0.7812
6413.00,0.7756
6412.00,0.7705
6411.00,0.7659
6410.00,0.7618
6409.00,0.7584
6408.00,0.7556
6407.00,0.7533
6406.00,0.7514
6405.00,0.7502
6404.00,0.7497
6403.00,0.7497
6402.00,0.7504
6401.00,0.7517
6400.00,0.7537
6399.00,0.7563
6398.00,0.7594
6397.00,0.7630
6396.00,0.7670
6395.00,0.7713
6394.00,0.7761
6393.00,0.7814
6392.00,0.7873
6391.00,0.7937
6390.00,0.8004
6389.00,0.8074
6388.00,0.8147
6387.00,0.8221
6386.00,0.8298
6385.00,0.8379
6384.00,0.8463
6383.00,0.8551
6382.00,0.8642
6381.00,0.8736
6380.00,0.8829
6379.00,0.8922
6378.00,0.9014
6377.00,0.9106
6376.00,0.9198
6375.00,0.9291
6374.00,0.9388
6373.00,0.9486
6372.00,0.9584
6371.00,0.9679
6370.00,0.9775
6369.00,0.9871
6368.00,0.9967
6367.00,1.0061
6366.00,1.0155
6365.00,1.0250
6364.00,1.0344
6363.00,1.0436
6362.00,1.0525
6361.00,1.0612
6360.00,1.0697
6359.00,1.0780
6358.00,1.0859
6357.00,1.0934
6356.00,1.1005
6355.00,1.1073
6354.00,1.1141
6353.00,1.1209
6352.00,1.1275
6351.00,1.1336
6350.00,1.1395
6349.00,1.1454
6348.00,1.1510
6347.00,1.1560
6346.00,1.1604
6345.00,1.1647
6344.00,1.1688
6343.00,1.1727
6342.00,1.1761
6341.00,1.1791
6340.00,1.1819
6339.00,1.1844
6338.00,1.1867
6337.00,1.1888
6336.00,1.1908
6335.00,1.1927
6334.00,1.1943
6333.00,1.1958
6332.00,1.1970
6331.00,1.1977
6330.00,1.1978
6329.00,1.1973
6328.00,1.1964
6327.00,1.1951
6326.00,1.1935
6325.00,1.1913
6324.00,1.1883
6323.00,1.1848
6322.00,1.1810
6321.00,1.1771
6320.00,1.1732
6319.00,1.1690
6318.00,1.1645
6317.00,1.1597
6316.00,1.1542
6315.00,1.1479
6314.00,1.1407
6313.00,1.1331
6312.00,1.1253
6311.00,1.1175
6310.00,1.1097
6309.00,1.1017
6308.00,1.0936
6307.00,1.0851
6306.00,1.0762
6305.00,1.0670
6304.00,1.0576
6303.00,1.0480
6302.00,1.0381
6301.00,1.0281
6300.00,1.0179
6299.00,1.0076
6298.00,0.9973
6297.00,0.9870
6296.00,0.9764
6295.00,0.9655
6294.00,0.9546
6293.00,0.9438
6292.00,0.9330
6291.00,0.9222
6290.00,0.9115
6289.00,0.9009
6288.00,0.8906
6287.00,0.8804
6286.00,0.8702
6285.00,0.8602
6284.00,0.8503
6283.00,0.8404
6282.00,0.8308
6281.00,0.8213
6280.00,0.8121
6279.00,0.8030
6278.00,0.7943
6277.00,0.7862
6276.00,0.7788
6275.00,0.7718
6274.00,0.7651
6273.00,0.7588
6272.00,0.7529
6271.00,0.7476
6270.00,0.7428
6269.00,0.7384
6268.00,0.7346
6267.00,0.7313
6266.00,0.7287
6265.00,0.7265
6264.00,0.7249
6263.00,0.7238
6262.00,0.7235
6261.00,0.7239
6260.00,0.7249
6259.00,0.7264
6258.00,0.7284
6257.00,0.7309
6256.00,0.7339
6255.00,0.7375
6254.00,0.7416
6253.00,0.7464
6252.00,0.7518
6251.00,0.7575
6250.00,0.7636
6249.00,0.7702
6248.00,0.7772
6247.00,0.7845
6246.00,0.7923
6245.00,0.8005
6244.00,0.8090
6243.00,0.8177
6242.00,0.8267
6241.00,0.8358
6240.00,0.8449
6239.00,0.8541
6238.00,0.8636
6237.00,0.8733
6236.00,0.8832
6235.00,0.8932
6234.00,0.9033
6233.00,0.9136
6232.00,0.9240
6231.00,0.9341
6230.00,0.9440
6229.00,0.9538
6228.00,0.9636
6227.00,0.9735
6226.00,0.9835
6225.00,0.9936
6224.00,1.0037
6223.00,1.0137
6222.00,1.0235
6221.00,1.0331
6220.00,1.0425
6219.00,1.0518
6218.00,1.0610
6217.00,1.0702
6216.00,1.0793
6215.00,1.0881
6214.00,1.0963
6213.00,1.1039
6212.00,1.1110
6211.00,1.1178
6210.00,1.1244
6209.00,1.1310
6208.00,1.1377
6207.00,1.1444
6206.00,1.1508
6205.00,1.1567
6204.00,1.1623
6203.00,1.1675
6202.00,1.1724
6201.00,1.1768
6200.00,1.1809
6199.00,1.1847
6198.00,1.1884
6197.00,1.1918
6196.00,1.1945
6195.00,1.1965
6194.00,1.1981
6193.00,1.1996
6192.00,1.2008
6191.00,1.2015
6190.00,1.2018
6189.00,1.2019
6188.00,1.2020
6187.00,1.2020
6186.00,1.2017
6185.00,1.2010
6184.00,1.1997
6183.00,1.1981
6182.00,1.1959
6181.00,1.1931
6180.00,1.1897
6179.00,1.1861
6178.00,1.1826
6177.00,1.1792
6176.00,1.1756
6175.00,1.1713
6174.00,1.1663
6173.00,1.1608
6172.00,1.1549
6171.00,1.1487
6170.00,1.1422
6169.00,1.1355
6168.00,1.1286
6167.00,1.1213
6166.00,1.1137
6165.00,1.1055
6164.00,1.0969
6163.00,1.0882
6162.00,1.0794
6161.00,1.0704
6160.00,1.0610
6159.00,1.0510
6158.00,1.0407
6157.00,1.0302
6156.00,1.0197
6155.00,1.0089
6154.00,0.9980
6153.00,0.9867
6152.00,0.9753
6151.00,0.9639
6150.00,0.9525
6149.00,0.9413
6148.00,0.9301
6147.00,0.9190
6146.00,0.9079
6145.00,0.8966
6144.00,0.8851
6143.00,0.8736
6142.00,0.8624
6141.00,0.8514
6140.00,0.8408
6139.00,0.8304
6138.00,0.8203
6137.00,0.8104
6136.00,0.8009
6135.00,0.7917
6134.00,0.7830
6133.00,0.7749
6132.00,0.7673
6131.00,0.7600
6130.00,0.7532
6129.00,0.7469
6128.00,0.7410
6127.00,0.7357
6126.00,0.7310
6125.00,0.7271
6124.00,0.7238
6123.00,0.7210
6122.00,0.7188
6121.00,0.7173
6120.00,0.7165
6119.00,0.7163
6118.00,0.7168
6117.00,0.7181
6116.00,0.7201
6115.00,0.7227
6114.00,0.7258
6113.00,0.7294
6112.00,0.7336
6111.00,0.7383
6110.00,0.7437
6109.00,0.7495
6108.00,0.7558
6107.00,0.7625
6106.00,0.7695
6105.00,0.7769
6104.00,0.7847
6103.00,0.7928
6102.00,0.8014
6101.00,0.8103
6100.00,0.8195
6099.00,0.8289
6098.00,0.8384
6097.00,0.8482
6096.00,0.8580
6095.00,0.8681
6094.00,0.8782
6093.00,0.8883
6092.00,0.8984
6091.00,0.9086
6090.00,0.9189
6089.00,0.9292
6088.00,0.9394
6087.00,0.9494
6086.00,0.9596
6085.00,0.9697
6084.00,0.9798
6083.00,0.9898
6082.00,0.9998
6081.00,1.0097
6080.00,1.0194
6079.00,1.0288
6078.00,1.0382
6077.00,1.0475
6076.00,1.0567
6075.00,1.0658
6074.00,1.0747
6073.00,1.0834
6072.00,1.0916
6071.00,1.0992
6070.00,1.1064
6069.00,1.1133
6068.00,1.1199
6067.00,1.1261
6066.00,1.1321
6065.00,1.1379
6064.00,1.1437
6063.00,1.1493
6062.00,1.1544
6061.00,1.1590
6060.00,1.1632
6059.00,1.1672
6058.00,1.1710
6057.00,1.1745
6056.00,1.1777
6055.00,1.1807
6054.00,1.1836
6053.00,1.1860
6052.00,1.1878
6051.00,1.1891
6050.00,1.1901
6049.00,1.1907
6048.00,1.1908
6047.00,1.1902
6046.00,1.1892
6045.00,1.1882
6044.00,1.1872
6043.00,1.1861
6042.00,1.1845
6041.00,1.1826
6040.00,1.1804
6039.00,1.1778
6038.00,1.1748
6037.00,1.1714
6036.00,1.1676
6035.00,1.1636
6034.00,1.1594
6033.00,1.1547
6032.00,1.1497
6031.00,1.1442
6030.00,1.1386
6029.00,1.1327
6028.00,1.1264
6027.00,1.1197
6026.00,1.1127
6025.00,1.1054
6024.00,1.0978
6023.00,1.0899
6022.00,1.0817
6021.00,1.0733
6020.00,1.0648
6019.00,1.0560
6018.00,1.0468
6017.00,1.0371
6016.00,1.0270
6015.00,1.0166
6014.00,1.0058
6013.00,0.9948
6012.00,0.9837
6011.00,0.9728
6010.00,0.9619
6009.00,0.9509
6008.00,0.9398
6007.00,0.9284
6006.00,0.9169
6005.00,0.9052
6004.00,0.8935
6003.00,0.8819
6002.00,0.8705
6001.00,0.8592
6000.00,0.8481
5999.00,0.8372
5998.00,0.8264
5997.00,0.8159
5996.00,0.8056
5995.00,0.7957
5994.00,0.7863
5993.00,0.7772
5992.00,0.7684
5991.00,0.7598
5990.00,0.7518
5989.00,0.7442
5988.00,0.7371
5987.00,0.7306
5986.00,0.7247
5985.00,0.7194
5984.00,0.7147
5983.00,0.7105
5982.00,0.7069
5981.00,0.7041
5980.00,0.7021
5979.00,0.7007
5978.00,0.7001
5977.00,0.7002
5976.00,0.7012
5975.00,0.7027
5974.00,0.7049
5973.00,0.7078
5972.00,0.7114
5971.00,0.7157
5970.00,0.7206
5969.00,0.7261
5968.00,0.7322
5967.00,0.7388
5966.00,0.7458
5965.00,0.7534
5964.00,0.7614
5963.00,0.7698
5962.00,0.7788
5961.00,0.7883
5960.00,0.7980
5959.00,0.8078
5958.00,0.8179
5957.00,0.8282
5956.00,0.8386
5955.00,0.8492
5954.00,0.8597
5953.00,0.8701
5952.00,0.8803
5951.00,0.8902
5950.00,0.9000
5949.00,0.9097
5948.00,0.9194
5947.00,0.9290
5946.00,0.9387
5945.00,0.9485
5944.00,0.9583
5943.00,0.9681
5942.00,0.9780
5941.00,0.9881
5940.00,0.9982
5939.00,1.0080
5938.00,1.0177
5937.00,1.0273
5936.00,1.0369
5935.00,1.0464
5934.00,1.0558
5933.00,1.0649
5932.00,1.0739
5931.00,1.0828
5930.00,1.0915
5929.00,1.1001
5928.00,1.1085
5927.00,1.1166
5926.00,1.1244
5925.00,1.1316
5924.00,1.1384
5923.00,1.1447
5922.00,1.1508
5921.00,1.1569
5920.00,1.1629
5919.00,1.1686
5918.00,1.1741
5917.00,1.1791
5916.00,1.1839
5915.00,1.1881
5914.00,1.1918
5913.00,1.1950
5912.00,1.1979
5911.00,1.2007
5910.00,1.2032
5909.00,1.2051
5908.00,1.2062
5907.00,1.2068
5906.00,1.2072
5905.00,1.2074
5904.00,1.2073
5903.00,1.2068
5902.00,1.2062
5901.00,1.2056
5900.00,1.2044
5899.00,1.2023
5898.00,1.1998
5897.00,1.1973
5896.00,1.1948
5895.00,1.1922
5894.00,1.1891
5893.00,1.1855
5892.00,1.1814
5891.00,1.1766
5890.00,1.1712
5889.00,1.1655
5888.00,1.1597
5887.00,1.1538
5886.00,1.1476
5885.00,1.1411
5884.00,1.1341
5883.00,1.1265
5882.00,1.1182
5881.00,1.1095
5880.00,1.1005
5879.00,1.0912
5878.00,1.0817
5877.00,1.0720
5876.00,1.0622
5875.00,1.0520
5874.00,1.0416
5873.00,1.0311
5872.00,1.0203
5871.00,1.0094
5870.00,0.9983
5869.00,0.9869
5868.00,0.9754
5867.00,0.9637
5866.00,0.9519
5865.00,0.9398
5864.00,0.9277
5863.00,0.9154
5862.00,0.9033
5861.00,0.8912
5860.00,0.8790
5859.00,0.8669
5858.00,0.8550
5857.00,0.8436
5856.00,0.8325
5855.00,0.8217
5854.00,0.8111
5853.00,0.8008
5852.00,0.7908
5851.00,0.7811
5850.00,0.7719
5849.00,0.7633
5848.00,0.7553
5847.00,0.7479
5846.00,0.7410
5845.00,0.7346
5844.00,0.7288
5843.00,0.7236
5842.00,0.7191
5841.00,0.7154
5840.00,0.7123
5839.00,0.7098
5838.00,0.7079
5837.00,0.7067
5836.00,0.7061
5835.00,0.7062
5834.00,0.7068
5833.00,0.7081
5832.00,0.7100
5831.00,0.7125
5830.00,0.7155
5829.00,0.7190
5828.00,0.7231
5827.00,0.7276
5826.00,0.7327
5825.00,0.7383
5824.00,0.7443
5823.00,0.7507
5822.00,0.7576
5821.00,0.7650
5820.00,0.7727
5819.00,0.7807
5818.00,0.7892
5817.00,0.7981
5816.00,0.8074
5815.00,0.8171
5814.00,0.8271
5813.00,0.8373
5812.00,0.8476
5811.00,0.8580
5810.00,0.8684
5809.00,0.8790
5808.00,0.8897
5807.00,0.9006
5806.00,0.9117
5805.00,0.9229
5804.00,0.9340
5803.00,0.9449
5802.00,0.9558
5801.00,0.9666
5800.00,0.9774
5799.00,0.9880
5798.00,0.9985
5797.00,1.0090
5796.00,1.0194
5795.00,1.0294
5794.00,1.0392
5793.00,1.0489
5792.00,1.0585
5791.00,1.0681
5790.00,1.0775
5789.00,1.0867
5788.00,1.0957
5787.00,1.1043
5786.00,1.1124
5785.00,1.1200
5784.00,1.1272
5783.00,1.1343
5782.00,1.1413
5781.00,1.1484
5780.00,1.1554
5779.00,1.1622
5778.00,1.1685
5777.00,1.1741
5776.00,1.1789
5775.00,1.1833
5774.00,1.1875
5773.00,1.1917
5772.00,1.1957
5771.00,1.1994
5770.00,1.2027
5769.00,1.2056
5768.00,1.2080
5767.00,1.2097
5766.00,1.2111
5765.00,1.2123
5764.00,1.2134
5763.00,1.2141
5762.00,1.2146
5761.00,1.2147
5760.00,1.2144
5759.00,1.2137
5758.00,1.2125
5757.00,1.2107
5756.00,1.2086
5755.00,1.2061
5754.00,1.2036
5753.00,1.2007
5752.00,1.1975
5751.00,1.1936
5750.00,1.1891
5749.00,1.1841
5748.00,1.1787
5747.00,1.1731
5746.00,1.1674
5745.00,1.1618
5744.00,1.1559
5743.00,1.1497
5742.00,1.1430
5741.00,1.1357
5740.00,1.1278
5739.00,1.1194
5738.00,1.1109
5737.00,1.1021
5736.00,1.0932
5735.00,1.0839
5734.00,1.0743
5733.00,1.0643
5732.00,1.0538
5731.00,1.0428
5730.00,1.0314
5729.00,1.0199
5728.00,1.0081
5727.00,0.9961
5726.00,0.9840
5725.00,0.9718
5724.00,0.9595
5723.00,0.9472
5722.00,0.9348
5721.00,0.9223
5720.00,0.9097
5719.00,0.8970
5718.00,0.8843
5717.00,0.8716
5716.00,0.8589
5715.00,0.8464
5714.00,0.8342
5713.00,0.8223
5712.00,0.8105
5711.00,0.7989
5710.00,0.7877
5709.00,0.7768
5708.00,0.7663
5707.00,0.7561
5706.00,0.7464
5705.00,0.7375
5704.00,0.7291
5703.00,0.7212
5702.00,0.7138
5701.00,0.7070
5700.00,0.7007
5699.00,0.6952
5698.00,0.6904
5697.00,0.6863
5696.00,0.6830
5695.00,0.6804
5694.00,0.6786
5693.00,0.6774
5692.00,0.6769
5691.00,0.6772
5690.00,0.6783
5689.00,0.6803
5688.00,0.6830
5687.00,0.6864
5686.00,0.6906
5685.00,0.6954
5684.00,0.7008
5683.00,0.7069
5682.00,0.7135
5681.00,0.7206
5680.00,0.7283
5679.00,0.7365
5678.00,0.7451
5677.00,0.7542
5676.00,0.7637
5675.00,0.7735
5674.00,0.7836
5673.00,0.7940
5672.00,0.8045
5671.00,0.8153
5670.00,0.8263
5669.00,0.8374
5668.00,0.8487
5667.00,0.8601
5666.00,0.8717
5665.00,0.8833
5664.00,0.8949
5663.00,0.9065
5662.00,0.9182
5661.00,0.9299
5660.00,0.9416
5659.00,0.9532
5658.00,0.9648
5657.00,0.9764
5656.00,0.9880
5655.00,0.9994
5654.00,1.0109
5653.00,1.0222
5652.00,1.0333
5651.00,1.0439
5650.00,1.0543
5649.00,1.0644
5648.00,1.0744
5647.00,1.0841
5646.00,1.0937
5645.00,1.1030
5644.00,1.1119
5643.00,1.1205
5642.00,1.1289
5641.00,1.1372
5640.00,1.1452
5639.00,1.1530
5638.00,1.1604
5637.00,1.1674
5636.00,1.1739
5635.00,1.1802
5634.00,1.1862
5633.00,1.1919
5632.00,1.1972
5631.00,1.2018
5630.00,1.2058
5629.00,1.2093
5628.00,1.2125
5627.00,1.2153
5626.00,1.2181
5625.00,1.2208
5624.00,1.2233
5623.00,1.2253
5622.00,1.2269
5621.00,1.2280
5620.00,1.2287
5619.00,1.2291
5618.00,1.2291
5617.00,1.2287
5616.00,1.2278
5615.00,1.2265
5614.00,1.2249
5613.00,1.2228
5612.00,1.2203
5611.00,1.2174
5610.00,1.2143
5609.00,1.2112
5608.00,1.2077
5607.00,1.2037
5606.00,1.1991
5605.00,1.1940
5604.00,1.1884
5603.00,1.1821
5602.00,1.1752
5601.00,1.1682
5600.00,1.1611
5599.00,1.1539
5598.00,1.1463
5597.00,1.1382
5596.00,1.1296
5595.00,1.1206
5594.00,1.1113
5593.00,1.1016
5592.00,1.0917
5591.00,1.0815
5590.00,1.0711
5589.00,1.0602
5588.00,1.0489
5587.00,1.0372
5586.00,1.0253
5585.00,1.0131
5584.00,1.0007
5583.00,0.9880
5582.00,0.9750
5581.00,0.9619
5580.00,0.9487
5579.00,0.9353
5578.00,0.9219
5577.00,0.9085
5576.00,0.8951
5575.00,0.8817
5574.00,0.8685
5573.00,0.8554
5572.00,0.8426
5571.00,0.8301
5570.00,0.8178
5569.00,0.8058
5568.00,0.7941
5567.00,0.7826
5566.00,0.7714
5565.00,0.7608
5564.00,0.7506
5563.00,0.7410
5562.00,0.7319
5561.00,0.7235
5560.00,0.7157
5559.00,0.7086
5558.00,0.7023
5557.00,0.6967
5556.00,0.6920
5555.00,0.6880
5554.00,0.6846
5553.00,0.6820
5552.00,0.6801
5551.00,0.6791
5550.00,0.6789
5549.00,0.6795
5548.00,0.6811
5547.00,0.6835
5546.00,0.6867
5545.00,0.6906
5544.00,0.6953
5543.00,0.7007
5542.00,0.7067
5541.00,0.7133
5540.00,0.7205
5539.00,0.7282
5538.00,0.7365
5537.00,0.7454
5536.00,0.7548
5535.00,0.7645
5534.00,0.7746
5533.00,0.7850
5532.00,0.7959
5531.00,0.8071
5530.00,0.8187
5529.00,0.8305
5528.00,0.8425
5527.00,0.8545
5526.00,0.8667
5525.00,0.8790
5524.00,0.8913
5523.00,0.9036
5522.00,0.9160
5521.00,0.9284
5520.00,0.9406
5519.00,0.9529
5518.00,0.9652
5517.00,0.9776
5516.00,0.9899
5515.00,1.0021
5514.00,1.0142
5513.00,1.0260
5512.00,1.0377
5511.00,1.0490
5510.00,1.0603
5509.00,1.0715
5508.00,1.0824
5507.00,1.0929
5506.00,1.1030
5505.00,1.1128
5504.00,1.1225
5503.00,1.1319
5502.00,1.1411
5501.00,1.1502
5500.00,1.1590
5499.00,1.1674
5498.00,1.1753
5497.00,1.1828
5496.00,1.1899
5495.00,1.1966
5494.00,1.2029
5493.00,1.2090
5492.00,1.2146
5491.00,1.2198
5490.00,1.2247
5489.00,1.2292
5488.00,1.2335
5487.00,1.2375
5486.00,1.2412
5485.00,1.2445
5484.00,1.2471
5483.00,1.2492
5482.00,1.2510
5481.00,1.2526
5480.00,1.2539
5479.00,1.2546
5478.00,1.2548
5477.00,1.2546
5476.00,1.2541
5475.00,1.2534
5474.00,1.2525
5473.00,1.2514
5472.00,1.2497
5471.00,1.2472
5470.00,1.2440
5469.00,1.2406
5468.00,1.2369
5467.00,1.2331
5466.00,1.2288
5465.00,1.2240
5464.00,1.2188
5463.00,1.2132
5462.00,1.2072
5461.00,1.2009
5460.00,1.1943
5459.00,1.1873
5458.00,1.1799
5457.00,1.1721
5456.00,1.1638
5455.00,1.1553
5454.00,1.1466
5453.00,1.1376
5452.00,1.1281
5451.00,1.1179
5450.00,1.1073
5449.00,1.0964
5448.00,1.0851
5447.00,1.0734
5446.00,1.0613
5445.00,1.0490
5444.00,1.0365
5443.00,1.0236
5442.00,1.0103
5441.00,0.9968
5440.00,0.9831
5439.00,0.9693
5438.00,0.9556
5437.00,0.9418
5436.00,0.9279
5435.00,0.9138
5434.00,0.8997
5433.00,0.8856
5432.00,0.8716
5431.00,0.8575
5430.00,0.8436
5429.00,0.8300
5428.00,0.8165
5427.00,0.8034
5426.00,0.7906
5425.00,0.7783
5424.00,0.7666
5423.00,0.7554
5422.00,0.7449
5421.00,0.7349
5420.00,0.7254
5419.00,0.7165
5418.00,0.7083
5417.00,0.7009
5416.00,0.6943
5415.00,0.6884
5414.00,0.6832
5413.00,0.6788
5412.00,0.6754
5411.00,0.6728
5410.00,0.6711
5409.00,0.6704
5408.00,0.6706
5407.00,0.6717
5406.00,0.6737
5405.00,0.6764
5404.00,0.6800
5403.00,0.6844
5402.00,0.6896
5401.00,0.6954
5400.00,0.7018
5399.00,0.7087
5398.00,0.7164
5397.00,0.7246
5396.00,0.7334
5395.00,0.7427
5394.00,0.7526
5393.00,0.7631
5392.00,0.7740
5391.00,0.7853
5390.00,0.7969
5389.00,0.8088
5388.00,0.8210
5387.00,0.8335
5386.00,0.8463
5385.00,0.8592
5384.00,0.8722
5383.00,0.8851
5382.00,0.8980
5381.00,0.9109
5380.00,0.9238
5379.00,0.9368
5378.00,0.9499
5377.00,0.9631
5376.00,0.9765
5375.00,0.9899
5374.00,1.0032
5373.00,1.0163
5372.00,1.0289
5371.00,1.0412
5370.00,1.0534
5369.00,1.0653
5368.00,1.0771
5367.00,1.0886
5366.00,1.1000
5365.00,1.1112
5364.00,1.1220
5363.00,1.1325
5362.00,1.1427
5361.00,1.1525
5360.00,1.1620
5359.00,1.1711
5358.00,1.1798
5357.00,1.1882
5356.00,1.1963
5355.00,1.2041
5354.00,1.2118
5353.00,1.2193
5352.00,1.2266
5351.00,1.2333
5350.00,1.2395
5349.00,1.2451
5348.00,1.2500
5347.00,1.2545
5346.00,1.2585
5345.00,1.2622
5344.00,1.2657
5343.00,1.2691
5342.00,1.2724
5341.00,1.2755
5340.00,1.2782
5339.00,1.2804
5338.00,1.2821
5337.00,1.2832
5336.00,1.2840
5335.00,1.2843
5334.00,1.2843
5333.00,1.2839
5332.00,1.2833
5331.00,1.2821
5330.00,1.2803
5329.00,1.2780
5328.00,1.2753
5327.00,1.2724
5326.00,1.2694
5325.00,1.2660
5324.00,1.2621
5323.00,1.2576
5322.00,1.2529
5321.00,1.2479
5320.00,1.2425
5319.00,1.2365
5318.00,1.2299
5317.00,1.2226
5316.00,1.2149
5315.00,1.2070
5314.00,1.1988
5313.00,1.1905
5312.00,1.1820
5311.00,1.1728
5310.00,1.1631
5309.00,1.1529
5308.00,1.1423
5307.00,1.1313
5306.00,1.1200
5305.00,1.1085
5304.00,1.0967
5303.00,1.0846
5302.00,1.0721
5301.00,1.0594
5300.00,1.0463
5299.00,1.0329
5298.00,1.0191
5297.00,1.0050
5296.00,0.9908
5295.00,0.9766
5294.00,0.9623
5293.00,0.9482
5292.00,0.9339
5291.00,0.9194
5290.00,0.9048
5289.00,0.8902
5288.00,0.8759
5287.00,0.8619
5286.00,0.8482
5285.00,0.8351
5284.00,0.8223
5283.00,0.8099
5282.00,0.7978
5281.00,0.7860
5280.00,0.7748
5279.00,0.7642
5278.00,0.7542
5277.00,0.7450
5276.00,0.7364
5275.00,0.7284
5274.00,0.7214
5273.00,0.7152
5272.00,0.7098
5271.00,0.7053
5270.00,0.7016
5269.00,0.6988
5268.00,0.6969
5267.00,0.6960
5266.00,0.6959
5265.00,0.6968
5264.00,0.6986
5263.00,0.7012
5262.00,0.7047
5261.00,0.7091
5260.00,0.7143
5259.00,0.7202
5258.00,0.7268
5257.00,0.7341
5256.00,0.7421
5255.00,0.7505
5254.00,0.7597
5253.00,0.7694
5252.00,0.7795
5251.00,0.7900
5250.00,0.8008
5249.00,0.8121
5248.00,0.8239
5247.00,0.8360
5246.00,0.8482
5245.00,0.8606
5244.00,0.8732
5243.00,0.8862
5242.00,0.8994
5241.00,0.9128
5240.00,0.9261
5239.00,0.9392
5238.00,0.9525
5237.00,0.9659
5236.00,0.9795
5235.00,0.9930
5234.00,1.0064
5233.00,1.0195
5232.00,1.0324
5231.00,1.0451
5230.00,1.0579
5229.00,1.0706
5228.00,1.0831
5227.00,1.0953
5226.00,1.1073
5225.00,1.1189
5224.00,1.1303
5223.00,1.1415
5222.00,1.1525
5221.00,1.1634
5220.00,1.1741
5219.00,1.1844
5218.00,1.1945
5217.00,1.2041
5216.00,1.2133
5215.00,1.2220
5214.00,1.2303
5213.00,1.2385
5212.00,1.2464
5211.00,1.2541
5210.00,1.2613
5209.00,1.2679
5208.00,1.2739
5207.00,1.2793
5206.00,1.2842
5205.00,1.2888
5204.00,1.2931
5203.00,1.2970
5202.00,1.3007
5201.00,1.3039
5200.00,1.3070
5199.00,1.3097
5198.00,1.3122
5197.00,1.3142
5196.00,1.3157
5195.00,1.3169
5194.00,1.3176
5193.00,1.3179
5192.00,1.3176
5191.00,1.3167
5190.00,1.3154
5189.00,1.3137
5188.00,1.3118
5187.00,1.3095
5186.00,1.3068
5185.00,1.3038
5184.00,1.3004
5183.00,1.2966
5182.00,1.2924
5181.00,1.2878
5180.00,1.2827
5179.00,1.2771
5178.00,1.2710
5177.00,1.2645
5176.00,1.2577
5175.00,1.2505
5174.00,1.2430
5173.00,1.2351
5172.00,1.2268
5171.00,1.2179
5170.00,1.2085
5169.00,1.1986
5168.00,1.1881
5167.00,1.1773
5166.00,1.1663
5165.00,1.1551
5164.00,1.1436
5163.00,1.1318
5162.00,1.1193
5161.00,1.1062
5160.00,1.0926
5159.00,1.0787
5158.00,1.0646
5157.00,1.0504
5156.00,1.0361
5155.00,1.0215
5154.00,1.0067
5153.00,0.9915
5152.00,0.9761
5151.00,0.9606
5150.00,0.9450
5149.00,0.9294
5148.00,0.9138
5147.00,0.8982
5146.00,0.8828
5145.00,0.8677
5144.00,0.8528
5143.00,0.8382
5142.00,0.8240
5141.00,0.8101
5140.00,0.7967
5139.00,0.7838
5138.00,0.7716
5137.00,0.7600
5136.00,0.7491
5135.00,0.7389
5134.00,0.7294
5133.00,0.7208
5132.00,0.7131
5131.00,0.7062
5130.00,0.7003
5129.00,0.6953
5128.00,0.6911
5127.00,0.6879
5126.00,0.6856
5125.00,0.6843
5124.00,0.6840
5123.00,0.6846
5122.00,0.6862
5121.00,0.6888
5120.00,0.6924
5119.00,0.6968
5118.00,0.7022
5117.00,0.7084
5116.00,0.7154
5115.00,0.7231
5114.00,0.7315
5113.00,0.7406
5112.00,0.7504
5111.00,0.7608
5110.00,0.7718
5109.00,0.7833
5108.00,0.7953
5107.00,0.8078
5106.00,0.8206
5105.00,0.8337
5104.00,0.8472
5103.00,0.8609
5102.00,0.8748
5101.00,0.8890
5100.00,0.9034
5099.00,0.9178
5098.00,0.9323
5097.00,0.9469
5096.00,0.9614
5095.00,0.9758
5094.00,0.9903
5093.00,1.0047
5092.00,1.0191
5091.00,1.0334
5090.00,1.0475
5089.00,1.0615
5088.00,1.0753
5087.00,1.0890
5086.00,1.1024
5085.00,1.1157
5084.00,1.1287
5083.00,1.1412
5082.00,1.1535
5081.00,1.1654
5080.00,1.1772
5079.00,1.1887
5078.00,1.2000
5077.00,1.2110
5076.00,1.2215
5075.00,1.2314
5074.00,1.2408
5073.00,1.2498
5072.00,1.2585
5071.00,1.2670
5070.00,1.2751
5069.00,1.2829
5068.00,1.2903
5067.00,1.2972
5066.00,1.3036
5065.00,1.3097
5064.00,1.3153
5063.00,1.3204
5062.00,1.3250
5061.00,1.3292
5060.00,1.3332
5059.00,1.3370
5058.00,1.3404
5057.00,1.3434
5056.00,1.3460
5055.00,1.3480
5054.00,1.3494
5053.00,1.3505
5052.00,1.3511
5051.00,1.3513
5050.00,1.3510
5049.00,1.3503
5048.00,1.3493
5047.00,1.3480
5046.00,1.3464
5045.00,1.3446
5044.00,1.3423
5043.00,1.3396
5042.00,1.3364
5041.00,1.3328
5040.00,1.3287
5039.00,1.3241
5038.00,1.3191
5037.00,1.3137
5036.00,1.3080
5035.00,1.3019
5034.00,1.2954
5033.00,1.2884
5032.00,1.2809
5031.00,1.2730
5030.00,1.2646
5029.00,1.2558
5028.00,1.2467
5027.00,1.2372
5026.00,1.2273
5025.00,1.2170
5024.00,1.2061
5023.00,1.1946
5022.00,1.1826
5021.00,1.1702
5020.00,1.1573
5019.00,1.1441
5018.00,1.1306
5017.00,1.1168
5016.00,1.1027
5015.00,1.0882
5014.00,1.0735
5013.00,1.0585
5012.00,1.0433
5011.00,1.0277
5010.00,1.0119
5009.00,0.9961
5008.00,0.9801
5007.00,0.9641
5006.00,0.9481
5005.00,0.9320
5004.00,0.9161
5003.00,0.9002
5002.00,0.8846
5001.00,0.8693
5000.00,0.8543
4999.00,0.8396
4998.00,0.8253
4997.00,0.8116
4996.00,0.7984
4995.00,0.7859
4994.00,0.7740
4993.00,0.7628
4992.00,0.7522
4991.00,0.7425
4990.00,0.7335
4989.00,0.7255
4988.00,0.7185
4987.00,0.7125
4986.00,0.7076
4985.00,0.7036
4984.00,0.7007
4983.00,0.6988
4982.00,0.6980
4981.00,0.6983
4980.00,0.6996
4979.00,0.7020
4978.00,0.7055
4977.00,0.7099
4976.00,0.7154
4975.00,0.7218
4974.00,0.7291
4973.00,0.7373
4972.00,0.7463
4971.00,0.7559
4970.00,0.7662
4969.00,0.7771
4968.00,0.7886
4967.00,0.8007
4966.00,0.8133
4965.00,0.8264
4964.00,0.8400
4963.00,0.8539
4962.00,0.8682
4961.00,0.8828
4960.00,0.8975
4959.00,0.9123
4958.00,0.9272
4957.00,0.9423
4956.00,0.9574
4955.00,0.9725
4954.00,0.9876
4953.00,1.0028
4952.00,1.0180
4951.00,1.0331
4950.00,1.0480
4949.00,1.0628
4948.00,1.0774
4947.00,1.0917
4946.00,1.1058
4945.00,1.1199
4944.00,1.1338
4943.00,1.1475
4942.00,1.1609
4941.00,1.1740
4940.00,1.1867
4939.00,1.1991
4938.00,1.2111
4937.00,1.2227
4936.00,1.2339
4935.00,1.2447
4934.00,1.2551
4933.00,1.2652
4932.00,1.2749
4931.00,1.2844
4930.00,1.2934
4929.00,1.3021
4928.00,1.3103
4927.00,1.3181
4926.00,1.3254
4925.00,1.3322
4924.00,1.3384
4923.00,1.3442
4922.00,1.3496
4921.00,1.3549
4920.00,1.3597
4919.00,1.3641
4918.00,1.3680
4917.00,1.3714
4916.00,1.3745
4915.00,1.3772
4914.00,1.3797
4913.00,1.3818
4912.00,1.3833
4911.00,1.3839
4910.00,1.3840
4909.00,1.3837
4908.00,1.3831
4907.00,1.3823
4906.00,1.3813
4905.00,1.3801
4904.00,1.3784
4903.00,1.3762
4902.00,1.3736
4901.00,1.3706
4900.00,1.3671
4899.00,1.3632
4898.00,1.3590
4897.00,1.3543
4896.00,1.3493
4895.00,1.3437
4894.00,1.3378
4893.00,1.3314
4892.00,1.3246
4891.00,1.3173
4890.00,1.3094
4889.00,1.3010
4888.00,1.2921
4887.00,1.2827
4886.00,1.2729
4885.00,1.2627
4884.00,1.2521
4883.00,1.2410
4882.00,1.2295
4881.00,1.2176
4880.00,1.2052
4879.00,1.1924
4878.00,1.1792
4877.00,1.1656
4876.00,1.1515
4875.00,1.1370
4874.00,1.1220
4873.00,1.1065
4872.00,1.0907
4871.00,1.0745
4870.00,1.0582
4869.00,1.0416
4868.00,1.0249
4867.00,1.0080
4866.00,0.9910
4865.00,0.9740
4864.00,0.9570
4863.00,0.9399
4862.00,0.9230
4861.00,0.9063
4860.00,0.8898
4859.00,0.8735
4858.00,0.8576
4857.00,0.8421
4856.00,0.8272
4855.00,0.8127
4854.00,0.7989
4853.00,0.7856
4852.00,0.7730
4851.00,0.7611
4850.00,0.7501
4849.00,0.7399
4848.00,0.7308
4847.00,0.7226
4846.00,0.7155
4845.00,0.7095
4844.00,0.7046
4843.00,0.7007
4842.00,0.6980
4841.00,0.6964
4840.00,0.6960
4839.00,0.6967
4838.00,0.6986
4837.00,0.7017
4836.00,0.7059
4835.00,0.7112
4834.00,0.7174
4833.00,0.7247
4832.00,0.7329
4831.00,0.7420
4830.00,0.7518
4829.00,0.7625
4828.00,0.7738
4827.00,0.7859
4826.00,0.7986
4825.00,0.8118
4824.00,0.8254
4823.00,0.8393
4822.00,0.8536
4821.00,0.8684
4820.00,0.8836
4819.00,0.8991
4818.00,0.9149
4817.00,0.9308
4816.00,0.9467
4815.00,0.9626
4814.00,0.9786
4813.00,0.9946
4812.00,1.0106
4811.00,1.0267
4810.00,1.0427
4809.00,1.0587
4808.00,1.0746
4807.00,1.0903
4806.00,1.1058
4805.00,1.1210
4804.00,1.1359
4803.00,1.1506
4802.00,1.1651
4801.00,1.1794
4800.00,1.1935
4799.00,1.2073
4798.00,1.2207
4797.00,1.2336
4796.00,1.2461
4795.00,1.2581
4794.00,1.2697
4793.00,1.2809
4792.00,1.2916
4791.00,1.3019
4790.00,1.3119
4789.00,1.3216
4788.00,1.3310
4787.00,1.3399
4786.00,1.3484
4785.00,1.3564
4784.00,1.3639
4783.00,1.3709
4782.00,1.3775
4781.00,1.3836
4780.00,1.3893
4779.00,1.3946
4778.00,1.3994
4777.00,1.4038
4776.00,1.4078
4775.00,1.4113
4774.00,1.4145
4773.00,1.4174
4772.00,1.4199
4771.00,1.4220
4770.00,1.4236
4769.00,1.4249
4768.00,1.4258
4767.00,1.4263
4766.00,1.4264
4765.00,1.4259
4764.00,1.4249
4763.00,1.4232
4762.00,1.4213
4761.00,1.4190
4760.00,1.4165
4759.00,1.4135
4758.00,1.4101
4757.00,1.4061
4756.00,1.4015
4755.00,1.3965
4754.00,1.3912
4753.00,1.3857
4752.00,1.3801
4751.00,1.3741
4750.00,1.3676
4749.00,1.3605
4748.00,1.3527
4747.00,1.3442
4746.00,1.3351
4745.00,1.3256
4744.00,1.3157
4743.00,1.3056
4742.00,1.2953
4741.00,1.2846
4740.00,1.2734
4739.00,1.2614
4738.00,1.2486
4737.00,1.2354
4736.00,1.2218
4735.00,1.2079
4734.00,1.1935
4733.00,1.1787
4732.00,1.1634
4731.00,1.1477
4730.00,1.1315
4729.00,1.1149
4728.00,1.0979
4727.00,1.0806
4726.00,1.0630
4725.00,1.0452
4724.00,1.0274
4723.00,1.0094
4722.00,0.9913
4721.00,0.9731
4720.00,0.9549
4719.00,0.9368
4718.00,0.9189
4717.00,0.9012
4716.00,0.8839
4715.00,0.8669
4714.00,0.8505
4713.00,0.8346
4712.00,0.8194
4711.00,0.8049
4710.00,0.7912
4709.00,0.7783
4708.00,0.7664
4707.00,0.7554
4706.00,0.7454
4705.00,0.7365
4704.00,0.7288
4703.00,0.7222
4702.00,0.7168
4701.00,0.7127
4700.00,0.7098
4699.00,0.7082
4698.00,0.7079
4697.00,0.7089
4696.00,0.7111
4695.00,0.7145
4694.00,0.7192
4693.00,0.7250
4692.00,0.7319
4691.00,0.7399
4690.00,0.7489
4689.00,0.7588
4688.00,0.7696
4687.00,0.7812
4686.00,0.7936
4685.00,0.8067
4684.00,0.8203
4683.00,0.8345
4682.00,0.8493
4681.00,0.8644
4680.00,0.8799
4679.00,0.8957
4678.00,0.9118
4677.00,0.9282
4676.00,0.9447
4675.00,0.9614
4674.00,0.9781
4673.00,0.9949
4672.00,1.0116
4671.00,1.0284
4670.00,1.0452
4669.00,1.0620
4668.00,1.0788
4667.00,1.0954
4666.00,1.1119
4665.00,1.1281
4664.00,1.1442
4663.00,1.1600
4662.00,1.1757
4661.00,1.1910
4660.00,1.2059
4659.00,1.2203
4658.00,1.2345
4657.00,1.2482
4656.00,1.2617
4655.00,1.2748
4654.00,1.2876
4653.00,1.3000
4652.00,1.3120
4651.00,1.3236
4650.00,1.3349
4649.00,1.3458
4648.00,1.3561
4647.00,1.3659
4646.00,1.3750
4645.00,1.3836
4644.00,1.3917
4643.00,1.3993
4642.00,1.4064
4641.00,1.4130
4640.00,1.4191
4639.00,1.4249
4638.00,1.4302
4637.00,1.4353
4636.00,1.4401
4635.00,1.4446
4634.00,1.4488
4633.00,1.4526
4632.00,1.4559
4631.00,1.4585
4630.00,1.4605
4629.00,1.4621
4628.00,1.4631
4627.00,1.4638
4626.00,1.4641
4625.00,1.4640
4624.00,1.4634
4623.00,1.4622
4622.00,1.4605
4621.00,1.4584
4620.00,1.4560
4619.00,1.4534
4618.00,1.4505
4617.00,1.4473
4616.00,1.4433
4615.00,1.4387
4614.00,1.4335
4613.00,1.4280
4612.00,1.4224
4611.00,1.4165
4610.00,1.4102
4609.00,1.4036
4608.00,1.3967
4607.00,1.3895
4606.00,1.3820
4605.00,1.3741
4604.00,1.3655
4603.00,1.3563
4602.00,1.3466
4601.00,1.3365
4600.00,1.3261
4599.00,1.3153
4598.00,1.3041
4597.00,1.2925
4596.00,1.2803
4595.00,1.2675
4594.00,1.2542
4593.00,1.2402
4592.00,1.2256
4591.00,1.2103
4590.00,1.1945
4589.00,1.1782
4588.00,1.1615
4587.00,1.1443
4586.00,1.1267
4585.00,1.1087
4584.00,1.0904
4583.00,1.0717
4582.00,1.0528
4581.00,1.0336
4580.00,1.0142
4579.00,0.9948
4578.00,0.9754
4577.00,0.9562
4576.00,0.9372
4575.00,0.9186
4574.00,0.9002
4573.00,0.8822
4572.00,0.8647
4571.00,0.8478
4570.00,0.8316
4569.00,0.8163
4568.00,0.8018
4567.00,0.7883
4566.00,0.7758
4565.00,0.7644
4564.00,0.7541
4563.00,0.7449
4562.00,0.7369
4561.00,0.7303
4560.00,0.7250
4559.00,0.7211
4558.00,0.7187
4557.00,0.7177
4556.00,0.7180
4555.00,0.7197
4554.00,0.7228
4553.00,0.7273
4552.00,0.7330
4551.00,0.7401
4550.00,0.7482
4549.00,0.7576
4548.00,0.7679
4547.00,0.7792
4546.00,0.7914
4545.00,0.8044
4544.00,0.8182
4543.00,0.8326
4542.00,0.8477
4541.00,0.8633
4540.00,0.8794
4539.00,0.8959
4538.00,0.9127
4537.00,0.9298
4536.00,0.9472
4535.00,0.9648
4534.00,0.9826
4533.00,1.0006
4532.00,1.0186
4531.00,1.0367
4530.00,1.0547
4529.00,1.0727
4528.00,1.0905
4527.00,1.1083
4526.00,1.1260
4525.00,1.1436
4524.00,1.1609
4523.00,1.1780
4522.00,1.1947
4521.00,1.2113
4520.00,1.2275
4519.00,1.2434
4518.00,1.2589
4517.00,1.2741
4516.00,1.2889
4515.00,1.3033
4514.00,1.3173
4513.00,1.3308
4512.00,1.3439
4511.00,1.3565
4510.00,1.3686
4509.00,1.3801
4508.00,1.3910
4507.00,1.4014
4506.00,1.4113
4505.00,1.4208
4504.00,1.4299
4503.00,1.4386
4502.00,1.4470
4501.00,1.4552
4500.00,1.4628
4499.00,1.4697
4498.00,1.4758
4497.00,1.4812
4496.00,1.4862
4495.00,1.4911
4494.00,1.4958
4493.00,1.5000
4492.00,1.5035
4491.00,1.5062
4490.00,1.5084
4489.00,1.5104
4488.00,1.5122
4487.00,1.5137
4486.00,1.5147
4485.00,1.5150
4484.00,1.5149
4483.00,1.5142
4482.00,1.5132
4481.00,1.5118
4480.00,1.5101
4479.00,1.5081
4478.00,1.5059
4477.00,1.5035
4476.00,1.5009
4475.00,1.4977
4474.00,1.4939
4473.00,1.4897
4472.00,1.4851
4471.00,1.4804
4470.00,1.4753
4469.00,1.4697
4468.00,1.4632
4467.00,1.4560
4466.00,1.4482
4465.00,1.4403
4464.00,1.4322
4463.00,1.4238
4462.00,1.4149
4461.00,1.4053
4460.00,1.3951
4459.00,1.3846
4458.00,1.3737
4457.00,1.3625
4456.00,1.3509
4455.00,1.3389
4454.00,1.3265
4453.00,1.3138
4452.00,1.3008
4451.00,1.2875
4450.00,1.2741
4449.00,1.2605
4448.00,1.2469
4447.00,1.2332
4446.00,1.2195
4445.00,1.2058
4444.00,1.1921
4443.00,1.1783
4442.00,1.1646
4441.00,1.1508
4440.00,1.1369
4439.00,1.1229
4438.00,1.1084
4437.00,1.0935
4436.00,1.0780
4435.00,1.0619
4434.00,1.0451
4433.00,1.0279
4432.00,1.0102
4431.00,0.9922
4430.00,0.9739
4429.00,0.9556
4428.00,0.9374
4427.00,0.9195
4426.00,0.9021
4425.00,0.8856
4424.00,0.8701
4423.00,0.8558
4422.00,0.8427
4421.00,0.8310
4420.00,0.8207
4419.00,0.8119
4418.00,0.8048
4417.00,0.7994
4416.00,0.7958
4415.00,0.7941
4414.00,0.7940
4413.00,0.7956
4412.00,0.7989
4411.00,0.8038
4410.00,0.8105
4409.00,0.8188
4408.00,0.8285
4407.00,0.8394
4406.00,0.8515
4405.00,0.8647
4404.00,0.8787
4403.00,0.8934
4402.00,0.9087
4401.00,0.9243
4400.00,0.9400
4399.00,0.9558
4398.00,0.9716
4397.00,0.9874
4396.00,1.0031
4395.00,1.0188
4394.00,1.0345
4393.00,1.0502
4392.00,1.0662
4391.00,1.0822
4390.00,1.0984
4389.00,1.1146
4388.00,1.1308
4387.00,1.1471
4386.00,1.1636
4385.00,1.1802
4384.00,1.1970
4383.00,1.2140
4382.00,1.2309
4381.00,1.2478
4380.00,1.2642
4379.00,1.2802
4378.00,1.2959
4377.00,1.3113
4376.00,1.3264
4375.00,1.3412
4374.00,1.3556
4373.00,1.3696
4372.00,1.3831
4371.00,1.3961
4370.00,1.4085
4369.00,1.4202
4368.00,1.4312
4367.00,1.4417
4366.00,1.4517
4365.00,1.4612
4364.00,1.4700
4363.00,1.4781
4362.00,1.4859
4361.00,1.4932
4360.00,1.5002
4359.00,1.5069
4358.00,1.5132
4357.00,1.5193
4356.00,1.5253
4355.00,1.5311
4354.00,1.5365
4353.00,1.5414
4352.00,1.5458
4351.00,1.5498
4350.00,1.5533
4349.00,1.5566
4348.00,1.5596
4347.00,1.5624
4346.00,1.5650
4345.00,1.5675
4344.00,1.5696
4343.00,1.5711
4342.00,1.5719
4341.00,1.5721
4340.00,1.5717
4339.00,1.5712
4338.00,1.5706
4337.00,1.5699
4336.00,1.5687
4335.00,1.5669
4334.00,1.5643
4333.00,1.5612
4332.00,1.5578
4331.00,1.5542
4330.00,1.5504
4329.00,1.5462
4328.00,1.5416
4327.00,1.5364
4326.00,1.5308
4325.00,1.5248
4324.00,1.5184
4323.00,1.5117
4322.00,1.5045
4321.00,1.4970
4320.00,1.4889
4319.00,1.4804
4318.00,1.4714
4317.00,1.4618
4316.00,1.4516
4315.00,1.4407
4314.00,1.4291
4313.00,1.4169
4312.00,1.4038
4311.00,1.3902
4310.00,1.3760
4309.00,1.3613
4308.00,1.3460
4307.00,1.3302
4306.00,1.3138
4305.00,1.2970
4304.00,1.2797
4303.00,1.2619
4302.00,1.2434
4301.00,1.2244
4300.00,1.2049
4299.00,1.1848
4298.00,1.1643
4297.00,1.1435
4296.00,1.1224
4295.00,1.1010
4294.00,1.0795
4293.00,1.0578
4292.00,1.0361
4291.00,1.0145
4290.00,0.9931
4289.00,0.9720
4288.00,0.9512
4287.00,0.9309
4286.00,0.9111
4285.00,0.8919
4284.00,0.8736
4283.00,0.8562
4282.00,0.8398
4281.00,0.8244
4280.00,0.8103
4279.00,0.7975
4278.00,0.7860
4277.00,0.7760
4276.00,0.7675
4275.00,0.7605
4274.00,0.7550
4273.00,0.7512
4272.00,0.7491
4271.00,0.7485
4270.00,0.7496
4269.00,0.7523
4268.00,0.7566
4267.00,0.7625
4266.00,0.7698
4265.00,0.7786
4264.00,0.7887
4263.00,0.8000
4262.00,0.8124
4261.00,0.8259
4260.00,0.8404
4259.00,0.8558
4258.00,0.8719
4257.00,0.8888
4256.00,0.9063
4255.00,0.9243
4254.00,0.9428
4253.00,0.9617
4252.00,0.9808
4251.00,1.0002
4250.00,1.0198
4249.00,1.0397
4248.00,1.0597
4247.00,1.0797
4246.00,1.0998
4245.00,1.1198
4244.00,1.1397
4243.00,1.1596
4242.00,1.1794
4241.00,1.1990
4240.00,1.2184
4239.00,1.2377
4238.00,1.2565
4237.00,1.2749
4236.00,1.2928
4235.00,1.3101
4234.00,1.3269
4233.00,1.3434
4232.00,1.3596
4231.00,1.3755
4230.00,1.3910
4229.00,1.4061
4228.00,1.4208
4227.00,1.4348
4226.00,1.4483
4225.00,1.4610
4224.00,1.4732
4223.00,1.4848
4222.00,1.4959
4221.00,1.5066
4220.00,1.5168
4219.00,1.5265
4218.00,1.5357
4217.00,1.5444
4216.00,1.5524
4215.00,1.5599
4214.00,1.5669
4213.00,1.5735
4212.00,1.5797
4211.00,1.5855
4210.00,1.5907
4209.00,1.5954
4208.00,1.5995
4207.00,1.6034
4206.00,1.6069
4205.00,1.6101
4204.00,1.6128
4203.00,1.6150
4202.00,1.6167
4201.00,1.6180
4200.00,1.6188
4199.00,1.6193
4198.00,1.6195
4197.00,1.6192
4196.00,1.6185
4195.00,1.6173
4194.00,1.6156
4193.00,1.6133
4192.00,1.6106
4191.00,1.6074
4190.00,1.6039
4189.00,1.5999
4188.00,1.5955
4187.00,1.5907
4186.00,1.5853
4185.00,1.5797
4184.00,1.5739
4183.00,1.5678
4182.00,1.5613
4181.00,1.5541
4180.00,1.5462
4179.00,1.5376
4178.00,1.5284
4177.00,1.5187
4176.00,1.5085
4175.00,1.4979
4174.00,1.4867
4173.00,1.4749
4172.00,1.4624
4171.00,1.4493
4170.00,1.4357
4169.00,1.4215
4168.00,1.4068
4167.00,1.3915
4166.00,1.3758
4165.00,1.3595
4164.00,1.3426
4163.00,1.3250
4162.00,1.3065
4161.00,1.2875
4160.00,1.2679
4159.00,1.2479
4158.00,1.2274
4157.00,1.2064
4156.00,1.1849
4155.00,1.1630
4154.00,1.1407
4153.00,1.1182
4152.00,1.0954
4151.00,1.0725
4150.00,1.0495
4149.00,1.0268
4148.00,1.0042
4147.00,0.9820
4146.00,0.9602
4145.00,0.9389
4144.00,0.9184
4143.00,0.8987
4142.00,0.8799
4141.00,0.8621
4140.00,0.8455
4139.00,0.8300
4138.00,0.8160
4137.00,0.8035
4136.00,0.7926
4135.00,0.7834
4134.00,0.7758
4133.00,0.7700
4132.00,0.7660
4131.00,0.7637
4130.00,0.7633
4129.00,0.7648
4128.00,0.7680
4127.00,0.7730
4126.00,0.7796
4125.00,0.7878
4124.00,0.7976
4123.00,0.8088
4122.00,0.8214
4121.00,0.8352
4120.00,0.8502
4119.00,0.8661
4118.00,0.8829
4117.00,0.9006
4116.00,0.9189
4115.00,0.9378
4114.00,0.9572
4113.00,0.9771
4112.00,0.9974
4111.00,1.0180
4110.00,1.0389
4109.00,1.0601
4108.00,1.0814
4107.00,1.1028
4106.00,1.1241
4105.00,1.1453
4104.00,1.1665
4103.00,1.1875
4102.00,1.2085
4101.00,1.2293
4100.00,1.2497
4099.00,1.2698
4098.00,1.2895
4097.00,1.3089
4096.00,1.3280
4095.00,1.3468
4094.00,1.3650
4093.00,1.3827
4092.00,1.3999
4091.00,1.4167
4090.00,1.4331
4089.00,1.4489
4088.00,1.4641
4087.00,1.4788
4086.00,1.4930
4085.00,1.5067
4084.00,1.5197
4083.00,1.5321
4082.00,1.5439
4081.00,1.5552
4080.00,1.5660
4079.00,1.5762
4078.00,1.5859
4077.00,1.5952
4076.00,1.6041
4075.00,1.6125
4074.00,1.6202
4073.00,1.6273
4072.00,1.6337
4071.00,1.6399
4070.00,1.6457
4069.00,1.6512
4068.00,1.6561
4067.00,1.6605
4066.00,1.6645
4065.00,1.6681
4064.00,1.6713
4063.00,1.6741
4062.00,1.6763
4061.00,1.6778
4060.00,1.6789
4059.00,1.6796
4058.00,1.6802
4057.00,1.6805
4056.00,1.6803
4055.00,1.6796
4054.00,1.6784
4053.00,1.6767
4052.00,1.6746
4051.00,1.6722
4050.00,1.6695
4049.00,1.6663
4048.00,1.6625
4047.00,1.6581
4046.00,1.6533
4045.00,1.6481
4044.00,1.6424
4043.00,1.6364
4042.00,1.6301
4041.00,1.6234
4040.00,1.6164
4039.00,1.6087
4038.00,1.6004
4037.00,1.5914
4036.00,1.5820
4035.00,1.5724
4034.00,1.5628
4033.00,1.5529
4032.00,1.5426
4031.00,1.5316
4030.00,1.5201
4029.00,1.5081
4028.00,1.4954
4027.00,1.4821
4026.00,1.4681
4025.00,1.4532
4024.00,1.4375
4023.00,1.4210
4022.00,1.4037
4021.00,1.3858
4020.00,1.3671
4019.00,1.3477
4018.00,1.3275
4017.00,1.3067
4016.00,1.2852
4015.00,1.2630
4014.00,1.2403
4013.00,1.2170
4012.00,1.1933
4011.00,1.1694
4010.00,1.1451
4009.00,1.1207
4008.00,1.0961
4007.00,1.0715
4006.00,1.0471
4005.00,1.0230
4004.00,0.9995
4003.00,0.9766
4002.00,0.9546
4001.00,0.9334
4000.00,0.9133
3999.00,0.8944
3998.00,0.8768
3997.00,0.8605
3996.00,0.8458
3995.00,0.8328
3994.00,0.8217
3993.00,0.8125
3992.00,0.8054
3991.00,0.8003
3990.00,0.7973
3989.00,0.7965
3988.00,0.7977
3987.00,0.8010
3986.00,0.8063
3985.00,0.8136
3984.00,0.8228
3983.00,0.8337
3982.00,0.8461
3981.00,0.8599
3980.00,0.8748
3979.00,0.8906
3978.00,0.9072
3977.00,0.9245
3976.00,0.9422
3975.00,0.9604
3974.00,0.9788
3973.00,0.9974
3972.00,1.0161
3971.00,1.0351
3970.00,1.0543
3969.00,1.0737
3968.00,1.0934
3967.00,1.1134
3966.00,1.1337
3965.00,1.1542
3964.00,1.1748
3963.00,1.1956
3962.00,1.2166
3961.00,1.2378
3960.00,1.2590
3959.00,1.2802
3958.00,1.3010
3957.00,1.3214
3956.00,1.3414
3955.00,1.3610
3954.00,1.3804
3953.00,1.3996
3952.00,1.4185
3951.00,1.4370
3950.00,1.4551
3949.00,1.4727
3948.00,1.4898
3947.00,1.5062
3946.00,1.5219
3945.00,1.5369
3944.00,1.5514
3943.00,1.5655
3942.00,1.5792
3941.00,1.5921
3940.00,1.6043
3939.00,1.6159
3938.00,1.6271
3937.00,1.6378
3936.00,1.6476
3935.00,1.6566
3934.00,1.6649
3933.00,1.6732
3932.00,1.6816
3931.00,1.6898
3930.00,1.6973
3929.00,1.7038
3928.00,1.7095
3927.00,1.7145
3926.00,1.7191
3925.00,1.7235
3924.00,1.7277
3923.00,1.7313
3922.00,1.7341
3921.00,1.7364
3920.00,1.7388
3919.00,1.7411
3918.00,1.7432
3917.00,1.7447
3916.00,1.7457
3915.00,1.7461
3914.00,1.7458
3913.00,1.7449
3912.00,1.7436
3911.00,1.7419
3910.00,1.7397
3909.00,1.7371
3908.00,1.7342
3907.00,1.7312
3906.00,1.7277
3905.00,1.7239
3904.00,1.7201
3903.00,1.7162
3902.00,1.7118
3901.00,1.7065
3900.00,1.7002
3899.00,1.6933
3898.00,1.6856
3897.00,1.6770
3896.00,1.6676
3895.00,1.6578
3894.00,1.6475
3893.00,1.6366
3892.00,1.6251
3891.00,1.6132
3890.00,1.6010
3889.00,1.5886
3888.00,1.5758
3887.00,1.5623
3886.00,1.5482
3885.00,1.5333
3884.00,1.5176
3883.00,1.5011
3882.00,1.4836
3881.00,1.4654
3880.00,1.4463
3879.00,1.4262
3878.00,1.4053
3877.00,1.3840
3876.00,1.3626
3875.00,1.3408
3874.00,1.3182
3873.00,1.2949
3872.00,1.2708
3871.00,1.2456
3870.00,1.2193
3869.00,1.1928
3868.00,1.1667
3867.00,1.1406
3866.00,1.1144
3865.00,1.0883
3864.00,1.0621
3863.00,1.0353
3862.00,1.0082
3861.00,0.9820
3860.00,0.9575
3859.00,0.9351
3858.00,0.9147
3857.00,0.8966
3856.00,0.8806
3855.00,0.8660
3854.00,0.8516
3853.00,0.8378
3852.00,0.8256
3851.00,0.8154
3850.00,0.8065
3849.00,0.7993
3848.00,0.7945
3847.00,0.7914
3846.00,0.7904
3845.00,0.7923
3844.00,0.7978
3843.00,0.8062
3842.00,0.8167
3841.00,0.8288
3840.00,0.8427
3839.00,0.8589
3838.00,0.8776
3837.00,0.8980
3836.00,0.9189
3835.00,0.9398
3834.00,0.9609
3833.00,0.9825
3832.00,1.0050
3831.00,1.0279
3830.00,1.0509
3829.00,1.0736
3828.00,1.0964
3827.00,1.1200
3826.00,1.1441
3825.00,1.1679
3824.00,1.1903
3823.00,1.2123
3822.00,1.2361
3821.00,1.2632
3820.00,1.2919
3819.00,1.3188
3818.00,1.3423
3817.00,1.3644
3816.00,1.3881
3815.00,1.4130
3814.00,1.4369
3813.00,1.4584
3812.00,1.4780
3811.00,1.4965
3810.00,1.5136
3809.00,1.5292
3808.00,1.5445
3807.00,1.5613
3806.00,1.5795
3805.00,1.5974
3804.00,1.6131
3803.00,1.6274
3802.00,1.6422
3801.00,1.6576
3800.00,1.6722
3799.00,1.6846
3798.00,1.6953
3797.00,1.7058
3796.00,1.7164
3795.00,1.7257
3794.00,1.7335
3793.00,1.7407
3792.00,1.7480
3791.00,1.7554
3790.00,1.7622
3789.00,1.7680
3788.00,1.7733
3787.00,1.7786
3786.00,1.7841
3785.00,1.7897
3784.00,1.7947
3783.00,1.7988
3782.00,1.8022
3781.00,1.8051
3780.00,1.8078
3779.00,1.8100
3778.00,1.8112
3777.00,1.8115
3776.00,1.8112
3775.00,1.8111
3774.00,1.8110
3773.00,1.8106
3772.00,1.8095
3771.00,1.8081
3770.00,1.8068
3769.00,1.8053
3768.00,1.8028
3767.00,1.7994
3766.00,1.7956
3765.00,1.7916
3764.00,1.7870
3763.00,1.7814
3762.00,1.7750
3761.00,1.7684
3760.00,1.7615
3759.00,1.7541
3758.00,1.7459
3757.00,1.7371
3756.00,1.7283
3755.00,1.7197
3754.00,1.7112
3753.00,1.7023
3752.00,1.6925
3751.00,1.6813
3750.00,1.6689
3749.00,1.6560
3748.00,1.6430
3747.00,1.6299
3746.00,1.6160
3745.00,1.6003
3744.00,1.5829
3743.00,1.5648
3742.00,1.5468
3741.00,1.5282
3740.00,1.5090
3739.00,1.4887
3738.00,1.4662
3737.00,1.4420
3736.00,1.4172
3735.00,1.3926
3734.00,1.3679
3733.00,1.3420
3732.00,1.3148
3731.00,1.2872
3730.00,1.2599
3729.00,1.2324
3728.00,1.2044
3727.00,1.1757
3726.00,1.1467
3725.00,1.1175
3724.00,1.0887
3723.00,1.0606
3722.00,1.0333
3721.00,1.0068
3720.00,0.9811
3719.00,0.9566
3718.00,0.9339
3717.00,0.9136
3716.00,0.8956
3715.00,0.8802
3714.00,0.8674
3713.00,0.8572
3712.00,0.8497
3711.00,0.8447
3710.00,0.8419
3709.00,0.8413
3708.00,0.8430
3707.00,0.8476
3706.00,0.8550
3705.00,0.8649
3704.00,0.8772
3703.00,0.8921
3702.00,0.9097
3701.00,0.9297
3700.00,0.9511
3699.00,0.9731
3698.00,0.9959
3697.00,1.0197
3696.00,1.0447
3695.00,1.0700
3694.00,1.0953
3693.00,1.1208
3692.00,1.1471
3691.00,1.1745
3690.00,1.2033
3689.00,1.2339
3688.00,1.2660
3687.00,1.2980
3686.00,1.3281
3685.00,1.3556
3684.00,1.3812
3683.00,1.4052
3682.00,1.4281
3681.00,1.4504
3680.00,1.4726
3679.00,1.4948
3678.00,1.5165
3677.00,1.5382
3676.00,1.5614
3675.00,1.5869
3674.00,1.6125
3673.00,1.6348
3672.00,1.6536
3671.00,1.6716
3670.00,1.6900
3669.00,1.7077
3668.00,1.7235
3667.00,1.7374
3666.00,1.7503
3665.00,1.7628
3664.00,1.7742
3663.00,1.7842
3662.00,1.7935
3661.00,1.8030
3660.00,1.8130
3659.00,1.8230
3658.00,1.8326
3657.00,1.8421
3656.00,1.8518
3655.00,1.8614
3654.00,1.8701
3653.00,1.8776
3652.00,1.8845
3651.00,1.8913
3650.00,1.8982
3649.00,1.9047
3648.00,1.9104
3647.00,1.9151
3646.00,1.9188
3645.00,1.9221
3644.00,1.9250
3643.00,1.9275
3642.00,1.9295
3641.00,1.9313
3640.00,1.9328
3639.00,1.9341
3638.00,1.9351
3637.00,1.9357
3636.00,1.9359
3635.00,1.9360
3634.00,1.9366
3633.00,1.9377
3632.00,1.9386
3631.00,1.9391
3630.00,1.9392
3629.00,1.9395
3628.00,1.9397
3627.00,1.9390
3626.00,1.9367
3625.00,1.9332
3624.00,1.9293
3623.00,1.9246
3622.00,1.9192
3621.00,1.9139
3620.00,1.9089
3619.00,1.9039
3618.00,1.8987
3617.00,1.8929
3616.00,1.8867
3615.00,1.8799
3614.00,1.8726
3613.00,1.8645
3612.00,1.8558
3611.00,1.8467
3610.00,1.8377
3609.00,1.8287
3608.00,1.8193
3607.00,1.8091
3606.00,1.7978
3605.00,1.7857
3604.00,1.7732
3603.00,1.7603
3602.00,1.7468
3601.00,1.7326
3600.00,1.7177
3599.00,1.7025
3598.00,1.6870
3597.00,1.6711
3596.00,1.6548
3595.00,1.6382
3594.00,1.6210
3593.00,1.6032
3592.00,1.5849
3591.00,1.5660
3590.00,1.5468
3589.00,1.5270
3588.00,1.5064
3587.00,1.4851
3586.00,1.4634
3585.00,1.4413
3584.00,1.4192
3583.00,1.3973
3582.00,1.3757
3581.00,1.3540
3580.00,1.3325
3579.00,1.3115
3578.00,1.2914
3577.00,1.2721
3576.00,1.2539
3575.00,1.2367
3574.00,1.2208
3573.00,1.2062
3572.00,1.1932
3571.00,1.1820
3570.00,1.1727
3569.00,1.1653
3568.00,1.1595
3567.00,1.1554
3566.00,1.1526
3565.00,1.1510
3564.00,1.1505
3563.00,1.1517
3562.00,1.1549
3561.00,1.1599
3560.00,1.1666
3559.00,1.1747
3558.00,1.1842
3557.00,1.1949
3556.00,1.2069
3555.00,1.2199
3554.00,1.2340
3553.00,1.2491
3552.00,1.2650
3551.00,1.2812
3550.00,1.2976
3549.00,1.3143
3548.00,1.3315
3547.00,1.3494
3546.00,1.3677
3545.00,1.3859
3544.00,1.4040
3543.00,1.4218
3542.00,1.4393
3541.00,1.4567
3540.00,1.4740
3539.00,1.4912
3538.00,1.5085
3537.00,1.5257
3536.00,1.5428
3535.00,1.5597
3534.00,1.5764
3533.00,1.5929
3532.00,1.6092
3531.00,1.6253
3530.00,1.6411
3529.00,1.6566
3528.00,1.6720
3527.00,1.6871
3526.00,1.7020
3525.00,1.7166
3524.00,1.7311
3523.00,1.7456
3522.00,1.7597
3521.00,1.7734
3520.00,1.7865
3519.00,1.7992
3518.00,1.8114
3517.00,1.8229
3516.00,1.8337
3515.00,1.8442
3514.00,1.8545
3513.00,1.8647
3512.00,1.8746
3511.00,1.8840
3510.00,1.8930
3509.00,1.9016
3508.00,1.9100
3507.00,1.9181
3506.00,1.9260
3505.00,1.9333
3504.00,1.9399
3503.00,1.9458
3502.00,1.9510
3501.00,1.9557
3500.00,1.9601
3499.00,1.9644
3498.00,1.9685
3497.00,1.9723
3496.00,1.9757
3495.00,1.9785
3494.00,1.9808
3493.00,1.9825
3492.00,1.9836
3491.00,1.9841
3490.00,1.9842
3489.00,1.9842
3488.00,1.9841
3487.00,1.9837
3486.00,1.9830
3485.00,1.9818
3484.00,1.9801
3483.00,1.9782
3482.00,1.9760
3481.00,1.9733
3480.00,1.9696
3479.00,1.9650
3478.00,1.9598
3477.00,1.9544
3476.00,1.9490
3475.00,1.9437
3474.00,1.9383
3473.00,1.9325
3472.00,1.9262
3471.00,1.9192
3470.00,1.9116
3469.00,1.9035
3468.00,1.8946
3467.00,1.8850
3466.00,1.8746
3465.00,1.8636
3464.00,1.8519
3463.00,1.8398
3462.00,1.8274
3461.00,1.8145
3460.00,1.8012
3459.00,1.7872
3458.00,1.7728
3457.00,1.7578
3456.00,1.7421
3455.00,1.7255
3454.00,1.7079
3453.00,1.6896
3452.00,1.6707
3451.00,1.6512
3450.00,1.6312
3449.00,1.6106
3448.00,1.5890
3447.00,1.5664
3446.00,1.5429
3445.00,1.5186
3444.00,1.4938
3443.00,1.4685
3442.00,1.4430
3441.00,1.4170
3440.00,1.3908
3439.00,1.3645
3438.00,1.3381
3437.00,1.3119
3436.00,1.2860
3435.00,1.2604
3434.00,1.2353
3433.00,1.2111
3432.00,1.1878
3431.00,1.1657
3430.00,1.1450
3429.00,1.1259
3428.00,1.1085
3427.00,1.0932
3426.00,1.0799
3425.00,1.0688
3424.00,1.0599
3423.00,1.0534
3422.00,1.0493
3421.00,1.0475
3420.00,1.0481
3419.00,1.0510
3418.00,1.0564
3417.00,1.0642
3416.00,1.0742
3415.00,1.0862
3414.00,1.1000
3413.00,1.1154
3412.00,1.1324
3411.00,1.1506
3410.00,1.1701
3409.00,1.1906
3408.00,1.2118
3407.00,1.2337
3406.00,1.2563
3405.00,1.2794
3404.00,1.3028
3403.00,1.3264
3402.00,1.3499
3401.00,1.3732
3400.00,1.3965
3399.00,1.4197
3398.00,1.4430
3397.00,1.4662
3396.00,1.4894
3395.00,1.5125
3394.00,1.5354
3393.00,1.5581
3392.00,1.5806
3391.00,1.6025
3390.00,1.6238
3389.00,1.6444
3388.00,1.6645
3387.00,1.6839
3386.00,1.7029
3385.00,1.7214
3384.00,1.7396
3383.00,1.7573
3382.00,1.7746
3381.00,1.7913
3380.00,1.8076
3379.00,1.8233
3378.00,1.8384
3377.00,1.8528
3376.00,1.8663
3375.00,1.8790
3374.00,1.8912
3373.00,1.9032
3372.00,1.9149
3371.00,1.9260
3370.00,1.9364
3369.00,1.9460
3368.00,1.9550
3367.00,1.9635
3366.00,1.9714
3365.00,1.9788
3364.00,1.9857
3363.00,1.9921
3362.00,1.9981
3361.00,2.0042
3360.00,2.0103
3359.00,2.0158
3358.00,2.0204
3357.00,2.0241
3356.00,2.0274
3355.00,2.0305
3354.00,2.0333
3353.00,2.0360
3352.00,2.0386
3351.00,2.0410
3350.00,2.0427
3349.00,2.0433
3348.00,2.0427
3347.00,2.0415
3346.00,2.0400
3345.00,2.0383
3344.00,2.0362
3343.00,2.0337
3342.00,2.0314
3341.00,2.0293
3340.00,2.0270
3339.00,2.0239
3338.00,2.0198
3337.00,2.0151
3336.00,2.0100
3335.00,2.0044
3334.00,1.9985
3333.00,1.9923
3332.00,1.9857
3331.00,1.9786
3330.00,1.9707
3329.00,1.9621
3328.00,1.9528
3327.00,1.9433
3326.00,1.9338
3325.00,1.9240
3324.00,1.9136
3323.00,1.9027
3322.00,1.8911
3321.00,1.8789
3320.00,1.8659
3319.00,1.8519
3318.00,1.8370
3317.00,1.8216
3316.00,1.8058
3315.00,1.7892
3314.00,1.7717
3313.00,1.7534
3312.00,1.7345
3311.00,1.7150
3310.00,1.6948
3309.00,1.6737
3308.00,1.6517
3307.00,1.6288
3306.00,1.6053
3305.00,1.5812
3304.00,1.5565
3303.00,1.5314
3302.00,1.5056
3301.00,1.4793
3300.00,1.4526
3299.00,1.4256
3298.00,1.3985
3297.00,1.3714
3296.00,1.3445
3295.00,1.3181
3294.00,1.2923
3293.00,1.2671
3292.00,1.2428
3291.00,1.2196
3290.00,1.1976
3289.00,1.1771
3288.00,1.1583
3287.00,1.1412
3286.00,1.1262
3285.00,1.1132
3284.00,1.1025
3283.00,1.0941
3282.00,1.0881
3281.00,1.0844
3280.00,1.0832
3279.00,1.0845
3278.00,1.0883
3277.00,1.0945
3276.00,1.1031
3275.00,1.1140
3274.00,1.1270
3273.00,1.1417
3272.00,1.1580
3271.00,1.1759
3270.00,1.1952
3269.00,1.2158
3268.00,1.2375
3267.00,1.2602
3266.00,1.2837
3265.00,1.3078
3264.00,1.3326
3263.00,1.3577
3262.00,1.3831
3261.00,1.4088
3260.00,1.4346
3259.00,1.4604
3258.00,1.4860
3257.00,1.5114
3256.00,1.5366
3255.00,1.5618
3254.00,1.5869
3253.00,1.6116
3252.00,1.6357
3251.00,1.6591
3250.00,1.6819
3249.00,1.7042
3248.00,1.7261
3247.00,1.7472
3246.00,1.7675
3245.00,1.7872
3244.00,1.8064
3243.00,1.8250
3242.00,1.8429
3241.00,1.8600
3240.00,1.8761
3239.00,1.8913
3238.00,1.9056
3237.00,1.9195
3236.00,1.9331
3235.00,1.9465
3234.00,1.9595
3233.00,1.9720
3232.00,1.9838
3231.00,1.9949
3230.00,2.0053
3229.00,2.0150
3228.00,2.0242
3227.00,2.0327
3226.00,2.0405
3225.00,2.0481
3224.00,2.0556
3223.00,2.0628
3222.00,2.0694
3221.00,2.0753
3220.00,2.0807
3219.00,2.0861
3218.00,2.0914
3217.00,2.0965
3216.00,2.1010
3215.00,2.1048
3214.00,2.1078
3213.00,2.1101
3212.00,2.1119
3211.00,2.1131
3210.00,2.1138
3209.00,2.1138
3208.00,2.1138
3207.00,2.1141
3206.00,2.1149
3205.00,2.1155
3204.00,2.1153
3203.00,2.1142
3202.00,2.1126
3201.00,2.1110
3200.00,2.1091
3199.00,2.1062
3198.00,2.1023
3197.00,2.0974
3196.00,2.0921
3195.00,2.0866
3194.00,2.0806
3193.00,2.0741
3192.00,2.0668
3191.00,2.0587
3190.00,2.0502
3189.00,2.0412
3188.00,2.0316
3187.00,2.0214
3186.00,2.0106
3185.00,1.9996
3184.00,1.9884
3183.00,1.9768
3182.00,1.9643
3181.00,1.9509
3180.00,1.9367
3179.00,1.9216
3178.00,1.9059
3177.00,1.8894
3176.00,1.8725
3175.00,1.8552
3174.00,1.8379
3173.00,1.8208
3172.00,1.8046
3171.00,1.7902
3170.00,1.7788
3169.00,1.7715
3168.00,1.7690
3167.00,1.7710
3166.00,1.7761
3165.00,1.7818
3164.00,1.7848
3163.00,1.7816
3162.00,1.7701
3161.00,1.7496
3160.00,1.7217
3159.00,1.6885
3158.00,1.6524
3157.00,1.6153
3156.00,1.5782
3155.00,1.5416
3154.00,1.5061
3153.00,1.4717
3152.00,1.4386
3151.00,1.4070
3150.00,1.3772
3149.00,1.3492
3148.00,1.3232
3147.00,1.2993
3146.00,1.2775
3145.00,1.2579
3144.00,1.2406
3143.00,1.2257
3142.00,1.2134
3141.00,1.2040
3140.00,1.1975
3139.00,1.1940
3138.00,1.1932
3137.00,1.1953
3136.00,1.2000
3135.00,1.2075
3134.00,1.2174
3133.00,1.2296
3132.00,1.2439
3131.00,1.2600
3130.00,1.2777
3129.00,1.2970
3128.00,1.3176
3127.00,1.3395
3126.00,1.3625
3125.00,1.3863
3124.00,1.4108
3123.00,1.4359
3122.00,1.4615
3121.00,1.4874
3120.00,1.5136
3119.00,1.5398
3118.00,1.5660
3117.00,1.5920
3116.00,1.6178
3115.00,1.6434
3114.00,1.6685
3113.00,1.6932
3112.00,1.7173
3111.00,1.7407
3110.00,1.7637
3109.00,1.7861
3108.00,1.8078
3107.00,1.8287
3106.00,1.8489
3105.00,1.8687
3104.00,1.8882
3103.00,1.9072
3102.00,1.9256
3101.00,1.9434
3100.00,1.9602
3099.00,1.9759
3098.00,1.9908
3097.00,2.0051
3096.00,2.0193
3095.00,2.0332
3094.00,2.0465
3093.00,2.0589
3092.00,2.0704
3091.00,2.0812
3090.00,2.0917
3089.00,2.1023
3088.00,2.1130
3087.00,2.1233
3086.00,2.1325
3085.00,2.1404
3084.00,2.1473
3083.00,2.1538
3082.00,2.1603
3081.00,2.1668
3080.00,2.1731
3079.00,2.1787
3078.00,2.1837
3077.00,2.1881
3076.00,2.1924
3075.00,2.1963
3074.00,2.1997
3073.00,2.2023
3072.00,2.2044
3071.00,2.2062
3070.00,2.2077
3069.00,2.2090
3068.00,2.2097
3067.00,2.2097
3066.00,2.2095
3065.00,2.2091
3064.00,2.2082
3063.00,2.2066
3062.00,2.2041
3061.00,2.2014
3060.00,2.1987
3059.00,2.1960
3058.00,2.1929
3057.00,2.1891
3056.00,2.1845
3055.00,2.1791
3054.00,2.1733
3053.00,2.1673
3052.00,2.1610
3051.00,2.1543
3050.00,2.1470
3049.00,2.1391
3048.00,2.1307
3047.00,2.1219
3046.00,2.1126
3045.00,2.1029
3044.00,2.0927
3043.00,2.0820
3042.00,2.0707
3041.00,2.0588
3040.00,2.0462
3039.00,2.0329
3038.00,2.0193
3037.00,2.0052
3036.00,1.9907
3035.00,1.9752
3034.00,1.9591
3033.00,1.9425
3032.00,1.9257
3031.00,1.9087
3030.00,1.8914
3029.00,1.8740
3028.00,1.8567
3027.00,1.8398
3026.00,1.8230
3025.00,1.8063
3024.00,1.7899
3023.00,1.7741
3022.00,1.7591
3021.00,1.7451
3020.00,1.7324
3019.00,1.7212
3018.00,1.7116
3017.00,1.7039
3016.00,1.6982
3015.00,1.6946
3014.00,1.6930
3013.00,1.6934
3012.00,1.6957
3011.00,1.6999
3010.00,1.7059
3009.00,1.7135
3008.00,1.7221
3007.00,1.7311
3006.00,1.7397
3005.00,1.7473
3004.00,1.7534
3003.00,1.7576
3002.00,1.7597
3001.00,1.7594
3000.00,1.7567
2999.00,1.7518
2998.00,1.7450
2997.00,1.7368
2996.00,1.7280
2995.00,1.7192
2994.00,1.7108
2993.00,1.7036
2992.00,1.6980
2991.00,1.6944
2990.00,1.6933
2989.00,1.6951
2988.00,1.6999
2987.00,1.7077
2986.00,1.7187
2985.00,1.7324
2984.00,1.7488
2983.00,1.7674
2982.00,1.7879
2981.00,1.8103
2980.00,1.8343
2979.00,1.8600
2978.00,1.8868
2977.00,1.9144
2976.00,1.9421
2975.00,1.9697
2974.00,1.9971
2973.00,2.0242
2972.00,2.0508
2971.00,2.0768
2970.00,2.1021
2969.00,2.1264
2968.00,2.1494
2967.00,2.1709
2966.00,2.1910
2965.00,2.2097
2964.00,2.2271
2963.00,2.2436
2962.00,2.2597
2961.00,2.2757
2960.00,2.2918
2959.00,2.3078
2958.00,2.3241
2957.00,2.3407
2956.00,2.3575
2955.00,2.3741
2954.00,2.3906
2953.00,2.4069
2952.00,2.4228
2951.00,2.4380
2950.00,2.4531
2949.00,2.4692
2948.00,2.4867
2947.00,2.5045
2946.00,2.5200
2945.00,2.5306
2944.00,2.5337
2943.00,2.5280
2942.00,2.5145
2941.00,2.4959
2940.00,2.4755
2939.00,2.4557
2938.00,2.4374
2937.00,2.4207
2936.00,2.4055
2935.00,2.3919
2934.00,2.3800
2933.00,2.3700
2932.00,2.3617
2931.00,2.3548
2930.00,2.3490
2929.00,2.3439
2928.00,2.3390
2927.00,2.3346
2926.00,2.3312
2925.00,2.3294
2924.00,2.3291
2923.00,2.3295
2922.00,2.3299
2921.00,2.3306
2920.00,2.3318
2919.00,2.3337
2918.00,2.3361
2917.00,2.3388
2916.00,2.3414
2915.00,2.3437
2914.00,2.3454
2913.00,2.3465
2912.00,2.3469
2911.00,2.3467
2910.00,2.3459
2909.00,2.3449
2908.00,2.3440
2907.00,2.3433
2906.00,2.3423
2905.00,2.3407
2904.00,2.3379
2903.00,2.3338
2902.00,2.3291
2901.00,2.3246
2900.00,2.3203
2899.00,2.3159
2898.00,2.3109
2897.00,2.3056
2896.00,2.2997
2895.00,2.2930
2894.00,2.2851
2893.00,2.2763
2892.00,2.2668
2891.00,2.2569
2890.00,2.2464
2889.00,2.2353
2888.00,2.2240
2887.00,2.2126
2886.00,2.2011
2885.00,2.1897
2884.00,2.1782
2883.00,2.1661
2882.00,2.1533
2881.00,2.1400
2880.00,2.1270
2879.00,2.1147
2878.00,2.1036
2877.00,2.0938
2876.00,2.0855
2875.00,2.0786
2874.00,2.0728
2873.00,2.0682
2872.00,2.0648
2871.00,2.0622
2870.00,2.0594
2869.00,2.0556
2868.00,2.0504
2867.00,2.0435
2866.00,2.0346
2865.00,2.0236
2864.00,2.0105
2863.00,1.9953
2862.00,1.9778
2861.00,1.9581
2860.00,1.9356
2859.00,1.9101
2858.00,1.8810
2857.00,1.8485
2856.00,1.8131
2855.00,1.7758
2854.00,1.7373
2853.00,1.6981
2852.00,1.6583
2851.00,1.6182
2850.00,1.5785
2849.00,1.5398
2848.00,1.5029
2847.00,1.4684
2846.00,1.4364
2845.00,1.4073
2844.00,1.3816
2843.00,1.3594
2842.00,1.3410
2841.00,1.3266
2840.00,1.3161
2839.00,1.3097
2838.00,1.3071
2837.00,1.3082
2836.00,1.3128
2835.00,1.3209
2834.00,1.3321
2833.00,1.3462
2832.00,1.3630
2831.00,1.3821
2830.00,1.4032
2829.00,1.4262
2828.00,1.4506
2827.00,1.4765
2826.00,1.5035
2825.00,1.5315
2824.00,1.5604
2823.00,1.5901
2822.00,1.6201
2821.00,1.6505
2820.00,1.6810
2819.00,1.7115
2818.00,1.7421
2817.00,1.7724
2816.00,1.8021
2815.00,1.8313
2814.00,1.8599
2813.00,1.8878
2812.00,1.9148
2811.00,1.9411
2810.00,1.9668
2809.00,1.9917
2808.00,2.0155
2807.00,2.0380
2806.00,2.0593
2805.00,2.0799
2804.00,2.0998
2803.00,2.1189
2802.00,2.1369
2801.00,2.1541
2800.00,2.1705
2799.00,2.1860
2798.00,2.2002
2797.00,2.2132
2796.00,2.2253
2795.00,2.2369
2794.00,2.2483
2793.00,2.2594
2792.00,2.2703
2791.00,2.2811
2790.00,2.2914
2789.00,2.3009
2788.00,2.3097
2787.00,2.3180
2786.00,2.3261
2785.00,2.3339
2784.00,2.3411
2783.00,2.3476
2782.00,2.3530
2781.00,2.3570
2780.00,2.3599
2779.00,2.3627
2778.00,2.3658
2777.00,2.3692
2776.00,2.3722
2775.00,2.3742
2774.00,2.3756
2773.00,2.3765
2772.00,2.3771
2771.00,2.3774
2770.00,2.3779
2769.00,2.3786
2768.00,2.3786
2767.00,2.3774
2766.00,2.3748
2765.00,2.3715
2764.00,2.3685
2763.00,2.3656
2762.00,2.3624
2761.00,2.3584
2760.00,2.3537
2759.00,2.3484
2758.00,2.3426
2757.00,2.3362
2756.00,2.3291
2755.00,2.3214
2754.00,2.3133
2753.00,2.3047
2752.00,2.2956
2751.00,2.2859
2750.00,2.2754
2749.00,2.2640
2748.00,2.2519
2747.00,2.2395
2746.00,2.2269
2745.00,2.2140
2744.00,2.2006
2743.00,2.1864
2742.00,2.1714
2741.00,2.1553
2740.00,2.1381
2739.00,2.1199
2738.00,2.1009
2737.00,2.0811
2736.00,2.0603
2735.00,2.0386
2734.00,2.0161
2733.00,1.9928
2732.00,1.9682
2731.00,1.9422
2730.00,1.9146
2729.00,1.8856
2728.00,1.8553
2727.00,1.8236
2726.00,1.7904
2725.00,1.7556
2724.00,1.7192
2723.00,1.6813
2722.00,1.6419
2721.00,1.6013
2720.00,1.5597
2719.00,1.5174
2718.00,1.4747
2717.00,1.4322
2716.00,1.3901
2715.00,1.3492
2714.00,1.3098
2713.00,1.2726
2712.00,1.2381
2711.00,1.2066
2710.00,1.1788
2709.00,1.1550
2708.00,1.1357
2707.00,1.1211
2706.00,1.1114
2705.00,1.1070
2704.00,1.1078
2703.00,1.1137
2702.00,1.1246
2701.00,1.1403
2700.00,1.1601
2699.00,1.1836
2698.00,1.2104
2697.00,1.2399
2696.00,1.2717
2695.00,1.3055
2694.00,1.3408
2693.00,1.3775
2692.00,1.4151
2691.00,1.4535
2690.00,1.4923
2689.00,1.5314
2688.00,1.5706
2687.00,1.6098
2686.00,1.6487
2685.00,1.6871
2684.00,1.7248
2683.00,1.7619
2682.00,1.7982
2681.00,1.8336
2680.00,1.8677
2679.00,1.9000
2678.00,1.9306
2677.00,1.9596
2676.00,1.9876
2675.00,2.0148
2674.00,2.0410
2673.00,2.0662
2672.00,2.0899
2671.00,2.1121
2670.00,2.1331
2669.00,2.1534
2668.00,2.1731
2667.00,2.1921
2666.00,2.2102
2665.00,2.2276
2664.00,2.2444
2663.00,2.2609
2662.00,2.2770
2661.00,2.2926
2660.00,2.3071
2659.00,2.3204
2658.00,2.3327
2657.00,2.3443
2656.00,2.3554
2655.00,2.3658
2654.00,2.3754
2653.00,2.3843
2652.00,2.3926
2651.00,2.4008
2650.00,2.4092
2649.00,2.4177
2648.00,2.4260
2647.00,2.4332
2646.00,2.4391
2645.00,2.4439
2644.00,2.4477
2643.00,2.4512
2642.00,2.4552
2641.00,2.4604
2640.00,2.4660
2639.00,2.4707
2638.00,2.4737
2637.00,2.4752
2636.00,2.4759
2635.00,2.4761
2634.00,2.4762
2633.00,2.4762
2632.00,2.4766
2631.00,2.4780
2630.00,2.4801
2629.00,2.4822
2628.00,2.4834
2627.00,2.4831
2626.00,2.4814
2625.00,2.4788
2624.00,2.4752
2623.00,2.4702
2622.00,2.4639
2621.00,2.4573
2620.00,2.4509
2619.00,2.4446
2618.00,2.4383
2617.00,2.4323
2616.00,2.4267
2615.00,2.4206
2614.00,2.4127
2613.00,2.4028
2612.00,2.3922
2611.00,2.3817
2610.00,2.3710
2609.00,2.3593
2608.00,2.3463
2607.00,2.3332
2606.00,2.3205
2605.00,2.3082
2604.00,2.2952
2603.00,2.2806
2602.00,2.2643
2601.00,2.2465
2600.00,2.2275
2599.00,2.2075
2598.00,2.1867
2597.00,2.1654
2596.00,2.1437
2595.00,2.1215
2594.00,2.0981
2593.00,2.0729
2592.00,2.0457
2591.00,2.0168
2590.00,1.9870
2589.00,1.9564
2588.00,1.9247
2587.00,1.8913
2586.00,1.8558
2585.00,1.8183
2584.00,1.7790
2583.00,1.7381
2582.00,1.6956
2581.00,1.6518
2580.00,1.6068
2579.00,1.5612
2578.00,1.5153
2577.00,1.4697
2576.00,1.4250
2575.00,1.3818
2574.00,1.3407
2573.00,1.3022
2572.00,1.2671
2571.00,1.2356
2570.00,1.2083
2569.00,1.1854
2568.00,1.1673
2567.00,1.1543
2566.00,1.1469
2565.00,1.1452
2564.00,1.1490
2563.00,1.1583
2562.00,1.1728
2561.00,1.1921
2560.00,1.2158
2559.00,1.2433
2558.00,1.2741
2557.00,1.3076
2556.00,1.3433
2555.00,1.3808
2554.00,1.4196
2553.00,1.4596
2552.00,1.5004
2551.00,1.5417
2550.00,1.5834
2549.00,1.6251
2548.00,1.6667
2547.00,1.7079
2546.00,1.7485
2545.00,1.7886
2544.00,1.8279
2543.00,1.8663
2542.00,1.9035
2541.00,1.9396
2540.00,1.9745
2539.00,2.0080
2538.00,2.0401
2537.00,2.0706
2536.00,2.0995
2535.00,2.1271
2534.00,2.1536
2533.00,2.1789
2532.00,2.2030
2531.00,2.2257
2530.00,2.2470
2529.00,2.2674
2528.00,2.2872
2527.00,2.3061
2526.00,2.3238
2525.00,2.3400
2524.00,2.3550
2523.00,2.3694
2522.00,2.3840
2521.00,2.3991
2520.00,2.4138
2519.00,2.4268
2518.00,2.4381
2517.00,2.4487
2516.00,2.4599
2515.00,2.4715
2514.00,2.4826
2513.00,2.4921
2512.00,2.4999
2511.00,2.5069
2510.00,2.5140
2509.00,2.5218
2508.00,2.5301
2507.00,2.5382
2506.00,2.5451
2505.00,2.5504
2504.00,2.5537
2503.00,2.5557
2502.00,2.5574
2501.00,2.5596
2500.00,2.5626
2499.00,2.5658
2498.00,2.5682
2497.00,2.5698
2496.00,2.5713
2495.00,2.5738
2494.00,2.5777
2493.00,2.5817
2492.00,2.5839
2491.00,2.5835
2490.00,2.5820
2489.00,2.5802
2488.00,2.5779
2487.00,2.5742
2486.00,2.5689
2485.00,2.5634
2484.00,2.5585
2483.00,2.5544
2482.00,2.5505
2481.00,2.5464
2480.00,2.5418
2479.00,2.5362
2478.00,2.5294
2477.00,2.5214
2476.00,2.5128
2475.00,2.5042
2474.00,2.4960
2473.00,2.4880
2472.00,2.4790
2471.00,2.4687
2470.00,2.4576
2469.00,2.4461
2468.00,2.4343
2467.00,2.4217
2466.00,2.4081
2465.00,2.3938
2464.00,2.3786
2463.00,2.3624
2462.00,2.3451
2461.00,2.3270
2460.00,2.3084
2459.00,2.2893
2458.00,2.2698
2457.00,2.2497
2456.00,2.2282
2455.00,2.2047
2454.00,2.1791
2453.00,2.1521
2452.00,2.1244
2451.00,2.0961
2450.00,2.0666
2449.00,2.0355
2448.00,2.0025
2447.00,1.9678
2446.00,1.9317
2445.00,1.8944
2444.00,1.8560
2443.00,1.8163
2442.00,1.7753
2441.00,1.7334
2440.00,1.6910
2439.00,1.6483
2438.00,1.6057
2437.00,1.5638
2436.00,1.5233
2435.00,1.4847
2434.00,1.4488
2433.00,1.4161
2432.00,1.3871
2431.00,1.3625
2430.00,1.3425
2429.00,1.3276
2428.00,1.3183
2427.00,1.3147
2426.00,1.3168
2425.00,1.3246
2424.00,1.3377
2423.00,1.3558
2422.00,1.3781
2421.00,1.4042
2420.00,1.4334
2419.00,1.4650
2418.00,1.4986
2417.00,1.5334
2416.00,1.5689
2415.00,1.6047
2414.00,1.6406
2413.00,1.6764
2412.00,1.7118
2411.00,1.7467
2410.00,1.7809
2409.00,1.8141
2408.00,1.8465
2407.00,1.8783
2406.00,1.9098
2405.00,1.9414
2404.00,1.9727
2403.00,2.0035
2402.00,2.0333
2401.00,2.0621
2400.00,2.0904
2399.00,2.1183
2398.00,2.1461
2397.00,2.1739
2396.00,2.2014
2395.00,2.2286
2394.00,2.2549
2393.00,2.2800
2392.00,2.3037
2391.00,2.3260
2390.00,2.3476
2389.00,2.3684
2388.00,2.3881
2387.00,2.4070
2386.00,2.4261
2385.00,2.4462
2384.00,2.4668
2383.00,2.4869
2382.00,2.5057
2381.00,2.5239
2380.00,2.5422
2379.00,2.5601
2378.00,2.5772
2377.00,2.5932
2376.00,2.6085
2375.00,2.6226
2374.00,2.6346
2373.00,2.6443
2372.00,2.6522
2371.00,2.6591
2370.00,2.6653
2369.00,2.6711
2368.00,2.6767
2367.00,2.6827
2366.00,2.6895
2365.00,2.6970
2364.00,2.7043
2363.00,2.7102
2362.00,2.7141
2361.00,2.7168
2360.00,2.7194
2359.00,2.7225
2358.00,2.7265
2357.00,2.7304
2356.00,2.7325
2355.00,2.7314
2354.00,2.7283
2353.00,2.7264
2352.00,2.7272
2351.00,2.7293
2350.00,2.7292
2349.00,2.7255
2348.00,2.7195
2347.00,2.7125
2346.00,2.7058
2345.00,2.7002
2344.00,2.6957
2343.00,2.6907
2342.00,2.6836
2341.00,2.6750
2340.00,2.6657
2339.00,2.6560
2338.00,2.6461
2337.00,2.6357
2336.00,2.6247
2335.00,2.6128
2334.00,2.6003
2333.00,2.5885
2332.00,2.5785
2331.00,2.5697
2330.00,2.5606
2329.00,2.5494
2328.00,2.5358
2327.00,2.5197
2326.00,2.5019
2325.00,2.4832
2324.00,2.4647
2323.00,2.4465
2322.00,2.4268
2321.00,2.4043
2320.00,2.3784
2319.00,2.3498
2318.00,2.3190
2317.00,2.2863
2316.00,2.2516
2315.00,2.2149
2314.00,2.1767
2313.00,2.1373
2312.00,2.0967
2311.00,2.0542
2310.00,2.0097
2309.00,1.9641
2308.00,1.9194
2307.00,1.8777
2306.00,1.8416
2305.00,1.8136
2304.00,1.7962
2303.00,1.7917
2302.00,1.8020
2301.00,1.8277
2300.00,1.8684
2299.00,1.9225
2298.00,1.9871
2297.00,2.0584
2296.00,2.1309
2295.00,2.1977
2294.00,2.2508
2293.00,2.2824
2292.00,2.2871
2291.00,2.2641
2290.00,2.2169
2289.00,2.1527
2288.00,2.0796
2287.00,2.0052
2286.00,1.9355
2285.00,1.8748
2284.00,1.8258
2283.00,1.7897
2282.00,1.7672
2281.00,1.7584
2280.00,1.7633
2279.00,1.7811
2278.00,1.8104
2277.00,1.8492
2276.00,1.8953
2275.00,1.9466
2274.00,2.0015
2273.00,2.0587
2272.00,2.1176
2271.00,2.1775
2270.00,2.2378
2269.00,2.2978
2268.00,2.3568
2267.00,2.4144
2266.00,2.4706
2265.00,2.5261
2264.00,2.5822
2263.00,2.6401
2262.00,2.7001
2261.00,2.7624
2260.00,2.8285
2259.00,2.9027
2258.00,2.9913
2257.00,3.1005
2256.00,3.2337
2255.00,3.3869
2254.00,3.5343
2253.00,3.6149
2252.00,3.5722
2251.00,3.4293
2250.00,3.2468
2249.00,3.0594
2248.00,2.8812
2247.00,2.7165
2246.00,2.5671
2245.00,2.4354
2244.00,2.3245
2243.00,2.2373
2242.00,2.1754
2241.00,2.1385
2240.00,2.1244
2239.00,2.1300
2238.00,2.1513
2237.00,2.1841
2236.00,2.2242
2235.00,2.2683
2234.00,2.3134
2233.00,2.3573
2232.00,2.3985
2231.00,2.4366
2230.00,2.4721
2229.00,2.5053
2228.00,2.5355
2227.00,2.5617
2226.00,2.5839
2225.00,2.6031
2224.00,2.6206
2223.00,2.6372
2222.00,2.6533
2221.00,2.6690
2220.00,2.6841
2219.00,2.6971
2218.00,2.7068
2217.00,2.7136
2216.00,2.7200
2215.00,2.7277
2214.00,2.7364
2213.00,2.7443
2212.00,2.7501
2211.00,2.7551
2210.00,2.7609
2209.00,2.7680
2208.00,2.7755
2207.00,2.7821
2206.00,2.7873
2205.00,2.7913
2204.00,2.7938
2203.00,2.7949
2202.00,2.7953
2201.00,2.7958
2200.00,2.7964
2199.00,2.7956
2198.00,2.7919
2197.00,2.7856
2196.00,2.7787
2195.00,2.7729
2194.00,2.7690
2193.00,2.7662
2192.00,2.7636
2191.00,2.7613
2190.00,2.7592
2189.00,2.7568
2188.00,2.7525
2187.00,2.7452
2186.00,2.7357
2185.00,2.7264
2184.00,2.7190
2183.00,2.7125
2182.00,2.7051
2181.00,2.6952
2180.00,2.6827
2179.00,2.6679
2178.00,2.6518
2177.00,2.6361
2176.00,2.6222
2175.00,2.6101
2174.00,2.5972
2173.00,2.5813
2172.00,2.5625
2171.00,2.5426
2170.00,2.5233
2169.00,2.5044
2168.00,2.4845
2167.00,2.4626
2166.00,2.4381
2165.00,2.4114
2164.00,2.3834
2163.00,2.3545
2162.00,2.3248
2161.00,2.2939
2160.00,2.2612
2159.00,2.2267
2158.00,2.1903
2157.00,2.1518
2156.00,2.1110
2155.00,2.0675
2154.00,2.0211
2153.00,1.9723
2152.00,1.9213
2151.00,1.8683
2150.00,1.8136
2149.00,1.7577
2148.00,1.7014
2147.00,1.6455
2146.00,1.5909
2145.00,1.5385
2144.00,1.4895
2143.00,1.4450
2142.00,1.4060
2141.00,1.3735
2140.00,1.3480
2139.00,1.3301
2138.00,1.3203
2137.00,1.3188
2136.00,1.3255
2135.00,1.3401
2134.00,1.3619
2133.00,1.3903
2132.00,1.4243
2131.00,1.4628
2130.00,1.5050
2129.00,1.5501
2128.00,1.5972
2127.00,1.6459
2126.00,1.6956
2125.00,1.7461
2124.00,1.7970
2123.00,1.8481
2122.00,1.8987
2121.00,1.9483
2120.00,1.9967
2119.00,2.0437
2118.00,2.0892
2117.00,2.1334
2116.00,2.1760
2115.00,2.2171
2114.00,2.2562
2113.00,2.2931
2112.00,2.3277
2111.00,2.3602
2110.00,2.3904
2109.00,2.4183
2108.00,2.4446
2107.00,2.4702
2106.00,2.4959
2105.00,2.5210
2104.00,2.5447
2103.00,2.5667
2102.00,2.5871
2101.00,2.6069
2100.00,2.6261
2099.00,2.6445
2098.00,2.6612
2097.00,2.6764
2096.00,2.6907
2095.00,2.7044
2094.00,2.7171
2093.00,2.7285
2092.00,2.7393
2091.00,2.7508
2090.00,2.7629
2089.00,2.7748
2088.00,2.7862
2087.00,2.7972
2086.00,2.8074
2085.00,2.8161
2084.00,2.8232
2083.00,2.8300
2082.00,2.8378
2081.00,2.8466
2080.00,2.8554
2079.00,2.8631
2078.00,2.8685
2077.00,2.8717
2076.00,2.8741
2075.00,2.8778
2074.00,2.8834
2073.00,2.8892
2072.00,2.8930
2071.00,2.8936
2070.00,2.8915
2069.00,2.8886
2068.00,2.8880
2067.00,2.8912
2066.00,2.8965
2065.00,2.8991
2064.00,2.8969
2063.00,2.8926
2062.00,2.8906
2061.00,2.8917
2060.00,2.8927
2059.00,2.8906
2058.00,2.8853
2057.00,2.8791
2056.00,2.8743
2055.00,2.8713
2054.00,2.8685
2053.00,2.8636
2052.00,2.8562
2051.00,2.8475
2050.00,2.8392
2049.00,2.8318
2048.00,2.8251
2047.00,2.8187
2046.00,2.8124
2045.00,2.8053
2044.00,2.7966
2043.00,2.7858
2042.00,2.7729
2041.00,2.7585
2040.00,2.7440
2039.00,2.7305
2038.00,2.7176
2037.00,2.7037
2036.00,2.6881
2035.00,2.6721
2034.00,2.6564
2033.00,2.6399
2032.00,2.6209
2031.00,2.5995
2030.00,2.5767
2029.00,2.5534
2028.00,2.5296
2027.00,2.5048
2026.00,2.4790
2025.00,2.4522
2024.00,2.4245
2023.00,2.3952
2022.00,2.3640
2021.00,2.3307
2020.00,2.2957
2019.00,2.2589
2018.00,2.2197
2017.00,2.1777
2016.00,2.1330
2015.00,2.0862
2014.00,2.0377
2013.00,1.9876
2012.00,1.9357
2011.00,1.8817
2010.00,1.8259
2009.00,1.7690
2008.00,1.7122
2007.00,1.6568
2006.00,1.6042
2005.00,1.5555
2004.00,1.5118
2003.00,1.4741
2002.00,1.4430
2001.00,1.4194
2000.00,1.4039
1999.00,1.3971
1998.00,1.3990
1997.00,1.4096
1996.00,1.4285
1995.00,1.4547
1994.00,1.4871
1993.00,1.5245
1992.00,1.5656
1991.00,1.6095
1990.00,1.6559
1989.00,1.7053
1988.00,1.7578
1987.00,1.8126
1986.00,1.8679
1985.00,1.9224
1984.00,1.9758
1983.00,2.0279
1982.00,2.0784
1981.00,2.1270
1980.00,2.1740
1979.00,2.2196
1978.00,2.2633
1977.00,2.3046
1976.00,2.3428
1975.00,2.3782
1974.00,2.4116
1973.00,2.4438
1972.00,2.4749
1971.00,2.5047
1970.00,2.5326
1969.00,2.5584
1968.00,2.5823
1967.00,2.6047
1966.00,2.6258
1965.00,2.6464
1964.00,2.6678
1963.00,2.6904
1962.00,2.7131
1961.00,2.7342
1960.00,2.7525
1959.00,2.7681
1958.00,2.7821
1957.00,2.7962
1956.00,2.8119
1955.00,2.8284
1954.00,2.8432
1953.00,2.8544
1952.00,2.8626
1951.00,2.8704
1950.00,2.8794
1949.00,2.8893
1948.00,2.8996
1947.00,2.9098
1946.00,2.9197
1945.00,2.9288
1944.00,2.9366
1943.00,2.9421
1942.00,2.9445
1941.00,2.9446
1940.00,2.9455
1939.00,2.9506
1938.00,2.9597
1937.00,2.9693
1936.00,2.9764
1935.00,2.9811
1934.00,2.9853
1933.00,2.9906
1932.00,2.9979
1931.00,3.0061
1930.00,3.0125
1929.00,3.0137
1928.00,3.0102
1927.00,3.0059
1926.00,3.0039
1925.00,3.0034
1924.00,3.0018
1923.00,2.9986
1922.00,2.9949
1921.00,2.9918
1920.00,2.9886
1919.00,2.9847
1918.00,2.9794
1917.00,2.9720
1916.00,2.9630
1915.00,2.9554
1914.00,2.9532
1913.00,2.9570
1912.00,2.9618
1911.00,2.9606
1910.00,2.9514
1909.00,2.9387
1908.00,2.9287
1907.00,2.9222
1906.00,2.9147
1905.00,2.9034
1904.00,2.8904
1903.00,2.8786
1902.00,2.8675
1901.00,2.8546
1900.00,2.8404
1899.00,2.8274
1898.00,2.8163
1897.00,2.8041
1896.00,2.7881
1895.00,2.7681
1894.00,2.7464
1893.00,2.7245
1892.00,2.7028
1891.00,2.6803
1890.00,2.6556
1889.00,2.6278
1888.00,2.5984
1887.00,2.5700
1886.00,2.5442
1885.00,2.5198
1884.00,2.4943
1883.00,2.4650
1882.00,2.4316
1881.00,2.3953
1880.00,2.3571
1879.00,2.3170
1878.00,2.2748
1877.00,2.2308
1876.00,2.1853
1875.00,2.1376
1874.00,2.0874
1873.00,2.0349
1872.00,1.9804
1871.00,1.9232
1870.00,1.8618
1869.00,1.7972
1868.00,1.7327
1867.00,1.6733
1866.00,1.6222
1865.00,1.5814
1864.00,1.5507
1863.00,1.5286
1862.00,1.5135
1861.00,1.5054
1860.00,1.5057
1859.00,1.5150
1858.00,1.5336
1857.00,1.5609
1856.00,1.5959
1855.00,1.6371
1854.00,1.6830
1853.00,1.7326
1852.00,1.7850
1851.00,1.8393
1850.00,1.8941
1849.00,1.9491
1848.00,2.0032
1847.00,2.0548
1846.00,2.1040
1845.00,2.1531
1844.00,2.2037
1843.00,2.2532
1842.00,2.2986
1841.00,2.3418
1840.00,2.3867
1839.00,2.4336
1838.00,2.4787
1837.00,2.5185
1836.00,2.5526
1835.00,2.5836
1834.00,2.6139
1833.00,2.6430
1832.00,2.6698
1831.00,2.6943
1830.00,2.7174
1829.00,2.7398
1828.00,2.7606
1827.00,2.7782
1826.00,2.7939
1825.00,2.8092
1824.00,2.8239
1823.00,2.8383
1822.00,2.8548
1821.00,2.8750
1820.00,2.8970
1819.00,2.9172
1818.00,2.9338
1817.00,2.9467
1816.00,2.9577
1815.00,2.9693
1814.00,2.9838
1813.00,2.9997
1812.00,3.0132
1811.00,3.0221
1810.00,3.0281
1809.00,3.0340
1808.00,3.0403
1807.00,3.0463
1806.00,3.0524
1805.00,3.0591
1804.00,3.0659
1803.00,3.0706
1802.00,3.0717
1801.00,3.0705
1800.00,3.0703
1799.00,3.0738
1798.00,3.0798
1797.00,3.0844
1796.00,3.0853
1795.00,3.0850
1794.00,3.0878
1793.00,3.0946
1792.00,3.1011
1791.00,3.1020
1790.00,3.0967
1789.00,3.0891
1788.00,3.0837
1787.00,3.0828
1786.00,3.0849
1785.00,3.0870
1784.00,3.0862
1783.00,3.0826
1782.00,3.0785
1781.00,3.0751
1780.00,3.0709
1779.00,3.0645
1778.00,3.0575
1777.00,3.0526
1776.00,3.0496
1775.00,3.0467
1774.00,3.0421
1773.00,3.0353
1772.00,3.0253
1771.00,3.0114
1770.00,2.9938
1769.00,2.9731
1768.00,2.9509
1767.00,2.9299
1766.00,2.9143
1765.00,2.9069
1764.00,2.9037
1763.00,2.8956
1762.00,2.8759
1761.00,2.8465
1760.00,2.8151
1759.00,2.7879
1758.00,2.7649
1757.00,2.7418
1756.00,2.7161
1755.00,2.6897
1754.00,2.6649
1753.00,2.6415
1752.00,2.6159
1751.00,2.5838
1750.00,2.5446
1749.00,2.5016
1748.00,2.4606
1747.00,2.4257
1746.00,2.3966
1745.00,2.3710
1744.00,2.3468
1743.00,2.3239
1742.00,2.3036
1741.00,2.2871
1740.00,2.2737
1739.00,2.2626
1738.00,2.2534
1737.00,2.2466
1736.00,2.2451
1735.00,2.2518
1734.00,2.2655
1733.00,2.2818
1732.00,2.2994
1731.00,2.3245
1730.00,2.3638
1729.00,2.4167
1728.00,2.4789
1727.00,2.5468
1726.00,2.6191
1725.00,2.6948
1724.00,2.7714
1723.00,2.8458
1722.00,2.9182
1721.00,2.9895
1720.00,3.0626
1719.00,3.1439
1718.00,3.2383
1717.00,3.3384
1716.00,3.4278
1715.00,3.5060
1714.00,3.5897
1713.00,3.6826
1712.00,3.7671
1711.00,3.8314
1710.00,3.8829
1709.00,3.9265
1708.00,3.9364
1707.00,3.8793
1706.00,3.7744
1705.00,3.6519
1704.00,3.5280
1703.00,3.4130
1702.00,3.2995
1701.00,3.1654
1700.00,3.0117
1699.00,2.8648
1698.00,2.7394
1697.00,2.6314
1696.00,2.5331
1695.00,2.4461
1694.00,2.3728
1693.00,2.3138
1692.00,2.2748
1691.00,2.2594
1690.00,2.2649
1689.00,2.2844
1688.00,2.3106
1687.00,2.3429
1686.00,2.3864
1685.00,2.4449
1684.00,2.5107
1683.00,2.5660
1682.00,2.5985
1681.00,2.6196
1680.00,2.6517
1679.00,2.6964
1678.00,2.7431
1677.00,2.7854
1676.00,2.8220
1675.00,2.8521
1674.00,2.8735
1673.00,2.8899
1672.00,2.9091
1671.00,2.9338
1670.00,2.9602
1669.00,2.9845
1668.00,3.0054
1667.00,3.0249
1666.00,3.0456
1665.00,3.0676
1664.00,3.0888
1663.00,3.1079
1662.00,3.1240
1661.00,3.1355
1660.00,3.1439
1659.00,3.1538
1658.00,3.1679
1657.00,3.1840
1656.00,3.1965
1655.00,3.2033
1654.00,3.2084
1653.00,3.2161
1652.00,3.2253
1651.00,3.2292
1650.00,3.2307
1649.00,3.2356
1648.00,3.2387
1647.00,3.2383
1646.00,3.2349
1645.00,3.2286
1644.00,3.2258
1643.00,3.2334
1642.00,3.2473
1641.00,3.2588
1640.00,3.2669
1639.00,3.2726
1638.00,3.2745
1637.00,3.2711
1636.00,3.2627
1635.00,3.2526
1634.00,3.2413
1633.00,3.2289
1632.00,3.2219
1631.00,3.2244
1630.00,3.2333
1629.00,3.2436
1628.00,3.2511
1627.00,3.2557
1626.00,3.2585
1625.00,3.2566
1624.00,3.2462
1623.00,3.2276
1622.00,3.2065
1621.00,3.1881
1620.00,3.1743
1619.00,3.1656
1618.00,3.1618
1617.00,3.1609
1616.00,3.1577
1615.00,3.1461
1614.00,3.1248
1613.00,3.1000
1612.00,3.0774
1611.00,3.0573
1610.00,3.0372
1609.00,3.0163
1608.00,2.9970
1607.00,2.9817
1606.00,2.9697
1605.00,2.9573
1604.00,2.9414
1603.00,2.9210
1602.00,2.8961
1601.00,2.8669
1600.00,2.8335
1599.00,2.7976
1598.00,2.7622
1597.00,2.7288
1596.00,2.6969
1595.00,2.6642
1594.00,2.6287
1593.00,2.5891
1592.00,2.5462
1591.00,2.5017
1590.00,2.4565
1589.00,2.4103
1588.00,2.3628
1587.00,2.3150
1586.00,2.2685
1585.00,2.2241
1584.00,2.1827
1583.00,2.1454
1582.00,2.1135
1581.00,2.0885
1580.00,2.0703
1579.00,2.0578
1578.00,2.0517
1577.00,2.0550
1576.00,2.0680
1575.00,2.0847
1574.00,2.0971
1573.00,2.1065
1572.00,2.1229
1571.00,2.1524
1570.00,2.1936
1569.00,2.2394
1568.00,2.2834
1567.00,2.3249
1566.00,2.3691
1565.00,2.4187
1564.00,2.4700
1563.00,2.5168
1562.00,2.5572
1561.00,2.5943
1560.00,2.6321
1559.00,2.6661
1558.00,2.6949
1557.00,2.7193
1556.00,2.7425
1555.00,2.7803
1554.00,2.8278
1553.00,2.8706
1552.00,2.9039
1551.00,2.9271
1550.00,2.9464
1549.00,2.9675
1548.00,2.9926
1547.00,3.0202
1546.00,3.0462
1545.00,3.0671
1544.00,3.0815
1543.00,3.0906
1542.00,3.0977
1541.00,3.1100
1540.00,3.1359
1539.00,3.1758
1538.00,3.2117
1537.00,3.2301
1536.00,3.2385
1535.00,3.2453
1534.00,3.2542
1533.00,3.2636
1532.00,3.2675
1531.00,3.2673
1530.00,3.2729
1529.00,3.2878
1528.00,3.3039
1527.00,3.3134
1526.00,3.3165
1525.00,3.3190
1524.00,3.3258
1523.00,3.3359
1522.00,3.3440
1521.00,3.3433
1520.00,3.3314
1519.00,3.3156
1518.00,3.3112
1517.00,3.3240
1516.00,3.3401
1515.00,3.3405
1514.00,3.3240
1513.00,3.3094
1512.00,3.3116
1511.00,3.3286
1510.00,3.3478
1509.00,3.3581
1508.00,3.3589
1507.00,3.3575
1506.00,3.3629
1505.00,3.3707
1504.00,3.3740
1503.00,3.3769
1502.00,3.3770
1501.00,3.3741
1500.00,3.3711
1499.00,3.3629
1498.00,3.3454
1497.00,3.3259
1496.00,3.3178
1495.00,3.3256
1494.00,3.3398
1493.00,3.3475
1492.00,3.3449
1491.00,3.3379
1490.00,3.3335
1489.00,3.3348
1488.00,3.3418
1487.00,3.3514
1486.00,3.3558
1485.00,3.3472
1484.00,3.3281
1483.00,3.3065
1482.00,3.2862
1481.00,3.2666
1480.00,3.2480
1479.00,3.2341
1478.00,3.2261
1477.00,3.2181
1476.00,3.2024
1475.00,3.1811
1474.00,3.1626
1473.00,3.1505
1472.00,3.1410
1471.00,3.1321
1470.00,3.1294
1469.00,3.1375
1468.00,3.1506
1467.00,3.1602
1466.00,3.1649
1465.00,3.1688
1464.00,3.1740
1463.00,3.1819
1462.00,3.1975
1461.00,3.2247
1460.00,3.2577
1459.00,3.2859
1458.00,3.3052
1457.00,3.3216
1456.00,3.3430
1455.00,3.3739
1454.00,3.4193
1453.00,3.4732
1452.00,3.5158
1451.00,3.5336
1450.00,3.5328
1449.00,3.5313
1448.00,3.5353
1447.00,3.5352
1446.00,3.5271
1445.00,3.5241
1444.00,3.5340
1443.00,3.5465
1442.00,3.5503
1441.00,3.5465
1440.00,3.5418
1439.00,3.5360
1438.00,3.5256
1437.00,3.5119
1436.00,3.5018
1435.00,3.5017
1434.00,3.5112
1433.00,3.5207
1432.00,3.5183
1431.00,3.5020
1430.00,3.4817
1429.00,3.4692
1428.00,3.4670
1427.00,3.4679
1426.00,3.4633
1425.00,3.4539
1424.00,3.4485
1423.00,3.4522
1422.00,3.4648
1421.00,3.4826
1420.00,3.4967
1419.00,3.4900
1418.00,3.4516
1417.00,3.3970
1416.00,3.3540
1415.00,3.3374
1414.00,3.3429
1413.00,3.3562
1412.00,3.3634
1411.00,3.3606
1410.00,3.3514
1409.00,3.3398
1408.00,3.3272
1407.00,3.3140
1406.00,3.2984
1405.00,3.2785
1404.00,3.2562
1403.00,3.2388
1402.00,3.2322
1401.00,3.2351
1400.00,3.2409
1399.00,3.2457
1398.00,3.2516
1397.00,3.2605
1396.00,3.2687
1395.00,3.2714
1394.00,3.2706
1393.00,3.2752
1392.00,3.2921
1391.00,3.3203
1390.00,3.3523
1389.00,3.3790
1388.00,3.3947
1387.00,3.4021
1386.00,3.4148
1385.00,3.4484
1384.00,3.5044
1383.00,3.5690
1382.00,3.6284
1381.00,3.6798
1380.00,3.7232
1379.00,3.7519
1378.00,3.7593
1377.00,3.7518
1376.00,3.7373
1375.00,3.7084
1374.00,3.6518
1373.00,3.5736
1372.00,3.4984
1371.00,3.4440
1370.00,3.4124
1369.00,3.3959
1368.00,3.3868
1367.00,3.3819
1366.00,3.3819
1365.00,3.3865
1364.00,3.3946
1363.00,3.4071
1362.00,3.4265
1361.00,3.4503
1360.00,3.4700
1359.00,3.4825
1358.00,3.4945
1357.00,3.5128
1356.00,3.5346
1355.00,3.5507
1354.00,3.5586
1353.00,3.5676
1352.00,3.5852
1351.00,3.6070
1350.00,3.6236
1349.00,3.6350
1348.00,3.6476
1347.00,3.6618
1346.00,3.6683
1345.00,3.6583
1344.00,3.6358
1343.00,3.6147
1342.00,3.6045
1341.00,3.6013
1340.00,3.5913
1339.00,3.5670
1338.00,3.5395
1337.00,3.5269
1336.00,3.5347
1335.00,3.5512
1334.00,3.5604
1333.00,3.5572
1332.00,3.5479
1331.00,3.5435
1330.00,3.5533
1329.00,3.5767
1328.00,3.6006
1327.00,3.6081
1326.00,3.5954
1325.00,3.5747
1324.00,3.5606
1323.00,3.5576
1322.00,3.5615
1321.00,3.5636
1320.00,3.5568
1319.00,3.5390
1318.00,3.5154
1317.00,3.4954
1316.00,3.4852
1315.00,3.4839
1314.00,3.4881
1313.00,3.4952
1312.00,3.5002
1311.00,3.4920
1310.00,3.4648
1309.00,3.4292
1308.00,3.4013
1307.00,3.3871
1306.00,3.3793
1305.00,3.3668
1304.00,3.3454
1303.00,3.3202
1302.00,3.2979
1301.00,3.2812
1300.00,3.2657
1299.00,3.2444
1298.00,3.2149
1297.00,3.1815
1296.00,3.1482
1295.00,3.1140
1294.00,3.0743
1293.00,3.0281
1292.00,2.9795
1291.00,2.9315
1290.00,2.8832
1289.00,2.8319
1288.00,2.7772
1287.00,2.7212
1286.00,2.6661
1285.00,2.6132
1284.00,2.5628
1283.00,2.5158
1282.00,2.4736
1281.00,2.4382
1280.00,2.4117
1279.00,2.3954
1278.00,2.3889
1277.00,2.3900
1276.00,2.3952
1275.00,2.4020
1274.00,2.4095
1273.00,2.4186
1272.00,2.4315
1271.00,2.4503
1270.00,2.4766
1269.00,2.5106
1268.00,2.5511
1267.00,2.5956
1266.00,2.6409
1265.00,2.6849
1264.00,2.7280
1263.00,2.7731
1262.00,2.8228
1261.00,2.8772
1260.00,2.9327
1259.00,2.9837
1258.00,3.0266
1257.00,3.0619
1256.00,3.0932
1255.00,3.1243
1254.00,3.1570
1253.00,3.1930
1252.00,3.2337
1251.00,3.2775
1250.00,3.3192
1249.00,3.3535
1248.00,3.3793
1247.00,3.3989
1246.00,3.4150
1245.00,3.4292
1244.00,3.4430
1243.00,3.4568
1242.00,3.4720
1241.00,3.4944
1240.00,3.5323
1239.00,3.5867
1238.00,3.6410
1237.00,3.6659
1236.00,3.6506
1235.00,3.6198
1234.00,3.5982
1233.00,3.5935
1232.00,3.6086
1231.00,3.6412
1230.00,3.6739
1229.00,3.6828
1228.00,3.6671
1227.00,3.6559
1226.00,3.6748
1225.00,3.7179
1224.00,3.7502
1223.00,3.7474
1222.00,3.7201
1221.00,3.6882
1220.00,3.6665
1219.00,3.6579
1218.00,3.6525
1217.00,3.6423
1216.00,3.6350
1215.00,3.6470
1214.00,3.6880
1213.00,3.7509
1212.00,3.8151
1211.00,3.8688
1210.00,3.9212
1209.00,3.9766
1208.00,4.0078
1207.00,3.9791
1206.00,3.8982
1205.00,3.8147
1204.00,3.7610
1203.00,3.7341
1202.00,3.7161
1201.00,3.7015
1200.00,3.6975
1199.00,3.7093
1198.00,3.7399
1197.00,3.7758
1196.00,3.7839
1195.00,3.7620
1194.00,3.7470
1193.00,3.7664
1192.00,3.8167
1191.00,3.8647
1190.00,3.8722
1189.00,3.8387
1188.00,3.7963
1187.00,3.7624
1186.00,3.7333
1185.00,3.7050
1184.00,3.6795
1183.00,3.6621
1182.00,3.6621
1181.00,3.6871
1180.00,3.7318
1179.00,3.7747
1178.00,3.7904
1177.00,3.7629
1176.00,3.6997
1175.00,3.6298
1174.00,3.5796
1173.00,3.5560
1172.00,3.5495
1171.00,3.5442
1170.00,3.5303
1169.00,3.5119
1168.00,3.5017
1167.00,3.5058
1166.00,3.5127
1165.00,3.4987
1164.00,3.4564
1163.00,3.4059
1162.00,3.3693
1161.00,3.3489
1160.00,3.3328
1159.00,3.3103
1158.00,3.2787
1157.00,3.2393
1156.00,3.1931
1155.00,3.1431
1154.00,3.0941
1153.00,3.0475
1152.00,3.0008
1151.00,2.9518
1150.00,2.9011
1149.00,2.8510
1148.00,2.8028
1147.00,2.7567
1146.00,2.7138
1145.00,2.6763
1144.00,2.6465
1143.00,2.6255
1142.00,2.6137
1141.00,2.6112
1140.00,2.6197
1139.00,2.6420
1138.00,2.6792
1137.00,2.7271
1136.00,2.7776
1135.00,2.8249
1134.00,2.8724
1133.00,2.9282
1132.00,2.9961
1131.00,3.0719
1130.00,3.1482
1129.00,3.2203
1128.00,3.2861
1127.00,3.3442
1126.00,3.4007
1125.00,3.4681
1124.00,3.5485
1123.00,3.6197
1122.00,3.6495
1121.00,3.6333
1120.00,3.5930
1119.00,3.5499
1118.00,3.5228
1117.00,3.5293
1116.00,3.5693
1115.00,3.6081
1114.00,3.6024
1113.00,3.5622
1112.00,3.5370
1111.00,3.5606
1110.00,3.6306
1109.00,3.7006
1108.00,3.7054
1107.00,3.6495
1106.00,3.6002
1105.00,3.6005
1104.00,3.6494
1103.00,3.7083
1102.00,3.7315
1101.00,3.7339
1100.00,3.7659
1099.00,3.8508
1098.00,3.9693
1097.00,4.0201
1096.00,3.9373
1095.00,3.8326
1094.00,3.7447
1093.00,3.6681
1092.00,3.6299
1091.00,3.6636
1090.00,3.7804
1089.00,3.9391
1088.00,3.9700
1087.00,3.8419
1086.00,3.7465
1085.00,3.7437
1084.00,3.8279
1083.00,3.9710
1082.00,4.1184
1081.00,4.1859
1080.00,4.2241
1079.00,4.2343
1078.00,4.0987
1077.00,3.9976
1076.00,3.9949
1075.00,4.0777
1074.00,4.2873
1073.00,5.0081
1072.00,4.4474
1071.00,4.3603
1070.00,4.5301
1069.00,4.2630
1068.00,4.0465
1067.00,4.0113
1066.00,4.0840
1065.00,4.1633
1064.00,4.1493
1063.00,4.1179
1062.00,4.1488
1061.00,4.2510
1060.00,4.3148
1059.00,4.1904
1058.00,4.0125
1057.00,3.9065
1056.00,3.8924
1055.00,3.9450
1054.00,3.9934
1053.00,3.9536
1052.00,3.8408
1051.00,3.7320
1050.00,3.6768
1049.00,3.6888
1048.00,3.7550
1047.00,3.8360
1046.00,3.8869
1045.00,3.9209
1044.00,3.9451
1043.00,3.9390
1042.00,3.9464
1041.00,3.9818
1040.00,4.0150
1039.00,4.0469
1038.00,4.0935
1037.00,4.1096
1036.00,4.0392
1035.00,3.9281
1034.00,3.8584
1033.00,3.8589
1032.00,3.9203
1031.00,4.0131
1030.00,4.0909
1029.00,4.1226
1028.00,4.1050
1027.00,4.0415
1026.00,4.0018
1025.00,4.0240
1024.00,4.0152
1023.00,3.9299
1022.00,3.8834
1021.00,3.9101
1020.00,3.9679
1019.00,4.0069
1018.00,4.0510
1017.00,4.1093
1016.00,4.1509
1015.00,4.1537
1014.00,4.1362
1013.00,4.1383
1012.00,4.0996
1011.00,3.9832
1010.00,3.8545
1009.00,3.7535
1008.00,3.6996
1007.00,3.7010
1006.00,3.7484
1005.00,3.7990
1004.00,3.7905
1003.00,3.7106
1002.00,3.6024
1001.00,3.5087
1000.00,3.4437
999.00,3.4023
998.00,3.3781
997.00,3.3648
996.00,3.3482
995.00,3.3195
994.00,3.2891
993.00,3.2739
992.00,3.2785
991.00,3.2931
990.00,3.3071
989.00,3.3202
988.00,3.3384
987.00,3.3610
986.00,3.3847
985.00,3.4219
984.00,3.4910
983.00,3.5924
982.00,3.6956
981.00,3.7619
980.00,3.7950
979.00,3.8314
978.00,3.8982
977.00,4.0121
976.00,4.1861
975.00,4.3843
974.00,4.4536
973.00,4.3324
972.00,4.1557
971.00,4.0106
970.00,3.9169
969.00,3.8780
968.00,3.8749
967.00,3.8677
966.00,3.8616
965.00,3.8949
964.00,3.9719
963.00,4.0789
962.00,4.1854
961.00,4.2038
960.00,4.1334
959.00,4.0768
958.00,4.0481
957.00,3.9661
956.00,3.8613
955.00,3.8245
954.00,3.8898
953.00,4.0810
952.00,4.4356
951.00,4.9892
950.00,5.4491
949.00,4.7179
948.00,4.3972
947.00,4.2145
946.00,4.1216
945.00,4.1589
944.00,4.2976
943.00,4.1384
942.00,3.9905
941.00,4.0027
940.00,4.0815
939.00,4.0911
938.00,4.0734
937.00,4.0846
936.00,4.1196
935.00,4.1692
934.00,4.1752
933.00,4.0915
932.00,3.9926
931.00,3.9487
930.00,3.9889
929.00,4.1548
928.00,4.4643
927.00,4.3583
926.00,4.2108
925.00,4.2545
924.00,4.4168
923.00,4.5038
922.00,4.3765
921.00,4.2376
920.00,4.1636
919.00,4.1301
918.00,4.1236
917.00,4.1705
916.00,4.2588
915.00,4.3344
914.00,4.3668
913.00,4.5131
912.00,5.0398
911.00,4.5465
910.00,4.2984
909.00,4.2819
908.00,4.3082
907.00,4.2309
906.00,4.2001
905.00,4.2781
904.00,4.3597
903.00,4.3232
902.00,4.2072
901.00,4.1332
900.00,4.1058
899.00,4.1126
898.00,4.1696
897.00,4.3224
896.00,4.4842
895.00,4.3456
894.00,4.1701
893.00,4.1537
892.00,4.3195
891.00,4.4199
890.00,4.2889
889.00,4.2070
888.00,4.1671
887.00,4.1746
886.00,4.1994
885.00,4.0830
884.00,3.9190
883.00,3.8336
882.00,3.8340
881.00,3.9021
880.00,4.0011
879.00,4.1457
878.00,4.4697
877.00,4.6396
876.00,4.4105
875.00,4.3365
874.00,4.2496
873.00,4.2483
872.00,4.3929
871.00,4.5020
870.00,4.3494
869.00,4.1995
868.00,4.1326
867.00,4.1926
866.00,4.5575
865.00,4.5679
864.00,4.1137
863.00,3.9754
862.00,3.9729
861.00,4.0133
860.00,4.0217
859.00,3.9617
858.00,3.8703
857.00,3.8069
856.00,3.8218
855.00,3.9258
854.00,4.1382
853.00,4.4394
852.00,4.3281
851.00,4.1931
850.00,4.2198
849.00,4.3130
848.00,4.3439
847.00,4.4261
846.00,4.7693
845.00,4.5388
844.00,4.2383
843.00,4.1606
842.00,4.2000
841.00,4.3672
840.00,4.5389
839.00,4.2921
838.00,4.2320
837.00,4.5331
836.00,4.4173
835.00,4.0380
834.00,3.9209
833.00,3.8905
832.00,3.8883
831.00,3.9318
830.00,4.1039
829.00,4.4212
828.00,4.2402
827.00,4.0670
826.00,4.0024
825.00,3.9263
824.00,3.8142
823.00,3.7031
822.00,3.6426
821.00,3.6508
820.00,3.7023
819.00,3.7292
818.00,3.7283
817.00,3.7506
816.00,3.7979
815.00,3.8308
814.00,3.8665
813.00,3.9689
812.00,4.2262
811.00,4.4879
810.00,4.2174
809.00,4.1566
808.00,4.4204
807.00,4.4815
806.00,4.0011
805.00,3.7692
804.00,3.6769
803.00,3.6658
802.00,3.7126
801.00,3.7851
800.00,3.8558
799.00,3.8960
798.00,3.9187
797.00,3.9630
796.00,4.0060
795.00,3.9794
794.00,3.9301
793.00,3.9115
792.00,3.9089
791.00,3.9046
790.00,3.8858
789.00,3.8658
788.00,3.8923
787.00,4.0269
786.00,4.3064
785.00,4.2937
784.00,4.0301
783.00,3.9113
782.00,3.8898
781.00,3.9154
780.00,3.9348
779.00,3.9070
778.00,3.8862
777.00,3.9432
776.00,4.1341
775.00,4.3851
774.00,4.2541
773.00,4.0708
772.00,3.9903
771.00,3.9614
770.00,3.9568
769.00,3.9739
768.00,4.0218
767.00,4.0978
766.00,4.2069
765.00,4.2186
764.00,4.1733
763.00,4.2360
762.00,4.2840
761.00,4.1824
760.00,3.9966
759.00,3.8536
758.00,3.8103
757.00,3.8549
756.00,3.9687
755.00,4.1219
754.00,4.2424
753.00,4.2059
752.00,4.0253
751.00,3.8783
750.00,3.8226
749.00,3.8229
748.00,3.8215
747.00,3.8220
746.00,3.8859
745.00,4.0484
744.00,4.3347
743.00,4.7195
742.00,4.6736
741.00,4.4101
740.00,4.3324
739.00,4.3919
738.00,4.6063
737.00,4.9764
736.00,4.4932
735.00,4.1698
734.00,4.0667
733.00,4.0255
732.00,3.9231
731.00,3.8035
730.00,3.7642
729.00,3.8097
728.00,3.9752
727.00,4.2476
726.00,4.1297
725.00,3.9286
724.00,3.8830
723.00,3.9673
722.00,4.1418
721.00,4.1813
720.00,4.0848
719.00,3.9830
718.00,3.9347
717.00,3.9725
716.00,4.1568
715.00,4.4961
714.00,4.2904
713.00,4.2970
712.00,4.6586
711.00,4.2707
710.00,4.1117
709.00,4.3827
708.00,4.6747
707.00,4.1190
706.00,3.8857
705.00,3.7775
704.00,3.7620
703.00,3.8611
702.00,4.1198
701.00,4.7659
700.00,4.6722
