Created as New Dataset,Sample 040 By Administrator Date Wednesday, November 24 2021
cm-1,A
7502.00,0.7991
7501.00,0.8048
7500.00,0.8109
7499.00,0.8168
7498.00,0.8216
7497.00,0.8253
7496.00,0.8287
7495.00,0.8320
7494.00,0.8348
7493.00,0.8367
7492.00,0.8385
7491.00,0.8413
7490.00,0.8452
7489.00,0.8491
7488.00,0.8517
7487.00,0.8523
7486.00,0.8513
7485.00,0.8493
7484.00,0.8465
7483.00,0.8432
7482.00,0.8400
7481.00,0.8369
7480.00,0.8342
7479.00,0.8317
7478.00,0.8294
7477.00,0.8273
7476.00,0.8251
7475.00,0.8226
7474.00,0.8202
7473.00,0.8182
7472.00,0.8164
7471.00,0.8137
7470.00,0.8094
7469.00,0.8034
7468.00,0.7966
7467.00,0.7901
7466.00,0.7842
7465.00,0.7780
7464.00,0.7708
7463.00,0.7624
7462.00,0.7535
7461.00,0.7444
7460.00,0.7352
7459.00,0.7255
7458.00,0.7157
7457.00,0.7067
7456.00,0.6989
7455.00,0.6923
7454.00,0.6863
7453.00,0.6803
7452.00,0.6743
7451.00,0.6681
7450.00,0.6615
7449.00,0.6545
7448.00,0.6476
7447.00,0.6412
7446.00,0.6352
7445.00,0.6292
7444.00,0.6230
7443.00,0.6167
7442.00,0.6106
7441.00,0.6048
7440.00,0.5991
7439.00,0.5936
7438.00,0.5884
7437.00,0.5838
7436.00,0.5794
7435.00,0.5751
7434.00,0.5710
7433.00,0.5671
7432.00,0.5635
7431.00,0.5599
7430.00,0.5566
7429.00,0.5537
7428.00,0.5515
7427.00,0.5499
7426.00,0.5489
7425.00,0.5482
7424.00,0.5475
7423.00,0.5466
7422.00,0.5456
7421.00,0.5449
7420.00,0.5444
7419.00,0.5440
7418.00,0.5437
7417.00,0.5438
7416.00,0.5444
7415.00,0.5457
7414.00,0.5475
7413.00,0.5499
7412.00,0.5526
7411.00,0.5556
7410.00,0.5591
7409.00,0.5629
7408.00,0.5673
7407.00,0.5721
7406.00,0.5775
7405.00,0.5836
7404.00,0.5900
7403.00,0.5964
7402.00,0.6028
7401.00,0.6094
7400.00,0.6163
7399.00,0.6234
7398.00,0.6305
7397.00,0.6376
7396.00,0.6449
7395.00,0.6526
7394.00,0.6608
7393.00,0.6695
7392.00,0.6787
7391.00,0.6881
7390.00,0.6975
7389.00,0.7069
7388.00,0.7164
7387.00,0.7261
7386.00,0.7358
7385.00,0.7454
7384.00,0.7545
7383.00,0.7632
7382.00,0.7721
7381.00,0.7815
7380.00,0.7912
7379.00,0.8008
7378.00,0.8102
7377.00,0.8196
7376.00,0.8287
7375.00,0.8375
7374.00,0.8460
7373.00,0.8543
7372.00,0.8623
7371.00,0.8699
7370.00,0.8774
7369.00,0.8851
7368.00,0.8933
7367.00,0.9015
7366.00,0.9093
7365.00,0.9167
7364.00,0.9238
7363.00,0.9305
7362.00,0.9368
7361.00,0.9426
7360.00,0.9483
7359.00,0.9538
7358.00,0.9590
7357.00,0.9641
7356.00,0.9690
7355.00,0.9736
7354.00,0.9781
7353.00,0.9826
7352.00,0.9872
7351.00,0.9914
7350.00,0.9951
7349.00,0.9981
7348.00,1.0004
7347.00,1.0023
7346.00,1.0039
7345.00,1.0053
7344.00,1.0066
7343.00,1.0074
7342.00,1.0078
7341.00,1.0080
7340.00,1.0082
7339.00,1.0083
7338.00,1.0076
7337.00,1.0059
7336.00,1.0039
7335.00,1.0022
7334.00,1.0010
7333.00,0.9996
7332.00,0.9974
7331.00,0.9945
7330.00,0.9914
7329.00,0.9886
7328.00,0.9857
7327.00,0.9819
7326.00,0.9774
7325.00,0.9727
7324.00,0.9681
7323.00,0.9631
7322.00,0.9574
7321.00,0.9509
7320.00,0.9439
7319.00,0.9369
7318.00,0.9303
7317.00,0.9240
7316.00,0.9178
7315.00,0.9113
7314.00,0.9043
7313.00,0.8972
7312.00,0.8902
7311.00,0.8830
7310.00,0.8754
7309.00,0.8675
7308.00,0.8595
7307.00,0.8515
7306.00,0.8434
7305.00,0.8351
7304.00,0.8268
7303.00,0.8183
7302.00,0.8098
7301.00,0.8014
7300.00,0.7931
7299.00,0.7850
7298.00,0.7770
7297.00,0.7690
7296.00,0.7609
7295.00,0.7528
7294.00,0.7451
7293.00,0.7379
7292.00,0.7313
7291.00,0.7252
7290.00,0.7194
7289.00,0.7136
7288.00,0.7080
7287.00,0.7026
7286.00,0.6974
7285.00,0.6925
7284.00,0.6878
7283.00,0.6834
7282.00,0.6796
7281.00,0.6763
7280.00,0.6736
7279.00,0.6712
7278.00,0.6693
7277.00,0.6677
7276.00,0.6666
7275.00,0.6661
7274.00,0.6661
7273.00,0.6667
7272.00,0.6678
7271.00,0.6692
7270.00,0.6708
7269.00,0.6728
7268.00,0.6753
7267.00,0.6782
7266.00,0.6814
7265.00,0.6850
7264.00,0.6890
7263.00,0.6935
7262.00,0.6985
7261.00,0.7037
7260.00,0.7094
7259.00,0.7155
7258.00,0.7219
7257.00,0.7285
7256.00,0.7349
7255.00,0.7414
7254.00,0.7483
7253.00,0.7556
7252.00,0.7632
7251.00,0.7709
7250.00,0.7791
7249.00,0.7878
7248.00,0.7968
7247.00,0.8057
7246.00,0.8146
7245.00,0.8234
7244.00,0.8324
7243.00,0.8414
7242.00,0.8505
7241.00,0.8596
7240.00,0.8684
7239.00,0.8767
7238.00,0.8845
7237.00,0.8920
7236.00,0.8995
7235.00,0.9069
7234.00,0.9146
7233.00,0.9227
7232.00,0.9313
7231.00,0.9399
7230.00,0.9479
7229.00,0.9553
7228.00,0.9626
7227.00,0.9701
7226.00,0.9774
7225.00,0.9844
7224.00,0.9910
7223.00,0.9973
7222.00,1.0036
7221.00,1.0096
7220.00,1.0152
7219.00,1.0203
7218.00,1.0252
7217.00,1.0300
7216.00,1.0345
7215.00,1.0382
7214.00,1.0411
7213.00,1.0437
7212.00,1.0465
7211.00,1.0495
7210.00,1.0524
7209.00,1.0551
7208.00,1.0576
7207.00,1.0600
7206.00,1.0621
7205.00,1.0638
7204.00,1.0649
7203.00,1.0653
7202.00,1.0653
7201.00,1.0654
7200.00,1.0656
7199.00,1.0656
7198.00,1.0647
7197.00,1.0627
7196.00,1.0601
7195.00,1.0577
7194.00,1.0555
7193.00,1.0534
7192.00,1.0510
7191.00,1.0484
7190.00,1.0458
7189.00,1.0428
7188.00,1.0393
7187.00,1.0349
7186.00,1.0300
7185.00,1.0245
7184.00,1.0185
7183.00,1.0121
7182.00,1.0057
7181.00,0.9997
7180.00,0.9939
7179.00,0.9877
7178.00,0.9812
7177.00,0.9747
7176.00,0.9685
7175.00,0.9619
7174.00,0.9545
7173.00,0.9464
7172.00,0.9380
7171.00,0.9298
7170.00,0.9219
7169.00,0.9141
7168.00,0.9062
7167.00,0.8982
7166.00,0.8901
7165.00,0.8820
7164.00,0.8736
7163.00,0.8648
7162.00,0.8557
7161.00,0.8467
7160.00,0.8379
7159.00,0.8293
7158.00,0.8209
7157.00,0.8126
7156.00,0.8046
7155.00,0.7969
7154.00,0.7895
7153.00,0.7823
7152.00,0.7753
7151.00,0.7686
7150.00,0.7621
7149.00,0.7561
7148.00,0.7503
7147.00,0.7447
7146.00,0.7392
7145.00,0.7340
7144.00,0.7292
7143.00,0.7247
7142.00,0.7205
7141.00,0.7165
7140.00,0.7128
7139.00,0.7096
7138.00,0.7071
7137.00,0.7050
7136.00,0.7033
7135.00,0.7017
7134.00,0.7005
7133.00,0.6997
7132.00,0.6994
7131.00,0.6994
7130.00,0.6997
7129.00,0.7005
7128.00,0.7019
7127.00,0.7038
7126.00,0.7062
7125.00,0.7091
7124.00,0.7126
7123.00,0.7166
7122.00,0.7210
7121.00,0.7258
7120.00,0.7309
7119.00,0.7363
7118.00,0.7419
7117.00,0.7480
7116.00,0.7544
7115.00,0.7609
7114.00,0.7675
7113.00,0.7746
7112.00,0.7823
7111.00,0.7901
7110.00,0.7979
7109.00,0.8057
7108.00,0.8137
7107.00,0.8222
7106.00,0.8309
7105.00,0.8398
7104.00,0.8486
7103.00,0.8575
7102.00,0.8665
7101.00,0.8754
7100.00,0.8841
7099.00,0.8929
7098.00,0.9016
7097.00,0.9100
7096.00,0.9181
7095.00,0.9266
7094.00,0.9357
7093.00,0.9452
7092.00,0.9543
7091.00,0.9628
7090.00,0.9710
7089.00,0.9793
7088.00,0.9877
7087.00,0.9958
7086.00,1.0035
7085.00,1.0111
7084.00,1.0186
7083.00,1.0263
7082.00,1.0340
7081.00,1.0415
7080.00,1.0487
7079.00,1.0553
7078.00,1.0613
7077.00,1.0670
7076.00,1.0725
7075.00,1.0779
7074.00,1.0829
7073.00,1.0876
7072.00,1.0919
7071.00,1.0963
7070.00,1.1009
7069.00,1.1054
7068.00,1.1094
7067.00,1.1129
7066.00,1.1162
7065.00,1.1192
7064.00,1.1220
7063.00,1.1245
7062.00,1.1269
7061.00,1.1293
7060.00,1.1313
7059.00,1.1323
7058.00,1.1324
7057.00,1.1322
7056.00,1.1320
7055.00,1.1319
7054.00,1.1313
7053.00,1.1304
7052.00,1.1293
7051.00,1.1282
7050.00,1.1270
7049.00,1.1248
7048.00,1.1215
7047.00,1.1177
7046.00,1.1138
7045.00,1.1098
7044.00,1.1055
7043.00,1.1007
7042.00,1.0959
7041.00,1.0913
7040.00,1.0868
7039.00,1.0819
7038.00,1.0765
7037.00,1.0708
7036.00,1.0649
7035.00,1.0590
7034.00,1.0528
7033.00,1.0463
7032.00,1.0394
7031.00,1.0320
7030.00,1.0245
7029.00,1.0170
7028.00,1.0094
7027.00,1.0015
7026.00,0.9930
7025.00,0.9843
7024.00,0.9754
7023.00,0.9665
7022.00,0.9574
7021.00,0.9482
7020.00,0.9388
7019.00,0.9296
7018.00,0.9207
7017.00,0.9121
7016.00,0.9035
7015.00,0.8949
7014.00,0.8862
7013.00,0.8773
7012.00,0.8682
7011.00,0.8591
7010.00,0.8505
7009.00,0.8423
7008.00,0.8345
7007.00,0.8269
7006.00,0.8196
7005.00,0.8125
7004.00,0.8056
7003.00,0.7989
7002.00,0.7923
7001.00,0.7859
7000.00,0.7798
6999.00,0.7741
6998.00,0.7691
6997.00,0.7649
6996.00,0.7612
6995.00,0.7579
6994.00,0.7550
6993.00,0.7525
6992.00,0.7505
6991.00,0.7489
6990.00,0.7477
6989.00,0.7468
6988.00,0.7464
6987.00,0.7466
6986.00,0.7473
6985.00,0.7486
6984.00,0.7503
6983.00,0.7526
6982.00,0.7556
6981.00,0.7593
6980.00,0.7633
6979.00,0.7674
6978.00,0.7718
6977.00,0.7766
6976.00,0.7818
6975.00,0.7872
6974.00,0.7928
6973.00,0.7988
6972.00,0.8053
6971.00,0.8122
6970.00,0.8194
6969.00,0.8268
6968.00,0.8343
6967.00,0.8420
6966.00,0.8500
6965.00,0.8584
6964.00,0.8671
6963.00,0.8758
6962.00,0.8844
6961.00,0.8930
6960.00,0.9015
6959.00,0.9100
6958.00,0.9186
6957.00,0.9274
6956.00,0.9364
6955.00,0.9456
6954.00,0.9546
6953.00,0.9636
6952.00,0.9724
6951.00,0.9810
6950.00,0.9895
6949.00,0.9978
6948.00,1.0060
6947.00,1.0139
6946.00,1.0217
6945.00,1.0293
6944.00,1.0370
6943.00,1.0448
6942.00,1.0527
6941.00,1.0604
6940.00,1.0678
6939.00,1.0746
6938.00,1.0808
6937.00,1.0864
6936.00,1.0915
6935.00,1.0964
6934.00,1.1012
6933.00,1.1059
6932.00,1.1106
6931.00,1.1158
6930.00,1.1211
6929.00,1.1260
6928.00,1.1296
6927.00,1.1322
6926.00,1.1342
6925.00,1.1361
6924.00,1.1380
6923.00,1.1398
6922.00,1.1416
6921.00,1.1436
6920.00,1.1457
6919.00,1.1475
6918.00,1.1485
6917.00,1.1486
6916.00,1.1477
6915.00,1.1463
6914.00,1.1448
6913.00,1.1436
6912.00,1.1424
6911.00,1.1408
6910.00,1.1387
6909.00,1.1362
6908.00,1.1334
6907.00,1.1301
6906.00,1.1266
6905.00,1.1228
6904.00,1.1191
6903.00,1.1154
6902.00,1.1113
6901.00,1.1068
6900.00,1.1018
6899.00,1.0963
6898.00,1.0904
6897.00,1.0842
6896.00,1.0778
6895.00,1.0712
6894.00,1.0643
6893.00,1.0570
6892.00,1.0494
6891.00,1.0415
6890.00,1.0333
6889.00,1.0248
6888.00,1.0161
6887.00,1.0073
6886.00,0.9983
6885.00,0.9895
6884.00,0.9807
6883.00,0.9719
6882.00,0.9629
6881.00,0.9539
6880.00,0.9449
6879.00,0.9358
6878.00,0.9266
6877.00,0.9174
6876.00,0.9082
6875.00,0.8990
6874.00,0.8899
6873.00,0.8809
6872.00,0.8720
6871.00,0.8632
6870.00,0.8546
6869.00,0.8460
6868.00,0.8377
6867.00,0.8296
6866.00,0.8218
6865.00,0.8143
6864.00,0.8070
6863.00,0.7999
6862.00,0.7932
6861.00,0.7870
6860.00,0.7811
6859.00,0.7757
6858.00,0.7707
6857.00,0.7661
6856.00,0.7619
6855.00,0.7580
6854.00,0.7544
6853.00,0.7511
6852.00,0.7482
6851.00,0.7456
6850.00,0.7435
6849.00,0.7421
6848.00,0.7412
6847.00,0.7408
6846.00,0.7409
6845.00,0.7417
6844.00,0.7430
6843.00,0.7447
6842.00,0.7467
6841.00,0.7491
6840.00,0.7519
6839.00,0.7550
6838.00,0.7585
6837.00,0.7624
6836.00,0.7668
6835.00,0.7716
6834.00,0.7770
6833.00,0.7828
6832.00,0.7891
6831.00,0.7957
6830.00,0.8025
6829.00,0.8096
6828.00,0.8170
6827.00,0.8246
6826.00,0.8325
6825.00,0.8404
6824.00,0.8486
6823.00,0.8571
6822.00,0.8661
6821.00,0.8752
6820.00,0.8842
6819.00,0.8933
6818.00,0.9026
6817.00,0.9120
6816.00,0.9214
6815.00,0.9307
6814.00,0.9400
6813.00,0.9495
6812.00,0.9591
6811.00,0.9686
6810.00,0.9778
6809.00,0.9868
6808.00,0.9958
6807.00,1.0048
6806.00,1.0138
6805.00,1.0227
6804.00,1.0311
6803.00,1.0392
6802.00,1.0471
6801.00,1.0552
6800.00,1.0632
6799.00,1.0710
6798.00,1.0785
6797.00,1.0860
6796.00,1.0936
6795.00,1.1013
6794.00,1.1084
6793.00,1.1147
6792.00,1.1205
6791.00,1.1261
6790.00,1.1317
6789.00,1.1371
6788.00,1.1420
6787.00,1.1465
6786.00,1.1508
6785.00,1.1550
6784.00,1.1590
6783.00,1.1628
6782.00,1.1664
6781.00,1.1698
6780.00,1.1729
6779.00,1.1757
6778.00,1.1781
6777.00,1.1801
6776.00,1.1815
6775.00,1.1823
6774.00,1.1829
6773.00,1.1832
6772.00,1.1833
6771.00,1.1832
6770.00,1.1831
6769.00,1.1826
6768.00,1.1816
6767.00,1.1801
6766.00,1.1785
6765.00,1.1769
6764.00,1.1750
6763.00,1.1725
6762.00,1.1695
6761.00,1.1662
6760.00,1.1626
6759.00,1.1588
6758.00,1.1545
6757.00,1.1498
6756.00,1.1447
6755.00,1.1393
6754.00,1.1337
6753.00,1.1279
6752.00,1.1218
6751.00,1.1154
6750.00,1.1086
6749.00,1.1015
6748.00,1.0941
6747.00,1.0866
6746.00,1.0789
6745.00,1.0709
6744.00,1.0624
6743.00,1.0537
6742.00,1.0449
6741.00,1.0361
6740.00,1.0267
6739.00,1.0169
6738.00,1.0069
6737.00,0.9972
6736.00,0.9877
6735.00,0.9782
6734.00,0.9687
6733.00,0.9593
6732.00,0.9499
6731.00,0.9404
6730.00,0.9309
6729.00,0.9214
6728.00,0.9118
6727.00,0.9021
6726.00,0.8925
6725.00,0.8831
6724.00,0.8740
6723.00,0.8652
6722.00,0.8567
6721.00,0.8485
6720.00,0.8406
6719.00,0.8329
6718.00,0.8255
6717.00,0.8185
6716.00,0.8120
6715.00,0.8058
6714.00,0.8000
6713.00,0.7948
6712.00,0.7900
6711.00,0.7857
6710.00,0.7818
6709.00,0.7781
6708.00,0.7748
6707.00,0.7720
6706.00,0.7699
6705.00,0.7683
6704.00,0.7674
6703.00,0.7670
6702.00,0.7672
6701.00,0.7680
6700.00,0.7693
6699.00,0.7710
6698.00,0.7731
6697.00,0.7757
6696.00,0.7787
6695.00,0.7823
6694.00,0.7865
6693.00,0.7911
6692.00,0.7962
6691.00,0.8016
6690.00,0.8075
6689.00,0.8137
6688.00,0.8203
6687.00,0.8272
6686.00,0.8343
6685.00,0.8418
6684.00,0.8496
6683.00,0.8577
6682.00,0.8661
6681.00,0.8746
6680.00,0.8832
6679.00,0.8918
6678.00,0.9005
6677.00,0.9093
6676.00,0.9182
6675.00,0.9272
6674.00,0.9364
6673.00,0.9457
6672.00,0.9551
6671.00,0.9643
6670.00,0.9735
6669.00,0.9826
6668.00,0.9916
6667.00,1.0004
6666.00,1.0093
6665.00,1.0183
6664.00,1.0271
6663.00,1.0358
6662.00,1.0443
6661.00,1.0529
6660.00,1.0613
6659.00,1.0695
6658.00,1.0772
6657.00,1.0846
6656.00,1.0918
6655.00,1.0988
6654.00,1.1056
6653.00,1.1121
6652.00,1.1186
6651.00,1.1250
6650.00,1.1316
6649.00,1.1381
6648.00,1.1439
6647.00,1.1490
6646.00,1.1533
6645.00,1.1571
6644.00,1.1607
6643.00,1.1638
6642.00,1.1667
6641.00,1.1695
6640.00,1.1724
6639.00,1.1755
6638.00,1.1786
6637.00,1.1812
6636.00,1.1829
6635.00,1.1840
6634.00,1.1848
6633.00,1.1853
6632.00,1.1852
6631.00,1.1846
6630.00,1.1838
6629.00,1.1833
6628.00,1.1825
6627.00,1.1811
6626.00,1.1788
6625.00,1.1761
6624.00,1.1733
6623.00,1.1703
6622.00,1.1671
6621.00,1.1636
6620.00,1.1598
6619.00,1.1557
6618.00,1.1510
6617.00,1.1460
6616.00,1.1405
6615.00,1.1346
6614.00,1.1285
6613.00,1.1225
6612.00,1.1165
6611.00,1.1104
6610.00,1.1039
6609.00,1.0967
6608.00,1.0889
6607.00,1.0810
6606.00,1.0730
6605.00,1.0647
6604.00,1.0559
6603.00,1.0467
6602.00,1.0374
6601.00,1.0281
6600.00,1.0187
6599.00,1.0091
6598.00,0.9995
6597.00,0.9900
6596.00,0.9806
6595.00,0.9713
6594.00,0.9620
6593.00,0.9528
6592.00,0.9435
6591.00,0.9340
6590.00,0.9243
6589.00,0.9148
6588.00,0.9054
6587.00,0.8960
6586.00,0.8867
6585.00,0.8774
6584.00,0.8684
6583.00,0.8595
6582.00,0.8508
6581.00,0.8422
6580.00,0.8337
6579.00,0.8257
6578.00,0.8182
6577.00,0.8113
6576.00,0.8046
6575.00,0.7981
6574.00,0.7919
6573.00,0.7861
6572.00,0.7806
6571.00,0.7754
6570.00,0.7705
6569.00,0.7662
6568.00,0.7623
6567.00,0.7588
6566.00,0.7559
6565.00,0.7535
6564.00,0.7516
6563.00,0.7502
6562.00,0.7494
6561.00,0.7492
6560.00,0.7495
6559.00,0.7502
6558.00,0.7513
6557.00,0.7529
6556.00,0.7551
6555.00,0.7577
6554.00,0.7609
6553.00,0.7646
6552.00,0.7690
6551.00,0.7739
6550.00,0.7792
6549.00,0.7849
6548.00,0.7908
6547.00,0.7970
6546.00,0.8035
6545.00,0.8104
6544.00,0.8176
6543.00,0.8253
6542.00,0.8335
6541.00,0.8421
6540.00,0.8509
6539.00,0.8597
6538.00,0.8687
6537.00,0.8777
6536.00,0.8868
6535.00,0.8958
6534.00,0.9051
6533.00,0.9147
6532.00,0.9246
6531.00,0.9344
6530.00,0.9441
6529.00,0.9538
6528.00,0.9636
6527.00,0.9733
6526.00,0.9831
6525.00,0.9929
6524.00,1.0028
6523.00,1.0126
6522.00,1.0223
6521.00,1.0318
6520.00,1.0410
6519.00,1.0499
6518.00,1.0586
6517.00,1.0671
6516.00,1.0754
6515.00,1.0834
6514.00,1.0912
6513.00,1.0989
6512.00,1.1064
6511.00,1.1137
6510.00,1.1209
6509.00,1.1281
6508.00,1.1352
6507.00,1.1417
6506.00,1.1479
6505.00,1.1538
6504.00,1.1595
6503.00,1.1649
6502.00,1.1699
6501.00,1.1747
6500.00,1.1795
6499.00,1.1839
6498.00,1.1878
6497.00,1.1914
6496.00,1.1946
6495.00,1.1971
6494.00,1.1988
6493.00,1.2001
6492.00,1.2013
6491.00,1.2025
6490.00,1.2036
6489.00,1.2044
6488.00,1.2052
6487.00,1.2059
6486.00,1.2063
6485.00,1.2062
6484.00,1.2055
6483.00,1.2041
6482.00,1.2023
6481.00,1.2001
6480.00,1.1978
6479.00,1.1953
6478.00,1.1926
6477.00,1.1896
6476.00,1.1861
6475.00,1.1823
6474.00,1.1780
6473.00,1.1731
6472.00,1.1676
6471.00,1.1617
6470.00,1.1558
6469.00,1.1500
6468.00,1.1440
6467.00,1.1377
6466.00,1.1310
6465.00,1.1239
6464.00,1.1164
6463.00,1.1082
6462.00,1.0995
6461.00,1.0907
6460.00,1.0818
6459.00,1.0730
6458.00,1.0641
6457.00,1.0548
6456.00,1.0454
6455.00,1.0358
6454.00,1.0259
6453.00,1.0157
6452.00,1.0052
6451.00,0.9946
6450.00,0.9842
6449.00,0.9739
6448.00,0.9638
6447.00,0.9538
6446.00,0.9437
6445.00,0.9335
6444.00,0.9233
6443.00,0.9132
6442.00,0.9032
6441.00,0.8933
6440.00,0.8833
6439.00,0.8735
6438.00,0.8638
6437.00,0.8545
6436.00,0.8455
6435.00,0.8367
6434.00,0.8283
6433.00,0.8205
6432.00,0.8129
6431.00,0.8057
6430.00,0.7987
6429.00,0.7921
6428.00,0.7859
6427.00,0.7803
6426.00,0.7753
6425.00,0.7710
6424.00,0.7672
6423.00,0.7637
6422.00,0.7606
6421.00,0.7580
6420.00,0.7561
6419.00,0.7548
6418.00,0.7542
6417.00,0.7543
6416.00,0.7550
6415.00,0.7564
6414.00,0.7583
6413.00,0.7607
6412.00,0.7637
6411.00,0.7672
6410.00,0.7711
6409.00,0.7756
6408.00,0.7806
6407.00,0.7859
6406.00,0.7917
6405.00,0.7978
6404.00,0.8043
6403.00,0.8111
6402.00,0.8183
6401.00,0.8258
6400.00,0.8337
6399.00,0.8419
6398.00,0.8505
6397.00,0.8594
6396.00,0.8685
6395.00,0.8778
6394.00,0.8872
6393.00,0.8966
6392.00,0.9061
6391.00,0.9155
6390.00,0.9251
6389.00,0.9347
6388.00,0.9445
6387.00,0.9542
6386.00,0.9641
6385.00,0.9739
6384.00,0.9837
6383.00,0.9932
6382.00,1.0025
6381.00,1.0116
6380.00,1.0206
6379.00,1.0296
6378.00,1.0387
6377.00,1.0477
6376.00,1.0565
6375.00,1.0651
6374.00,1.0736
6373.00,1.0819
6372.00,1.0899
6371.00,1.0975
6370.00,1.1048
6369.00,1.1120
6368.00,1.1190
6367.00,1.1256
6366.00,1.1318
6365.00,1.1378
6364.00,1.1437
6363.00,1.1493
6362.00,1.1548
6361.00,1.1600
6360.00,1.1649
6359.00,1.1691
6358.00,1.1728
6357.00,1.1761
6356.00,1.1791
6355.00,1.1818
6354.00,1.1844
6353.00,1.1870
6352.00,1.1893
6351.00,1.1910
6350.00,1.1922
6349.00,1.1933
6348.00,1.1942
6347.00,1.1947
6346.00,1.1945
6345.00,1.1942
6344.00,1.1937
6343.00,1.1930
6342.00,1.1916
6341.00,1.1897
6340.00,1.1876
6339.00,1.1855
6338.00,1.1836
6337.00,1.1814
6336.00,1.1788
6335.00,1.1758
6334.00,1.1723
6333.00,1.1686
6332.00,1.1646
6331.00,1.1604
6330.00,1.1558
6329.00,1.1511
6328.00,1.1462
6327.00,1.1409
6326.00,1.1350
6325.00,1.1285
6324.00,1.1214
6323.00,1.1137
6322.00,1.1055
6321.00,1.0968
6320.00,1.0876
6319.00,1.0782
6318.00,1.0685
6317.00,1.0586
6316.00,1.0485
6315.00,1.0383
6314.00,1.0280
6313.00,1.0176
6312.00,1.0070
6311.00,0.9960
6310.00,0.9847
6309.00,0.9735
6308.00,0.9624
6307.00,0.9513
6306.00,0.9404
6305.00,0.9295
6304.00,0.9188
6303.00,0.9083
6302.00,0.8979
6301.00,0.8875
6300.00,0.8773
6299.00,0.8673
6298.00,0.8574
6297.00,0.8477
6296.00,0.8383
6295.00,0.8291
6294.00,0.8201
6293.00,0.8113
6292.00,0.8029
6291.00,0.7948
6290.00,0.7872
6289.00,0.7800
6288.00,0.7730
6287.00,0.7664
6286.00,0.7604
6285.00,0.7550
6284.00,0.7501
6283.00,0.7455
6282.00,0.7415
6281.00,0.7381
6280.00,0.7353
6279.00,0.7330
6278.00,0.7312
6277.00,0.7300
6276.00,0.7294
6275.00,0.7294
6274.00,0.7301
6273.00,0.7313
6272.00,0.7331
6271.00,0.7354
6270.00,0.7383
6269.00,0.7417
6268.00,0.7457
6267.00,0.7502
6266.00,0.7551
6265.00,0.7605
6264.00,0.7663
6263.00,0.7725
6262.00,0.7792
6261.00,0.7863
6260.00,0.7937
6259.00,0.8016
6258.00,0.8099
6257.00,0.8186
6256.00,0.8276
6255.00,0.8366
6254.00,0.8460
6253.00,0.8557
6252.00,0.8655
6251.00,0.8753
6250.00,0.8851
6249.00,0.8950
6248.00,0.9051
6247.00,0.9153
6246.00,0.9254
6245.00,0.9355
6244.00,0.9457
6243.00,0.9561
6242.00,0.9665
6241.00,0.9769
6240.00,0.9871
6239.00,0.9972
6238.00,1.0072
6237.00,1.0170
6236.00,1.0267
6235.00,1.0361
6234.00,1.0453
6233.00,1.0544
6232.00,1.0635
6231.00,1.0725
6230.00,1.0813
6229.00,1.0899
6228.00,1.0981
6227.00,1.1059
6226.00,1.1136
6225.00,1.1211
6224.00,1.1282
6223.00,1.1352
6222.00,1.1421
6221.00,1.1489
6220.00,1.1552
6219.00,1.1611
6218.00,1.1666
6217.00,1.1717
6216.00,1.1765
6215.00,1.1808
6214.00,1.1847
6213.00,1.1883
6212.00,1.1915
6211.00,1.1945
6210.00,1.1974
6209.00,1.2002
6208.00,1.2028
6207.00,1.2050
6206.00,1.2068
6205.00,1.2081
6204.00,1.2086
6203.00,1.2082
6202.00,1.2073
6201.00,1.2062
6200.00,1.2052
6199.00,1.2040
6198.00,1.2029
6197.00,1.2018
6196.00,1.2005
6195.00,1.1985
6194.00,1.1958
6193.00,1.1925
6192.00,1.1887
6191.00,1.1844
6190.00,1.1800
6189.00,1.1756
6188.00,1.1712
6187.00,1.1661
6186.00,1.1603
6185.00,1.1540
6184.00,1.1475
6183.00,1.1409
6182.00,1.1340
6181.00,1.1268
6180.00,1.1194
6179.00,1.1118
6178.00,1.1039
6177.00,1.0955
6176.00,1.0866
6175.00,1.0772
6174.00,1.0676
6173.00,1.0578
6172.00,1.0478
6171.00,1.0376
6170.00,1.0272
6169.00,1.0168
6168.00,1.0062
6167.00,0.9956
6166.00,0.9849
6165.00,0.9740
6164.00,0.9629
6163.00,0.9519
6162.00,0.9409
6161.00,0.9298
6160.00,0.9186
6159.00,0.9072
6158.00,0.8958
6157.00,0.8845
6156.00,0.8733
6155.00,0.8622
6154.00,0.8516
6153.00,0.8414
6152.00,0.8315
6151.00,0.8217
6150.00,0.8123
6149.00,0.8031
6148.00,0.7943
6147.00,0.7858
6146.00,0.7778
6145.00,0.7702
6144.00,0.7631
6143.00,0.7566
6142.00,0.7506
6141.00,0.7453
6140.00,0.7405
6139.00,0.7362
6138.00,0.7325
6137.00,0.7294
6136.00,0.7268
6135.00,0.7247
6134.00,0.7231
6133.00,0.7223
6132.00,0.7224
6131.00,0.7230
6130.00,0.7241
6129.00,0.7259
6128.00,0.7284
6127.00,0.7315
6126.00,0.7353
6125.00,0.7397
6124.00,0.7448
6123.00,0.7504
6122.00,0.7564
6121.00,0.7627
6120.00,0.7695
6119.00,0.7766
6118.00,0.7842
6117.00,0.7922
6116.00,0.8007
6115.00,0.8094
6114.00,0.8184
6113.00,0.8276
6112.00,0.8369
6111.00,0.8464
6110.00,0.8560
6109.00,0.8659
6108.00,0.8759
6107.00,0.8860
6106.00,0.8963
6105.00,0.9067
6104.00,0.9171
6103.00,0.9275
6102.00,0.9379
6101.00,0.9484
6100.00,0.9589
6099.00,0.9694
6098.00,0.9797
6097.00,0.9899
6096.00,1.0000
6095.00,1.0097
6094.00,1.0191
6093.00,1.0283
6092.00,1.0375
6091.00,1.0468
6090.00,1.0562
6089.00,1.0657
6088.00,1.0749
6087.00,1.0837
6086.00,1.0918
6085.00,1.0995
6084.00,1.1067
6083.00,1.1137
6082.00,1.1205
6081.00,1.1273
6080.00,1.1340
6079.00,1.1403
6078.00,1.1462
6077.00,1.1516
6076.00,1.1568
6075.00,1.1616
6074.00,1.1661
6073.00,1.1703
6072.00,1.1742
6071.00,1.1778
6070.00,1.1809
6069.00,1.1834
6068.00,1.1854
6067.00,1.1871
6066.00,1.1886
6065.00,1.1899
6064.00,1.1911
6063.00,1.1923
6062.00,1.1933
6061.00,1.1939
6060.00,1.1940
6059.00,1.1935
6058.00,1.1925
6057.00,1.1911
6056.00,1.1893
6055.00,1.1871
6054.00,1.1845
6053.00,1.1817
6052.00,1.1787
6051.00,1.1753
6050.00,1.1716
6049.00,1.1677
6048.00,1.1634
6047.00,1.1588
6046.00,1.1538
6045.00,1.1486
6044.00,1.1432
6043.00,1.1374
6042.00,1.1314
6041.00,1.1250
6040.00,1.1183
6039.00,1.1111
6038.00,1.1037
6037.00,1.0960
6036.00,1.0882
6035.00,1.0799
6034.00,1.0712
6033.00,1.0620
6032.00,1.0526
6031.00,1.0433
6030.00,1.0339
6029.00,1.0244
6028.00,1.0146
6027.00,1.0044
6026.00,0.9940
6025.00,0.9833
6024.00,0.9723
6023.00,0.9611
6022.00,0.9500
6021.00,0.9389
6020.00,0.9278
6019.00,0.9166
6018.00,0.9052
6017.00,0.8941
6016.00,0.8830
6015.00,0.8721
6014.00,0.8612
6013.00,0.8503
6012.00,0.8395
6011.00,0.8289
6010.00,0.8185
6009.00,0.8086
6008.00,0.7990
6007.00,0.7897
6006.00,0.7807
6005.00,0.7721
6004.00,0.7638
6003.00,0.7560
6002.00,0.7486
6001.00,0.7419
6000.00,0.7359
5999.00,0.7303
5998.00,0.7253
5997.00,0.7208
5996.00,0.7169
5995.00,0.7134
5994.00,0.7105
5993.00,0.7083
5992.00,0.7068
5991.00,0.7060
5990.00,0.7059
5989.00,0.7066
5988.00,0.7080
5987.00,0.7100
5986.00,0.7125
5985.00,0.7156
5984.00,0.7193
5983.00,0.7236
5982.00,0.7286
5981.00,0.7343
5980.00,0.7404
5979.00,0.7468
5978.00,0.7538
5977.00,0.7612
5976.00,0.7692
5975.00,0.7775
5974.00,0.7864
5973.00,0.7956
5972.00,0.8052
5971.00,0.8148
5970.00,0.8246
5969.00,0.8346
5968.00,0.8449
5967.00,0.8557
5966.00,0.8668
5965.00,0.8781
5964.00,0.8894
5963.00,0.9008
5962.00,0.9122
5961.00,0.9237
5960.00,0.9351
5959.00,0.9465
5958.00,0.9579
5957.00,0.9693
5956.00,0.9805
5955.00,0.9914
5954.00,1.0021
5953.00,1.0126
5952.00,1.0228
5951.00,1.0327
5950.00,1.0421
5949.00,1.0513
5948.00,1.0604
5947.00,1.0693
5946.00,1.0779
5945.00,1.0861
5944.00,1.0939
5943.00,1.1015
5942.00,1.1090
5941.00,1.1163
5940.00,1.1234
5939.00,1.1302
5938.00,1.1368
5937.00,1.1432
5936.00,1.1495
5935.00,1.1555
5934.00,1.1616
5933.00,1.1676
5932.00,1.1735
5931.00,1.1789
5930.00,1.1837
5929.00,1.1879
5928.00,1.1915
5927.00,1.1947
5926.00,1.1977
5925.00,1.2006
5924.00,1.2034
5923.00,1.2058
5922.00,1.2078
5921.00,1.2094
5920.00,1.2104
5919.00,1.2108
5918.00,1.2107
5917.00,1.2104
5916.00,1.2098
5915.00,1.2091
5914.00,1.2080
5913.00,1.2066
5912.00,1.2050
5911.00,1.2032
5910.00,1.2012
5909.00,1.1988
5908.00,1.1959
5907.00,1.1924
5906.00,1.1883
5905.00,1.1838
5904.00,1.1788
5903.00,1.1735
5902.00,1.1680
5901.00,1.1624
5900.00,1.1563
5899.00,1.1499
5898.00,1.1432
5897.00,1.1361
5896.00,1.1287
5895.00,1.1208
5894.00,1.1126
5893.00,1.1041
5892.00,1.0952
5891.00,1.0859
5890.00,1.0762
5889.00,1.0662
5888.00,1.0559
5887.00,1.0453
5886.00,1.0344
5885.00,1.0234
5884.00,1.0123
5883.00,1.0011
5882.00,0.9897
5881.00,0.9781
5880.00,0.9664
5879.00,0.9545
5878.00,0.9426
5877.00,0.9307
5876.00,0.9187
5875.00,0.9068
5874.00,0.8948
5873.00,0.8829
5872.00,0.8711
5871.00,0.8594
5870.00,0.8479
5869.00,0.8366
5868.00,0.8256
5867.00,0.8150
5866.00,0.8047
5865.00,0.7948
5864.00,0.7852
5863.00,0.7759
5862.00,0.7671
5861.00,0.7587
5860.00,0.7508
5859.00,0.7434
5858.00,0.7366
5857.00,0.7305
5856.00,0.7250
5855.00,0.7199
5854.00,0.7155
5853.00,0.7119
5852.00,0.7090
5851.00,0.7067
5850.00,0.7051
5849.00,0.7043
5848.00,0.7042
5847.00,0.7050
5846.00,0.7064
5845.00,0.7086
5844.00,0.7114
5843.00,0.7149
5842.00,0.7189
5841.00,0.7235
5840.00,0.7287
5839.00,0.7345
5838.00,0.7408
5837.00,0.7477
5836.00,0.7549
5835.00,0.7623
5834.00,0.7701
5833.00,0.7783
5832.00,0.7868
5831.00,0.7956
5830.00,0.8047
5829.00,0.8141
5828.00,0.8237
5827.00,0.8335
5826.00,0.8434
5825.00,0.8536
5824.00,0.8639
5823.00,0.8742
5822.00,0.8846
5821.00,0.8953
5820.00,0.9060
5819.00,0.9169
5818.00,0.9278
5817.00,0.9389
5816.00,0.9499
5815.00,0.9606
5814.00,0.9712
5813.00,0.9819
5812.00,0.9926
5811.00,1.0034
5810.00,1.0142
5809.00,1.0247
5808.00,1.0350
5807.00,1.0451
5806.00,1.0548
5805.00,1.0642
5804.00,1.0734
5803.00,1.0827
5802.00,1.0920
5801.00,1.1010
5800.00,1.1095
5799.00,1.1174
5798.00,1.1251
5797.00,1.1325
5796.00,1.1397
5795.00,1.1467
5794.00,1.1538
5793.00,1.1607
5792.00,1.1672
5791.00,1.1731
5790.00,1.1784
5789.00,1.1832
5788.00,1.1877
5787.00,1.1920
5786.00,1.1961
5785.00,1.2000
5784.00,1.2034
5783.00,1.2063
5782.00,1.2087
5781.00,1.2109
5780.00,1.2129
5779.00,1.2145
5778.00,1.2159
5777.00,1.2169
5776.00,1.2175
5775.00,1.2175
5774.00,1.2171
5773.00,1.2163
5772.00,1.2153
5771.00,1.2139
5770.00,1.2123
5769.00,1.2105
5768.00,1.2085
5767.00,1.2064
5766.00,1.2041
5765.00,1.2014
5764.00,1.1980
5763.00,1.1937
5762.00,1.1884
5761.00,1.1827
5760.00,1.1767
5759.00,1.1708
5758.00,1.1649
5757.00,1.1591
5756.00,1.1529
5755.00,1.1462
5754.00,1.1389
5753.00,1.1312
5752.00,1.1230
5751.00,1.1145
5750.00,1.1057
5749.00,1.0966
5748.00,1.0872
5747.00,1.0774
5746.00,1.0672
5745.00,1.0569
5744.00,1.0465
5743.00,1.0358
5742.00,1.0249
5741.00,1.0137
5740.00,1.0020
5739.00,0.9902
5738.00,0.9782
5737.00,0.9662
5736.00,0.9541
5735.00,0.9419
5734.00,0.9296
5733.00,0.9173
5732.00,0.9048
5731.00,0.8922
5730.00,0.8797
5729.00,0.8674
5728.00,0.8553
5727.00,0.8434
5726.00,0.8316
5725.00,0.8201
5724.00,0.8088
5723.00,0.7976
5722.00,0.7868
5721.00,0.7764
5720.00,0.7664
5719.00,0.7569
5718.00,0.7478
5717.00,0.7392
5716.00,0.7311
5715.00,0.7235
5714.00,0.7165
5713.00,0.7103
5712.00,0.7047
5711.00,0.6999
5710.00,0.6957
5709.00,0.6922
5708.00,0.6893
5707.00,0.6870
5706.00,0.6854
5705.00,0.6846
5704.00,0.6845
5703.00,0.6851
5702.00,0.6865
5701.00,0.6887
5700.00,0.6916
5699.00,0.6951
5698.00,0.6993
5697.00,0.7042
5696.00,0.7096
5695.00,0.7154
5694.00,0.7219
5693.00,0.7290
5692.00,0.7367
5691.00,0.7449
5690.00,0.7536
5689.00,0.7627
5688.00,0.7722
5687.00,0.7819
5686.00,0.7920
5685.00,0.8025
5684.00,0.8132
5683.00,0.8243
5682.00,0.8355
5681.00,0.8468
5680.00,0.8582
5679.00,0.8698
5678.00,0.8816
5677.00,0.8936
5676.00,0.9056
5675.00,0.9176
5674.00,0.9296
5673.00,0.9415
5672.00,0.9534
5671.00,0.9652
5670.00,0.9769
5669.00,0.9886
5668.00,1.0002
5667.00,1.0116
5666.00,1.0226
5665.00,1.0334
5664.00,1.0440
5663.00,1.0544
5662.00,1.0646
5661.00,1.0747
5660.00,1.0846
5659.00,1.0943
5658.00,1.1037
5657.00,1.1127
5656.00,1.1213
5655.00,1.1297
5654.00,1.1377
5653.00,1.1455
5652.00,1.1530
5651.00,1.1601
5650.00,1.1671
5649.00,1.1738
5648.00,1.1801
5647.00,1.1862
5646.00,1.1921
5645.00,1.1976
5644.00,1.2025
5643.00,1.2070
5642.00,1.2111
5641.00,1.2147
5640.00,1.2178
5639.00,1.2204
5638.00,1.2227
5637.00,1.2250
5636.00,1.2269
5635.00,1.2286
5634.00,1.2301
5633.00,1.2314
5632.00,1.2322
5631.00,1.2324
5630.00,1.2319
5629.00,1.2309
5628.00,1.2293
5627.00,1.2274
5626.00,1.2254
5625.00,1.2233
5624.00,1.2210
5623.00,1.2183
5622.00,1.2151
5621.00,1.2112
5620.00,1.2069
5619.00,1.2021
5618.00,1.1971
5617.00,1.1919
5616.00,1.1864
5615.00,1.1803
5614.00,1.1738
5613.00,1.1669
5612.00,1.1595
5611.00,1.1517
5610.00,1.1436
5609.00,1.1352
5608.00,1.1266
5607.00,1.1176
5606.00,1.1084
5605.00,1.0988
5604.00,1.0889
5603.00,1.0787
5602.00,1.0680
5601.00,1.0570
5600.00,1.0456
5599.00,1.0339
5598.00,1.0220
5597.00,1.0098
5596.00,0.9974
5595.00,0.9848
5594.00,0.9720
5593.00,0.9591
5592.00,0.9461
5591.00,0.9331
5590.00,0.9200
5589.00,0.9070
5588.00,0.8940
5587.00,0.8810
5586.00,0.8681
5585.00,0.8553
5584.00,0.8428
5583.00,0.8304
5582.00,0.8184
5581.00,0.8067
5580.00,0.7953
5579.00,0.7842
5578.00,0.7735
5577.00,0.7632
5576.00,0.7533
5575.00,0.7439
5574.00,0.7351
5573.00,0.7269
5572.00,0.7193
5571.00,0.7123
5570.00,0.7061
5569.00,0.7006
5568.00,0.6959
5567.00,0.6919
5566.00,0.6887
5565.00,0.6862
5564.00,0.6845
5563.00,0.6836
5562.00,0.6834
5561.00,0.6841
5560.00,0.6857
5559.00,0.6880
5558.00,0.6912
5557.00,0.6951
5556.00,0.6997
5555.00,0.7049
5554.00,0.7108
5553.00,0.7173
5552.00,0.7243
5551.00,0.7320
5550.00,0.7403
5549.00,0.7493
5548.00,0.7587
5547.00,0.7684
5546.00,0.7786
5545.00,0.7892
5544.00,0.8002
5543.00,0.8115
5542.00,0.8231
5541.00,0.8349
5540.00,0.8470
5539.00,0.8591
5538.00,0.8712
5537.00,0.8834
5536.00,0.8958
5535.00,0.9082
5534.00,0.9207
5533.00,0.9333
5532.00,0.9460
5531.00,0.9588
5530.00,0.9715
5529.00,0.9841
5528.00,0.9966
5527.00,1.0087
5526.00,1.0206
5525.00,1.0323
5524.00,1.0439
5523.00,1.0553
5522.00,1.0666
5521.00,1.0780
5520.00,1.0891
5519.00,1.0999
5518.00,1.1101
5517.00,1.1198
5516.00,1.1291
5515.00,1.1381
5514.00,1.1467
5513.00,1.1551
5512.00,1.1634
5511.00,1.1714
5510.00,1.1792
5509.00,1.1867
5508.00,1.1939
5507.00,1.2007
5506.00,1.2071
5505.00,1.2132
5504.00,1.2190
5503.00,1.2243
5502.00,1.2292
5501.00,1.2335
5500.00,1.2373
5499.00,1.2406
5498.00,1.2436
5497.00,1.2464
5496.00,1.2491
5495.00,1.2513
5494.00,1.2531
5493.00,1.2545
5492.00,1.2556
5491.00,1.2563
5490.00,1.2565
5489.00,1.2563
5488.00,1.2558
5487.00,1.2550
5486.00,1.2537
5485.00,1.2520
5484.00,1.2501
5483.00,1.2479
5482.00,1.2455
5481.00,1.2426
5480.00,1.2392
5479.00,1.2353
5478.00,1.2309
5477.00,1.2258
5476.00,1.2201
5475.00,1.2140
5474.00,1.2076
5473.00,1.2010
5472.00,1.1942
5471.00,1.1870
5470.00,1.1796
5469.00,1.1720
5468.00,1.1640
5467.00,1.1557
5466.00,1.1469
5465.00,1.1378
5464.00,1.1282
5463.00,1.1180
5462.00,1.1073
5461.00,1.0961
5460.00,1.0847
5459.00,1.0730
5458.00,1.0611
5457.00,1.0490
5456.00,1.0366
5455.00,1.0239
5454.00,1.0109
5453.00,0.9978
5452.00,0.9845
5451.00,0.9711
5450.00,0.9577
5449.00,0.9442
5448.00,0.9305
5447.00,0.9165
5446.00,0.9023
5445.00,0.8881
5444.00,0.8742
5443.00,0.8604
5442.00,0.8468
5441.00,0.8334
5440.00,0.8204
5439.00,0.8076
5438.00,0.7951
5437.00,0.7831
5436.00,0.7715
5435.00,0.7603
5434.00,0.7496
5433.00,0.7394
5432.00,0.7298
5431.00,0.7208
5430.00,0.7126
5429.00,0.7050
5428.00,0.6981
5427.00,0.6920
5426.00,0.6869
5425.00,0.6826
5424.00,0.6792
5423.00,0.6767
5422.00,0.6750
5421.00,0.6742
5420.00,0.6743
5419.00,0.6751
5418.00,0.6766
5417.00,0.6790
5416.00,0.6822
5415.00,0.6861
5414.00,0.6908
5413.00,0.6961
5412.00,0.7022
5411.00,0.7090
5410.00,0.7164
5409.00,0.7246
5408.00,0.7334
5407.00,0.7428
5406.00,0.7527
5405.00,0.7632
5404.00,0.7741
5403.00,0.7854
5402.00,0.7970
5401.00,0.8089
5400.00,0.8210
5399.00,0.8333
5398.00,0.8459
5397.00,0.8586
5396.00,0.8714
5395.00,0.8844
5394.00,0.8977
5393.00,0.9112
5392.00,0.9247
5391.00,0.9383
5390.00,0.9516
5389.00,0.9647
5388.00,0.9777
5387.00,0.9907
5386.00,1.0039
5385.00,1.0171
5384.00,1.0302
5383.00,1.0429
5382.00,1.0551
5381.00,1.0669
5380.00,1.0784
5379.00,1.0897
5378.00,1.1009
5377.00,1.1121
5376.00,1.1232
5375.00,1.1342
5374.00,1.1450
5373.00,1.1555
5372.00,1.1655
5371.00,1.1750
5370.00,1.1839
5369.00,1.1922
5368.00,1.1999
5367.00,1.2074
5366.00,1.2147
5365.00,1.2218
5364.00,1.2287
5363.00,1.2353
5362.00,1.2415
5361.00,1.2473
5360.00,1.2526
5359.00,1.2575
5358.00,1.2619
5357.00,1.2658
5356.00,1.2691
5355.00,1.2720
5354.00,1.2748
5353.00,1.2776
5352.00,1.2801
5351.00,1.2824
5350.00,1.2842
5349.00,1.2856
5348.00,1.2864
5347.00,1.2866
5346.00,1.2862
5345.00,1.2854
5344.00,1.2842
5343.00,1.2826
5342.00,1.2807
5341.00,1.2785
5340.00,1.2760
5339.00,1.2732
5338.00,1.2700
5337.00,1.2665
5336.00,1.2626
5335.00,1.2583
5334.00,1.2536
5333.00,1.2485
5332.00,1.2431
5331.00,1.2372
5330.00,1.2307
5329.00,1.2237
5328.00,1.2163
5327.00,1.2085
5326.00,1.2004
5325.00,1.1920
5324.00,1.1832
5323.00,1.1741
5322.00,1.1647
5321.00,1.1549
5320.00,1.1448
5319.00,1.1345
5318.00,1.1237
5317.00,1.1124
5316.00,1.1006
5315.00,1.0883
5314.00,1.0757
5313.00,1.0628
5312.00,1.0496
5311.00,1.0362
5310.00,1.0227
5309.00,1.0092
5308.00,0.9956
5307.00,0.9818
5306.00,0.9677
5305.00,0.9533
5304.00,0.9388
5303.00,0.9242
5302.00,0.9098
5301.00,0.8957
5300.00,0.8818
5299.00,0.8682
5298.00,0.8548
5297.00,0.8416
5296.00,0.8287
5295.00,0.8162
5294.00,0.8042
5293.00,0.7926
5292.00,0.7815
5291.00,0.7708
5290.00,0.7604
5289.00,0.7506
5288.00,0.7414
5287.00,0.7330
5286.00,0.7255
5285.00,0.7189
5284.00,0.7132
5283.00,0.7083
5282.00,0.7042
5281.00,0.7011
5280.00,0.6988
5279.00,0.6974
5278.00,0.6969
5277.00,0.6972
5276.00,0.6984
5275.00,0.7004
5274.00,0.7034
5273.00,0.7072
5272.00,0.7118
5271.00,0.7172
5270.00,0.7235
5269.00,0.7306
5268.00,0.7385
5267.00,0.7470
5266.00,0.7561
5265.00,0.7656
5264.00,0.7757
5263.00,0.7862
5262.00,0.7973
5261.00,0.8089
5260.00,0.8207
5259.00,0.8329
5258.00,0.8455
5257.00,0.8582
5256.00,0.8712
5255.00,0.8844
5254.00,0.8978
5253.00,0.9112
5252.00,0.9245
5251.00,0.9376
5250.00,0.9507
5249.00,0.9640
5248.00,0.9775
5247.00,0.9911
5246.00,1.0047
5245.00,1.0183
5244.00,1.0317
5243.00,1.0449
5242.00,1.0578
5241.00,1.0705
5240.00,1.0829
5239.00,1.0949
5238.00,1.1068
5237.00,1.1186
5236.00,1.1303
5235.00,1.1417
5234.00,1.1527
5233.00,1.1634
5232.00,1.1737
5231.00,1.1838
5230.00,1.1937
5229.00,1.2035
5228.00,1.2128
5227.00,1.2216
5226.00,1.2299
5225.00,1.2378
5224.00,1.2453
5223.00,1.2524
5222.00,1.2591
5221.00,1.2656
5220.00,1.2717
5219.00,1.2774
5218.00,1.2830
5217.00,1.2883
5216.00,1.2932
5215.00,1.2977
5214.00,1.3016
5213.00,1.3050
5212.00,1.3080
5211.00,1.3105
5210.00,1.3125
5209.00,1.3142
5208.00,1.3156
5207.00,1.3165
5206.00,1.3171
5205.00,1.3173
5204.00,1.3172
5203.00,1.3167
5202.00,1.3158
5201.00,1.3146
5200.00,1.3132
5199.00,1.3115
5198.00,1.3095
5197.00,1.3072
5196.00,1.3046
5195.00,1.3012
5194.00,1.2971
5193.00,1.2925
5192.00,1.2874
5191.00,1.2820
5190.00,1.2762
5189.00,1.2701
5188.00,1.2637
5187.00,1.2570
5186.00,1.2497
5185.00,1.2418
5184.00,1.2334
5183.00,1.2244
5182.00,1.2151
5181.00,1.2055
5180.00,1.1956
5179.00,1.1855
5178.00,1.1748
5177.00,1.1637
5176.00,1.1521
5175.00,1.1401
5174.00,1.1278
5173.00,1.1152
5172.00,1.1022
5171.00,1.0888
5170.00,1.0750
5169.00,1.0610
5168.00,1.0466
5167.00,1.0320
5166.00,1.0172
5165.00,1.0022
5164.00,0.9870
5163.00,0.9716
5162.00,0.9562
5161.00,0.9408
5160.00,0.9255
5159.00,0.9103
5158.00,0.8952
5157.00,0.8803
5156.00,0.8656
5155.00,0.8511
5154.00,0.8369
5153.00,0.8230
5152.00,0.8096
5151.00,0.7966
5150.00,0.7842
5149.00,0.7725
5148.00,0.7614
5147.00,0.7510
5146.00,0.7412
5145.00,0.7321
5144.00,0.7237
5143.00,0.7161
5142.00,0.7093
5141.00,0.7034
5140.00,0.6984
5139.00,0.6942
5138.00,0.6910
5137.00,0.6888
5136.00,0.6876
5135.00,0.6874
5134.00,0.6882
5133.00,0.6899
5132.00,0.6925
5131.00,0.6961
5130.00,0.7005
5129.00,0.7058
5128.00,0.7120
5127.00,0.7190
5126.00,0.7268
5125.00,0.7354
5124.00,0.7446
5123.00,0.7545
5122.00,0.7651
5121.00,0.7763
5120.00,0.7880
5119.00,0.8001
5118.00,0.8127
5117.00,0.8256
5116.00,0.8389
5115.00,0.8523
5114.00,0.8661
5113.00,0.8801
5112.00,0.8943
5111.00,0.9087
5110.00,0.9233
5109.00,0.9379
5108.00,0.9527
5107.00,0.9674
5106.00,0.9822
5105.00,0.9968
5104.00,1.0114
5103.00,1.0259
5102.00,1.0402
5101.00,1.0544
5100.00,1.0684
5099.00,1.0821
5098.00,1.0955
5097.00,1.1088
5096.00,1.1218
5095.00,1.1346
5094.00,1.1473
5093.00,1.1597
5092.00,1.1719
5091.00,1.1835
5090.00,1.1948
5089.00,1.2057
5088.00,1.2163
5087.00,1.2265
5086.00,1.2365
5085.00,1.2461
5084.00,1.2552
5083.00,1.2637
5082.00,1.2717
5081.00,1.2795
5080.00,1.2869
5079.00,1.2941
5078.00,1.3008
5077.00,1.3072
5076.00,1.3131
5075.00,1.3187
5074.00,1.3238
5073.00,1.3285
5072.00,1.3326
5071.00,1.3363
5070.00,1.3395
5069.00,1.3425
5068.00,1.3451
5067.00,1.3474
5066.00,1.3494
5065.00,1.3511
5064.00,1.3524
5063.00,1.3531
5062.00,1.3532
5061.00,1.3528
5060.00,1.3520
5059.00,1.3509
5058.00,1.3496
5057.00,1.3480
5056.00,1.3460
5055.00,1.3435
5054.00,1.3405
5053.00,1.3370
5052.00,1.3331
5051.00,1.3289
5050.00,1.3242
5049.00,1.3190
5048.00,1.3132
5047.00,1.3070
5046.00,1.3005
5045.00,1.2938
5044.00,1.2867
5043.00,1.2794
5042.00,1.2715
5041.00,1.2632
5040.00,1.2544
5039.00,1.2453
5038.00,1.2358
5037.00,1.2260
5036.00,1.2157
5035.00,1.2048
5034.00,1.1932
5033.00,1.1812
5032.00,1.1688
5031.00,1.1562
5030.00,1.1433
5029.00,1.1301
5028.00,1.1163
5027.00,1.1021
5026.00,1.0874
5025.00,1.0725
5024.00,1.0575
5023.00,1.0423
5022.00,1.0269
5021.00,1.0113
5020.00,0.9954
5019.00,0.9794
5018.00,0.9634
5017.00,0.9475
5016.00,0.9317
5015.00,0.9161
5014.00,0.9006
5013.00,0.8852
5012.00,0.8700
5011.00,0.8552
5010.00,0.8407
5009.00,0.8268
5008.00,0.8134
5007.00,0.8007
5006.00,0.7885
5005.00,0.7770
5004.00,0.7661
5003.00,0.7560
5002.00,0.7466
5001.00,0.7382
5000.00,0.7306
4999.00,0.7239
4998.00,0.7182
4997.00,0.7133
4996.00,0.7094
4995.00,0.7064
4994.00,0.7045
4993.00,0.7035
4992.00,0.7036
4991.00,0.7046
4990.00,0.7067
4989.00,0.7097
4988.00,0.7137
4987.00,0.7188
4986.00,0.7248
4985.00,0.7316
4984.00,0.7392
4983.00,0.7476
4982.00,0.7568
4981.00,0.7669
4980.00,0.7779
4979.00,0.7896
4978.00,0.8019
4977.00,0.8146
4976.00,0.8276
4975.00,0.8410
4974.00,0.8548
4973.00,0.8689
4972.00,0.8833
4971.00,0.8981
4970.00,0.9131
4969.00,0.9284
4968.00,0.9437
4967.00,0.9591
4966.00,0.9746
4965.00,0.9899
4964.00,1.0052
4963.00,1.0204
4962.00,1.0355
4961.00,1.0504
4960.00,1.0652
4959.00,1.0799
4958.00,1.0944
4957.00,1.1088
4956.00,1.1229
4955.00,1.1368
4954.00,1.1504
4953.00,1.1638
4952.00,1.1768
4951.00,1.1894
4950.00,1.2018
4949.00,1.2139
4948.00,1.2258
4947.00,1.2372
4946.00,1.2481
4945.00,1.2584
4944.00,1.2682
4943.00,1.2775
4942.00,1.2865
4941.00,1.2954
4940.00,1.3041
4939.00,1.3123
4938.00,1.3201
4937.00,1.3273
4936.00,1.3341
4935.00,1.3404
4934.00,1.3464
4933.00,1.3520
4932.00,1.3571
4931.00,1.3617
4930.00,1.3657
4929.00,1.3692
4928.00,1.3723
4927.00,1.3751
4926.00,1.3777
4925.00,1.3800
4924.00,1.3819
4923.00,1.3835
4922.00,1.3846
4921.00,1.3853
4920.00,1.3857
4919.00,1.3856
4918.00,1.3850
4917.00,1.3839
4916.00,1.3824
4915.00,1.3806
4914.00,1.3785
4913.00,1.3761
4912.00,1.3732
4911.00,1.3697
4910.00,1.3655
4909.00,1.3608
4908.00,1.3558
4907.00,1.3505
4906.00,1.3448
4905.00,1.3388
4904.00,1.3323
4903.00,1.3253
4902.00,1.3179
4901.00,1.3100
4900.00,1.3018
4899.00,1.2932
4898.00,1.2842
4897.00,1.2747
4896.00,1.2646
4895.00,1.2541
4894.00,1.2431
4893.00,1.2316
4892.00,1.2198
4891.00,1.2076
4890.00,1.1948
4889.00,1.1817
4888.00,1.1681
4887.00,1.1541
4886.00,1.1398
4885.00,1.1252
4884.00,1.1102
4883.00,1.0948
4882.00,1.0790
4881.00,1.0630
4880.00,1.0468
4879.00,1.0303
4878.00,1.0137
4877.00,0.9969
4876.00,0.9801
4875.00,0.9633
4874.00,0.9465
4873.00,0.9299
4872.00,0.9134
4871.00,0.8971
4870.00,0.8812
4869.00,0.8656
4868.00,0.8505
4867.00,0.8358
4866.00,0.8214
4865.00,0.8075
4864.00,0.7941
4863.00,0.7813
4862.00,0.7693
4861.00,0.7581
4860.00,0.7478
4859.00,0.7383
4858.00,0.7297
4857.00,0.7222
4856.00,0.7157
4855.00,0.7103
4854.00,0.7060
4853.00,0.7028
4852.00,0.7006
4851.00,0.6995
4850.00,0.6996
4849.00,0.7009
4848.00,0.7034
4847.00,0.7069
4846.00,0.7115
4845.00,0.7172
4844.00,0.7237
4843.00,0.7313
4842.00,0.7398
4841.00,0.7492
4840.00,0.7594
4839.00,0.7704
4838.00,0.7820
4837.00,0.7944
4836.00,0.8074
4835.00,0.8209
4834.00,0.8349
4833.00,0.8493
4832.00,0.8642
4831.00,0.8793
4830.00,0.8947
4829.00,0.9104
4828.00,0.9262
4827.00,0.9422
4826.00,0.9584
4825.00,0.9747
4824.00,0.9911
4823.00,1.0075
4822.00,1.0237
4821.00,1.0399
4820.00,1.0559
4819.00,1.0718
4818.00,1.0875
4817.00,1.1031
4816.00,1.1184
4815.00,1.1335
4814.00,1.1483
4813.00,1.1630
4812.00,1.1774
4811.00,1.1915
4810.00,1.2055
4809.00,1.2191
4808.00,1.2322
4807.00,1.2447
4806.00,1.2568
4805.00,1.2683
4804.00,1.2794
4803.00,1.2903
4802.00,1.3008
4801.00,1.3111
4800.00,1.3210
4799.00,1.3305
4798.00,1.3395
4797.00,1.3481
4796.00,1.3563
4795.00,1.3640
4794.00,1.3712
4793.00,1.3779
4792.00,1.3841
4791.00,1.3898
4790.00,1.3950
4789.00,1.3999
4788.00,1.4043
4787.00,1.4085
4786.00,1.4123
4785.00,1.4159
4784.00,1.4191
4783.00,1.4219
4782.00,1.4240
4781.00,1.4253
4780.00,1.4259
4779.00,1.4260
4778.00,1.4260
4777.00,1.4261
4776.00,1.4261
4775.00,1.4259
4774.00,1.4251
4773.00,1.4236
4772.00,1.4214
4771.00,1.4185
4770.00,1.4153
4769.00,1.4117
4768.00,1.4079
4767.00,1.4038
4766.00,1.3996
4765.00,1.3950
4764.00,1.3897
4763.00,1.3838
4762.00,1.3774
4761.00,1.3706
4760.00,1.3635
4759.00,1.3561
4758.00,1.3483
4757.00,1.3398
4756.00,1.3307
4755.00,1.3211
4754.00,1.3111
4753.00,1.3007
4752.00,1.2899
4751.00,1.2786
4750.00,1.2667
4749.00,1.2542
4748.00,1.2414
4747.00,1.2282
4746.00,1.2147
4745.00,1.2007
4744.00,1.1862
4743.00,1.1711
4742.00,1.1555
4741.00,1.1397
4740.00,1.1235
4739.00,1.1070
4738.00,1.0902
4737.00,1.0730
4736.00,1.0555
4735.00,1.0379
4734.00,1.0202
4733.00,1.0025
4732.00,0.9847
4731.00,0.9670
4730.00,0.9492
4729.00,0.9316
4728.00,0.9143
4727.00,0.8972
4726.00,0.8806
4725.00,0.8643
4724.00,0.8485
4723.00,0.8331
4722.00,0.8183
4721.00,0.8043
4720.00,0.7909
4719.00,0.7784
4718.00,0.7669
4717.00,0.7562
4716.00,0.7465
4715.00,0.7378
4714.00,0.7303
4713.00,0.7240
4712.00,0.7188
4711.00,0.7150
4710.00,0.7123
4709.00,0.7109
4708.00,0.7108
4707.00,0.7119
4706.00,0.7142
4705.00,0.7178
4704.00,0.7226
4703.00,0.7285
4702.00,0.7356
4701.00,0.7437
4700.00,0.7529
4699.00,0.7630
4698.00,0.7741
4697.00,0.7858
4696.00,0.7983
4695.00,0.8113
4694.00,0.8249
4693.00,0.8392
4692.00,0.8541
4691.00,0.8694
4690.00,0.8852
4689.00,0.9013
4688.00,0.9176
4687.00,0.9341
4686.00,0.9508
4685.00,0.9678
4684.00,0.9849
4683.00,1.0020
4682.00,1.0192
4681.00,1.0363
4680.00,1.0533
4679.00,1.0703
4678.00,1.0871
4677.00,1.1039
4676.00,1.1204
4675.00,1.1367
4674.00,1.1527
4673.00,1.1684
4672.00,1.1839
4671.00,1.1991
4670.00,1.2140
4669.00,1.2286
4668.00,1.2427
4667.00,1.2564
4666.00,1.2697
4665.00,1.2829
4664.00,1.2957
4663.00,1.3082
4662.00,1.3201
4661.00,1.3314
4660.00,1.3420
4659.00,1.3520
4658.00,1.3616
4657.00,1.3709
4656.00,1.3799
4655.00,1.3884
4654.00,1.3965
4653.00,1.4041
4652.00,1.4113
4651.00,1.4180
4650.00,1.4243
4649.00,1.4303
4648.00,1.4358
4647.00,1.4407
4646.00,1.4451
4645.00,1.4490
4644.00,1.4524
4643.00,1.4554
4642.00,1.4580
4641.00,1.4602
4640.00,1.4621
4639.00,1.4637
4638.00,1.4649
4637.00,1.4657
4636.00,1.4662
4635.00,1.4662
4634.00,1.4657
4633.00,1.4648
4632.00,1.4632
4631.00,1.4611
4630.00,1.4585
4629.00,1.4554
4628.00,1.4520
4627.00,1.4483
4626.00,1.4443
4625.00,1.4399
4624.00,1.4350
4623.00,1.4295
4622.00,1.4234
4621.00,1.4170
4620.00,1.4103
4619.00,1.4031
4618.00,1.3954
4617.00,1.3871
4616.00,1.3784
4615.00,1.3694
4614.00,1.3603
4613.00,1.3512
4612.00,1.3418
4611.00,1.3317
4610.00,1.3211
4609.00,1.3099
4608.00,1.2982
4607.00,1.2861
4606.00,1.2736
4605.00,1.2607
4604.00,1.2473
4603.00,1.2335
4602.00,1.2191
4601.00,1.2043
4600.00,1.1889
4599.00,1.1731
4598.00,1.1569
4597.00,1.1403
4596.00,1.1233
4595.00,1.1058
4594.00,1.0879
4593.00,1.0695
4592.00,1.0510
4591.00,1.0323
4590.00,1.0135
4589.00,0.9948
4588.00,0.9760
4587.00,0.9573
4586.00,0.9388
4585.00,0.9206
4584.00,0.9027
4583.00,0.8852
4582.00,0.8682
4581.00,0.8518
4580.00,0.8360
4579.00,0.8208
4578.00,0.8065
4577.00,0.7931
4576.00,0.7806
4575.00,0.7691
4574.00,0.7588
4573.00,0.7496
4572.00,0.7416
4571.00,0.7348
4570.00,0.7293
4569.00,0.7252
4568.00,0.7224
4567.00,0.7209
4566.00,0.7207
4565.00,0.7220
4564.00,0.7247
4563.00,0.7288
4562.00,0.7341
4561.00,0.7407
4560.00,0.7485
4559.00,0.7574
4558.00,0.7674
4557.00,0.7784
4556.00,0.7904
4555.00,0.8033
4554.00,0.8170
4553.00,0.8314
4552.00,0.8464
4551.00,0.8620
4550.00,0.8780
4549.00,0.8945
4548.00,0.9114
4547.00,0.9286
4546.00,0.9461
4545.00,0.9639
4544.00,0.9818
4543.00,0.9999
4542.00,1.0181
4541.00,1.0364
4540.00,1.0547
4539.00,1.0730
4538.00,1.0911
4537.00,1.1091
4536.00,1.1268
4535.00,1.1442
4534.00,1.1614
4533.00,1.1784
4532.00,1.1954
4531.00,1.2121
4530.00,1.2284
4529.00,1.2444
4528.00,1.2599
4527.00,1.2748
4526.00,1.2893
4525.00,1.3035
4524.00,1.3174
4523.00,1.3309
4522.00,1.3439
4521.00,1.3565
4520.00,1.3685
4519.00,1.3801
4518.00,1.3912
4517.00,1.4018
4516.00,1.4121
4515.00,1.4220
4514.00,1.4317
4513.00,1.4410
4512.00,1.4496
4511.00,1.4573
4510.00,1.4641
4509.00,1.4703
4508.00,1.4762
4507.00,1.4819
4506.00,1.4873
4505.00,1.4923
4504.00,1.4969
4503.00,1.5010
4502.00,1.5045
4501.00,1.5076
4500.00,1.5102
4499.00,1.5122
4498.00,1.5140
4497.00,1.5156
4496.00,1.5170
4495.00,1.5181
4494.00,1.5187
4493.00,1.5187
4492.00,1.5180
4491.00,1.5165
4490.00,1.5143
4489.00,1.5114
4488.00,1.5081
4487.00,1.5048
4486.00,1.5015
4485.00,1.4982
4484.00,1.4945
4483.00,1.4903
4482.00,1.4854
4481.00,1.4800
4480.00,1.4743
4479.00,1.4685
4478.00,1.4623
4477.00,1.4556
4476.00,1.4483
4475.00,1.4405
4474.00,1.4322
4473.00,1.4235
4472.00,1.4145
4471.00,1.4049
4470.00,1.3947
4469.00,1.3840
4468.00,1.3727
4467.00,1.3608
4466.00,1.3484
4465.00,1.3357
4464.00,1.3227
4463.00,1.3093
4462.00,1.2955
4461.00,1.2812
4460.00,1.2664
4459.00,1.2512
4458.00,1.2358
4457.00,1.2202
4456.00,1.2043
4455.00,1.1883
4454.00,1.1722
4453.00,1.1560
4452.00,1.1399
4451.00,1.1240
4450.00,1.1083
4449.00,1.0930
4448.00,1.0781
4447.00,1.0635
4446.00,1.0494
4445.00,1.0359
4444.00,1.0229
4443.00,1.0104
4442.00,0.9984
4441.00,0.9867
4440.00,0.9753
4439.00,0.9639
4438.00,0.9525
4437.00,0.9409
4436.00,0.9292
4435.00,0.9172
4434.00,0.9050
4433.00,0.8927
4432.00,0.8804
4431.00,0.8684
4430.00,0.8569
4429.00,0.8460
4428.00,0.8362
4427.00,0.8274
4426.00,0.8200
4425.00,0.8141
4424.00,0.8098
4423.00,0.8072
4422.00,0.8064
4421.00,0.8073
4420.00,0.8098
4419.00,0.8140
4418.00,0.8199
4417.00,0.8273
4416.00,0.8362
4415.00,0.8465
4414.00,0.8581
4413.00,0.8709
4412.00,0.8847
4411.00,0.8995
4410.00,0.9152
4409.00,0.9317
4408.00,0.9488
4407.00,0.9666
4406.00,0.9848
4405.00,1.0034
4404.00,1.0222
4403.00,1.0409
4402.00,1.0597
4401.00,1.0782
4400.00,1.0964
4399.00,1.1143
4398.00,1.1319
4397.00,1.1492
4396.00,1.1661
4395.00,1.1827
4394.00,1.1991
4393.00,1.2153
4392.00,1.2312
4391.00,1.2469
4390.00,1.2624
4389.00,1.2776
4388.00,1.2925
4387.00,1.3071
4386.00,1.3215
4385.00,1.3358
4384.00,1.3499
4383.00,1.3637
4382.00,1.3773
4381.00,1.3905
4380.00,1.4034
4379.00,1.4160
4378.00,1.4282
4377.00,1.4398
4376.00,1.4509
4375.00,1.4616
4374.00,1.4719
4373.00,1.4819
4372.00,1.4914
4371.00,1.5003
4370.00,1.5084
4369.00,1.5160
4368.00,1.5229
4367.00,1.5292
4366.00,1.5351
4365.00,1.5405
4364.00,1.5456
4363.00,1.5504
4362.00,1.5549
4361.00,1.5589
4360.00,1.5623
4359.00,1.5650
4358.00,1.5673
4357.00,1.5694
4356.00,1.5713
4355.00,1.5731
4354.00,1.5748
4353.00,1.5761
4352.00,1.5770
4351.00,1.5775
4350.00,1.5775
4349.00,1.5769
4348.00,1.5759
4347.00,1.5744
4346.00,1.5728
4345.00,1.5708
4344.00,1.5685
4343.00,1.5657
4342.00,1.5624
4341.00,1.5588
4340.00,1.5550
4339.00,1.5509
4338.00,1.5463
4337.00,1.5412
4336.00,1.5353
4335.00,1.5288
4334.00,1.5220
4333.00,1.5150
4332.00,1.5078
4331.00,1.5002
4330.00,1.4921
4329.00,1.4834
4328.00,1.4739
4327.00,1.4639
4326.00,1.4536
4325.00,1.4431
4324.00,1.4323
4323.00,1.4211
4322.00,1.4092
4321.00,1.3968
4320.00,1.3838
4319.00,1.3703
4318.00,1.3562
4317.00,1.3416
4316.00,1.3263
4315.00,1.3102
4314.00,1.2933
4313.00,1.2758
4312.00,1.2576
4311.00,1.2389
4310.00,1.2197
4309.00,1.1999
4308.00,1.1796
4307.00,1.1590
4306.00,1.1381
4305.00,1.1170
4304.00,1.0957
4303.00,1.0743
4302.00,1.0528
4301.00,1.0314
4300.00,1.0101
4299.00,0.9890
4298.00,0.9683
4297.00,0.9481
4296.00,0.9284
4295.00,0.9093
4294.00,0.8909
4293.00,0.8734
4292.00,0.8567
4291.00,0.8409
4290.00,0.8262
4289.00,0.8127
4288.00,0.8003
4287.00,0.7892
4286.00,0.7796
4285.00,0.7714
4284.00,0.7647
4283.00,0.7596
4282.00,0.7560
4281.00,0.7541
4280.00,0.7538
4279.00,0.7552
4278.00,0.7581
4277.00,0.7626
4276.00,0.7686
4275.00,0.7761
4274.00,0.7849
4273.00,0.7951
4272.00,0.8065
4271.00,0.8191
4270.00,0.8328
4269.00,0.8474
4268.00,0.8629
4267.00,0.8792
4266.00,0.8962
4265.00,0.9138
4264.00,0.9319
4263.00,0.9506
4262.00,0.9696
4261.00,0.9889
4260.00,1.0085
4259.00,1.0283
4258.00,1.0483
4257.00,1.0684
4256.00,1.0885
4255.00,1.1086
4254.00,1.1286
4253.00,1.1486
4252.00,1.1684
4251.00,1.1881
4250.00,1.2076
4249.00,1.2268
4248.00,1.2457
4247.00,1.2642
4246.00,1.2824
4245.00,1.3002
4244.00,1.3178
4243.00,1.3349
4242.00,1.3517
4241.00,1.3680
4240.00,1.3837
4239.00,1.3989
4238.00,1.4134
4237.00,1.4274
4236.00,1.4408
4235.00,1.4536
4234.00,1.4661
4233.00,1.4781
4232.00,1.4898
4231.00,1.5008
4230.00,1.5112
4229.00,1.5209
4228.00,1.5301
4227.00,1.5388
4226.00,1.5470
4225.00,1.5548
4224.00,1.5623
4223.00,1.5693
4222.00,1.5759
4221.00,1.5820
4220.00,1.5875
4219.00,1.5926
4218.00,1.5972
4217.00,1.6014
4216.00,1.6050
4215.00,1.6082
4214.00,1.6109
4213.00,1.6132
4212.00,1.6150
4211.00,1.6165
4210.00,1.6176
4209.00,1.6184
4208.00,1.6189
4207.00,1.6189
4206.00,1.6186
4205.00,1.6178
4204.00,1.6166
4203.00,1.6149
4202.00,1.6125
4201.00,1.6094
4200.00,1.6059
4199.00,1.6019
4198.00,1.5976
4197.00,1.5932
4196.00,1.5886
4195.00,1.5837
4194.00,1.5782
4193.00,1.5722
4192.00,1.5655
4191.00,1.5583
4190.00,1.5505
4189.00,1.5422
4188.00,1.5333
4187.00,1.5239
4186.00,1.5140
4185.00,1.5037
4184.00,1.4928
4183.00,1.4814
4182.00,1.4694
4181.00,1.4569
4180.00,1.4440
4179.00,1.4306
4178.00,1.4166
4177.00,1.4018
4176.00,1.3863
4175.00,1.3702
4174.00,1.3536
4173.00,1.3366
4172.00,1.3191
4171.00,1.3009
4170.00,1.2821
4169.00,1.2625
4168.00,1.2424
4167.00,1.2218
4166.00,1.2009
4165.00,1.1796
4164.00,1.1579
4163.00,1.1358
4162.00,1.1134
4161.00,1.0910
4160.00,1.0685
4159.00,1.0462
4158.00,1.0240
4157.00,1.0021
4156.00,0.9805
4155.00,0.9592
4154.00,0.9385
4153.00,0.9185
4152.00,0.8992
4151.00,0.8809
4150.00,0.8635
4149.00,0.8472
4148.00,0.8322
4147.00,0.8184
4146.00,0.8060
4145.00,0.7951
4144.00,0.7858
4143.00,0.7781
4142.00,0.7721
4141.00,0.7678
4140.00,0.7653
4139.00,0.7646
4138.00,0.7657
4137.00,0.7687
4136.00,0.7734
4135.00,0.7799
4134.00,0.7879
4133.00,0.7975
4132.00,0.8085
4131.00,0.8209
4130.00,0.8346
4129.00,0.8493
4128.00,0.8652
4127.00,0.8819
4126.00,0.8995
4125.00,0.9180
4124.00,0.9371
4123.00,0.9568
4122.00,0.9770
4121.00,0.9975
4120.00,1.0182
4119.00,1.0392
4118.00,1.0604
4117.00,1.0818
4116.00,1.1033
4115.00,1.1249
4114.00,1.1464
4113.00,1.1678
4112.00,1.1891
4111.00,1.2102
4110.00,1.2311
4109.00,1.2518
4108.00,1.2721
4107.00,1.2920
4106.00,1.3115
4105.00,1.3304
4104.00,1.3489
4103.00,1.3669
4102.00,1.3845
4101.00,1.4018
4100.00,1.4186
4099.00,1.4349
4098.00,1.4506
4097.00,1.4657
4096.00,1.4802
4095.00,1.4942
4094.00,1.5075
4093.00,1.5204
4092.00,1.5326
4091.00,1.5443
4090.00,1.5554
4089.00,1.5660
4088.00,1.5762
4087.00,1.5861
4086.00,1.5957
4085.00,1.6047
4084.00,1.6131
4083.00,1.6206
4082.00,1.6276
4081.00,1.6340
4080.00,1.6400
4079.00,1.6453
4078.00,1.6502
4077.00,1.6546
4076.00,1.6587
4075.00,1.6624
4074.00,1.6657
4073.00,1.6684
4072.00,1.6707
4071.00,1.6727
4070.00,1.6747
4069.00,1.6765
4068.00,1.6778
4067.00,1.6783
4066.00,1.6782
4065.00,1.6776
4064.00,1.6769
4063.00,1.6760
4062.00,1.6748
4061.00,1.6729
4060.00,1.6702
4059.00,1.6670
4058.00,1.6635
4057.00,1.6597
4056.00,1.6554
4055.00,1.6506
4054.00,1.6452
4053.00,1.6395
4052.00,1.6334
4051.00,1.6269
4050.00,1.6200
4049.00,1.6125
4048.00,1.6045
4047.00,1.5960
4046.00,1.5869
4045.00,1.5773
4044.00,1.5673
4043.00,1.5568
4042.00,1.5459
4041.00,1.5345
4040.00,1.5226
4039.00,1.5104
4038.00,1.4978
4037.00,1.4849
4036.00,1.4714
4035.00,1.4573
4034.00,1.4426
4033.00,1.4276
4032.00,1.4123
4031.00,1.3966
4030.00,1.3804
4029.00,1.3635
4028.00,1.3459
4027.00,1.3276
4026.00,1.3085
4025.00,1.2886
4024.00,1.2680
4023.00,1.2466
4022.00,1.2246
4021.00,1.2020
4020.00,1.1790
4019.00,1.1555
4018.00,1.1318
4017.00,1.1080
4016.00,1.0842
4015.00,1.0604
4014.00,1.0369
4013.00,1.0136
4012.00,0.9910
4011.00,0.9689
4010.00,0.9477
4009.00,0.9273
4008.00,0.9078
4007.00,0.8894
4006.00,0.8722
4005.00,0.8565
4004.00,0.8423
4003.00,0.8299
4002.00,0.8191
4001.00,0.8102
4000.00,0.8032
3999.00,0.7981
3998.00,0.7952
3997.00,0.7943
3996.00,0.7954
3995.00,0.7986
3994.00,0.8038
3993.00,0.8108
3992.00,0.8198
3991.00,0.8307
3990.00,0.8433
3989.00,0.8574
3988.00,0.8728
3987.00,0.8896
3986.00,0.9075
3985.00,0.9265
3984.00,0.9463
3983.00,0.9669
3982.00,0.9879
3981.00,1.0092
3980.00,1.0309
3979.00,1.0526
3978.00,1.0745
3977.00,1.0963
3976.00,1.1181
3975.00,1.1397
3974.00,1.1611
3973.00,1.1822
3972.00,1.2030
3971.00,1.2235
3970.00,1.2437
3969.00,1.2637
3968.00,1.2836
3967.00,1.3033
3966.00,1.3229
3965.00,1.3421
3964.00,1.3611
3963.00,1.3799
3962.00,1.3987
3961.00,1.4173
3960.00,1.4356
3959.00,1.4533
3958.00,1.4702
3957.00,1.4865
3956.00,1.5022
3955.00,1.5174
3954.00,1.5322
3953.00,1.5465
3952.00,1.5602
3951.00,1.5732
3950.00,1.5855
3949.00,1.5973
3948.00,1.6087
3947.00,1.6200
3946.00,1.6308
3945.00,1.6410
3944.00,1.6505
3943.00,1.6595
3942.00,1.6683
3941.00,1.6769
3940.00,1.6852
3939.00,1.6928
3938.00,1.6993
3937.00,1.7046
3936.00,1.7090
3935.00,1.7128
3934.00,1.7164
3933.00,1.7203
3932.00,1.7246
3931.00,1.7287
3930.00,1.7322
3929.00,1.7348
3928.00,1.7366
3927.00,1.7380
3926.00,1.7390
3925.00,1.7396
3924.00,1.7395
3923.00,1.7389
3922.00,1.7380
3921.00,1.7366
3920.00,1.7346
3919.00,1.7323
3918.00,1.7298
3917.00,1.7274
3916.00,1.7251
3915.00,1.7223
3914.00,1.7189
3913.00,1.7148
3912.00,1.7102
3911.00,1.7053
3910.00,1.6996
3909.00,1.6929
3908.00,1.6850
3907.00,1.6762
3906.00,1.6667
3905.00,1.6568
3904.00,1.6467
3903.00,1.6364
3902.00,1.6260
3901.00,1.6156
3900.00,1.6051
3899.00,1.5944
3898.00,1.5831
3897.00,1.5712
3896.00,1.5586
3895.00,1.5452
3894.00,1.5309
3893.00,1.5158
3892.00,1.4994
3891.00,1.4814
3890.00,1.4622
3889.00,1.4428
3888.00,1.4238
3887.00,1.4045
3886.00,1.3837
3885.00,1.3613
3884.00,1.3384
3883.00,1.3157
3882.00,1.2930
3881.00,1.2695
3880.00,1.2448
3879.00,1.2194
3878.00,1.1942
3877.00,1.1697
3876.00,1.1451
3875.00,1.1197
3874.00,1.0933
3873.00,1.0668
3872.00,1.0411
3871.00,1.0157
3870.00,0.9898
3869.00,0.9635
3868.00,0.9391
3867.00,0.9175
3866.00,0.8981
3865.00,0.8799
3864.00,0.8624
3863.00,0.8459
3862.00,0.8311
3861.00,0.8182
3860.00,0.8072
3859.00,0.7978
3858.00,0.7896
3857.00,0.7828
3856.00,0.7783
3855.00,0.7775
3854.00,0.7806
3853.00,0.7856
3852.00,0.7919
3851.00,0.8004
3850.00,0.8114
3849.00,0.8248
3848.00,0.8400
3847.00,0.8567
3846.00,0.8745
3845.00,0.8934
3844.00,0.9132
3843.00,0.9335
3842.00,0.9539
3841.00,0.9745
3840.00,0.9958
3839.00,1.0184
3838.00,1.0430
3837.00,1.0693
3836.00,1.0964
3835.00,1.1228
3834.00,1.1484
3833.00,1.1737
3832.00,1.1989
3831.00,1.2243
3830.00,1.2494
3829.00,1.2742
3828.00,1.2986
3827.00,1.3224
3826.00,1.3451
3825.00,1.3662
3824.00,1.3858
3823.00,1.4054
3822.00,1.4261
3821.00,1.4476
3820.00,1.4689
3819.00,1.4889
3818.00,1.5077
3817.00,1.5261
3816.00,1.5443
3815.00,1.5626
3814.00,1.5805
3813.00,1.5976
3812.00,1.6132
3811.00,1.6270
3810.00,1.6395
3809.00,1.6516
3808.00,1.6638
3807.00,1.6757
3806.00,1.6867
3805.00,1.6965
3804.00,1.7054
3803.00,1.7144
3802.00,1.7238
3801.00,1.7332
3800.00,1.7419
3799.00,1.7500
3798.00,1.7576
3797.00,1.7649
3796.00,1.7715
3795.00,1.7775
3794.00,1.7830
3793.00,1.7880
3792.00,1.7923
3791.00,1.7960
3790.00,1.7993
3789.00,1.8021
3788.00,1.8044
3787.00,1.8063
3786.00,1.8079
3785.00,1.8090
3784.00,1.8091
3783.00,1.8084
3782.00,1.8074
3781.00,1.8065
3780.00,1.8055
3779.00,1.8040
3778.00,1.8019
3777.00,1.7992
3776.00,1.7961
3775.00,1.7925
3774.00,1.7885
3773.00,1.7841
3772.00,1.7794
3771.00,1.7741
3770.00,1.7677
3769.00,1.7602
3768.00,1.7520
3767.00,1.7439
3766.00,1.7358
3765.00,1.7274
3764.00,1.7186
3763.00,1.7094
3762.00,1.7000
3761.00,1.6898
3760.00,1.6784
3759.00,1.6661
3758.00,1.6534
3757.00,1.6402
3756.00,1.6262
3755.00,1.6112
3754.00,1.5956
3753.00,1.5793
3752.00,1.5620
3751.00,1.5431
3750.00,1.5226
3749.00,1.5012
3748.00,1.4804
3747.00,1.4607
3746.00,1.4416
3745.00,1.4210
3744.00,1.3981
3743.00,1.3751
3742.00,1.3540
3741.00,1.3339
3740.00,1.3130
3739.00,1.2905
3738.00,1.2662
3737.00,1.2398
3736.00,1.2115
3735.00,1.1820
3734.00,1.1525
3733.00,1.1234
3732.00,1.0946
3731.00,1.0662
3730.00,1.0389
3729.00,1.0132
3728.00,0.9888
3727.00,0.9653
3726.00,0.9428
3725.00,0.9217
3724.00,0.9023
3723.00,0.8847
3722.00,0.8687
3721.00,0.8528
3720.00,0.8365
3719.00,0.8213
3718.00,0.8110
3717.00,0.8088
3716.00,0.8147
3715.00,0.8256
3714.00,0.8380
3713.00,0.8509
3712.00,0.8647
3711.00,0.8800
3710.00,0.8963
3709.00,0.9142
3708.00,0.9338
3707.00,0.9551
3706.00,0.9774
3705.00,1.0005
3704.00,1.0245
3703.00,1.0499
3702.00,1.0768
3701.00,1.1047
3700.00,1.1331
3699.00,1.1615
3698.00,1.1897
3697.00,1.2176
3696.00,1.2453
3695.00,1.2723
3694.00,1.2983
3693.00,1.3235
3692.00,1.3483
3691.00,1.3732
3690.00,1.3987
3689.00,1.4252
3688.00,1.4528
3687.00,1.4806
3686.00,1.5072
3685.00,1.5318
3684.00,1.5545
3683.00,1.5757
3682.00,1.5957
3681.00,1.6146
3680.00,1.6320
3679.00,1.6479
3678.00,1.6627
3677.00,1.6780
3676.00,1.6942
3675.00,1.7103
3674.00,1.7253
3673.00,1.7392
3672.00,1.7523
3671.00,1.7655
3670.00,1.7790
3669.00,1.7922
3668.00,1.8049
3667.00,1.8168
3666.00,1.8281
3665.00,1.8388
3664.00,1.8488
3663.00,1.8580
3662.00,1.8661
3661.00,1.8729
3660.00,1.8785
3659.00,1.8832
3658.00,1.8879
3657.00,1.8930
3656.00,1.8981
3655.00,1.9023
3654.00,1.9055
3653.00,1.9078
3652.00,1.9100
3651.00,1.9128
3650.00,1.9160
3649.00,1.9188
3648.00,1.9209
3647.00,1.9231
3646.00,1.9260
3645.00,1.9296
3644.00,1.9333
3643.00,1.9362
3642.00,1.9383
3641.00,1.9397
3640.00,1.9406
3639.00,1.9407
3638.00,1.9400
3637.00,1.9386
3636.00,1.9369
3635.00,1.9348
3634.00,1.9316
3633.00,1.9270
3632.00,1.9214
3631.00,1.9155
3630.00,1.9102
3629.00,1.9052
3628.00,1.9000
3627.00,1.8951
3626.00,1.8906
3625.00,1.8860
3624.00,1.8805
3623.00,1.8739
3622.00,1.8662
3621.00,1.8578
3620.00,1.8485
3619.00,1.8373
3618.00,1.8239
3617.00,1.8095
3616.00,1.7968
3615.00,1.7876
3614.00,1.7811
3613.00,1.7749
3612.00,1.7666
3611.00,1.7562
3610.00,1.7446
3609.00,1.7326
3608.00,1.7200
3607.00,1.7065
3606.00,1.6926
3605.00,1.6782
3604.00,1.6634
3603.00,1.6479
3602.00,1.6318
3601.00,1.6148
3600.00,1.5968
3599.00,1.5777
3598.00,1.5579
3597.00,1.5377
3596.00,1.5170
3595.00,1.4958
3594.00,1.4741
3593.00,1.4521
3592.00,1.4299
3591.00,1.4079
3590.00,1.3859
3589.00,1.3642
3588.00,1.3424
3587.00,1.3204
3586.00,1.2990
3585.00,1.2788
3584.00,1.2601
3583.00,1.2428
3582.00,1.2268
3581.00,1.2118
3580.00,1.1981
3579.00,1.1856
3578.00,1.1744
3577.00,1.1646
3576.00,1.1563
3575.00,1.1495
3574.00,1.1444
3573.00,1.1409
3572.00,1.1390
3571.00,1.1386
3570.00,1.1400
3569.00,1.1438
3568.00,1.1502
3567.00,1.1586
3566.00,1.1686
3565.00,1.1797
3564.00,1.1919
3563.00,1.2052
3562.00,1.2197
3561.00,1.2352
3560.00,1.2518
3559.00,1.2692
3558.00,1.2871
3557.00,1.3054
3556.00,1.3239
3555.00,1.3427
3554.00,1.3620
3553.00,1.3817
3552.00,1.4015
3551.00,1.4210
3550.00,1.4400
3549.00,1.4586
3548.00,1.4773
3547.00,1.4962
3546.00,1.5154
3545.00,1.5347
3544.00,1.5535
3543.00,1.5717
3542.00,1.5892
3541.00,1.6062
3540.00,1.6229
3539.00,1.6394
3538.00,1.6556
3537.00,1.6713
3536.00,1.6864
3535.00,1.7009
3534.00,1.7151
3533.00,1.7292
3532.00,1.7431
3531.00,1.7567
3530.00,1.7698
3529.00,1.7825
3528.00,1.7947
3527.00,1.8064
3526.00,1.8176
3525.00,1.8286
3524.00,1.8395
3523.00,1.8502
3522.00,1.8605
3521.00,1.8703
3520.00,1.8794
3519.00,1.8879
3518.00,1.8961
3517.00,1.9041
3516.00,1.9121
3515.00,1.9197
3514.00,1.9269
3513.00,1.9335
3512.00,1.9397
3511.00,1.9452
3510.00,1.9504
3509.00,1.9553
3508.00,1.9599
3507.00,1.9642
3506.00,1.9681
3505.00,1.9719
3504.00,1.9753
3503.00,1.9781
3502.00,1.9803
3501.00,1.9821
3500.00,1.9837
3499.00,1.9848
3498.00,1.9854
3497.00,1.9854
3496.00,1.9850
3495.00,1.9839
3494.00,1.9824
3493.00,1.9807
3492.00,1.9790
3491.00,1.9774
3490.00,1.9758
3489.00,1.9738
3488.00,1.9710
3487.00,1.9672
3486.00,1.9626
3485.00,1.9577
3484.00,1.9524
3483.00,1.9468
3482.00,1.9407
3481.00,1.9343
3480.00,1.9276
3479.00,1.9205
3478.00,1.9130
3477.00,1.9050
3476.00,1.8965
3475.00,1.8876
3474.00,1.8782
3473.00,1.8681
3472.00,1.8572
3471.00,1.8456
3470.00,1.8334
3469.00,1.8210
3468.00,1.8083
3467.00,1.7950
3466.00,1.7810
3465.00,1.7661
3464.00,1.7505
3463.00,1.7341
3462.00,1.7170
3461.00,1.6991
3460.00,1.6805
3459.00,1.6612
3458.00,1.6413
3457.00,1.6208
3456.00,1.5996
3455.00,1.5777
3454.00,1.5552
3453.00,1.5320
3452.00,1.5081
3451.00,1.4835
3450.00,1.4584
3449.00,1.4329
3448.00,1.4070
3447.00,1.3809
3446.00,1.3547
3445.00,1.3288
3444.00,1.3033
3443.00,1.2781
3442.00,1.2533
3441.00,1.2290
3440.00,1.2055
3439.00,1.1830
3438.00,1.1618
3437.00,1.1419
3436.00,1.1235
3435.00,1.1069
3434.00,1.0922
3433.00,1.0794
3432.00,1.0687
3431.00,1.0601
3430.00,1.0537
3429.00,1.0497
3428.00,1.0482
3427.00,1.0491
3426.00,1.0523
3425.00,1.0578
3424.00,1.0656
3423.00,1.0756
3422.00,1.0877
3421.00,1.1018
3420.00,1.1176
3419.00,1.1350
3418.00,1.1538
3417.00,1.1738
3416.00,1.1950
3415.00,1.2172
3414.00,1.2401
3413.00,1.2636
3412.00,1.2875
3411.00,1.3119
3410.00,1.3367
3409.00,1.3617
3408.00,1.3868
3407.00,1.4118
3406.00,1.4364
3405.00,1.4607
3404.00,1.4846
3403.00,1.5081
3402.00,1.5312
3401.00,1.5541
3400.00,1.5765
3399.00,1.5984
3398.00,1.6199
3397.00,1.6408
3396.00,1.6612
3395.00,1.6810
3394.00,1.7002
3393.00,1.7190
3392.00,1.7372
3391.00,1.7548
3390.00,1.7718
3389.00,1.7881
3388.00,1.8040
3387.00,1.8194
3386.00,1.8343
3385.00,1.8486
3384.00,1.8622
3383.00,1.8751
3382.00,1.8874
3381.00,1.8994
3380.00,1.9111
3379.00,1.9221
3378.00,1.9324
3377.00,1.9418
3376.00,1.9507
3375.00,1.9595
3374.00,1.9680
3373.00,1.9760
3372.00,1.9836
3371.00,1.9910
3370.00,1.9983
3369.00,2.0049
3368.00,2.0107
3367.00,2.0156
3366.00,2.0202
3365.00,2.0244
3364.00,2.0281
3363.00,2.0309
3362.00,2.0332
3361.00,2.0351
3360.00,2.0371
3359.00,2.0390
3358.00,2.0407
3357.00,2.0417
3356.00,2.0418
3355.00,2.0411
3354.00,2.0403
3353.00,2.0397
3352.00,2.0390
3351.00,2.0380
3350.00,2.0363
3349.00,2.0339
3348.00,2.0308
3347.00,2.0270
3346.00,2.0228
3345.00,2.0186
3344.00,2.0144
3343.00,2.0097
3342.00,2.0040
3341.00,1.9974
3340.00,1.9904
3339.00,1.9829
3338.00,1.9749
3337.00,1.9664
3336.00,1.9577
3335.00,1.9488
3334.00,1.9399
3333.00,1.9305
3332.00,1.9201
3331.00,1.9088
3330.00,1.8969
3329.00,1.8848
3328.00,1.8724
3327.00,1.8597
3326.00,1.8463
3325.00,1.8322
3324.00,1.8172
3323.00,1.8014
3322.00,1.7848
3321.00,1.7675
3320.00,1.7494
3319.00,1.7305
3318.00,1.7109
3317.00,1.6907
3316.00,1.6696
3315.00,1.6477
3314.00,1.6249
3313.00,1.6014
3312.00,1.5772
3311.00,1.5523
3310.00,1.5268
3309.00,1.5006
3308.00,1.4739
3307.00,1.4470
3306.00,1.4201
3305.00,1.3931
3304.00,1.3662
3303.00,1.3395
3302.00,1.3133
3301.00,1.2877
3300.00,1.2630
3299.00,1.2392
3298.00,1.2165
3297.00,1.1950
3296.00,1.1749
3295.00,1.1564
3294.00,1.1398
3293.00,1.1252
3292.00,1.1127
3291.00,1.1023
3290.00,1.0942
3289.00,1.0883
3288.00,1.0849
3287.00,1.0840
3286.00,1.0855
3285.00,1.0894
3284.00,1.0957
3283.00,1.1043
3282.00,1.1150
3281.00,1.1278
3280.00,1.1425
3279.00,1.1591
3278.00,1.1772
3277.00,1.1969
3276.00,1.2179
3275.00,1.2399
3274.00,1.2629
3273.00,1.2867
3272.00,1.3111
3271.00,1.3360
3270.00,1.3613
3269.00,1.3870
3268.00,1.4129
3267.00,1.4390
3266.00,1.4650
3265.00,1.4910
3264.00,1.5169
3263.00,1.5425
3262.00,1.5679
3261.00,1.5931
3260.00,1.6180
3259.00,1.6423
3258.00,1.6658
3257.00,1.6885
3256.00,1.7103
3255.00,1.7315
3254.00,1.7523
3253.00,1.7725
3252.00,1.7920
3251.00,1.8105
3250.00,1.8282
3249.00,1.8456
3248.00,1.8629
3247.00,1.8798
3246.00,1.8957
3245.00,1.9106
3244.00,1.9248
3243.00,1.9383
3242.00,1.9513
3241.00,1.9638
3240.00,1.9757
3239.00,1.9870
3238.00,1.9979
3237.00,2.0085
3236.00,2.0189
3235.00,2.0286
3234.00,2.0375
3233.00,2.0456
3232.00,2.0531
3231.00,2.0601
3230.00,2.0669
3229.00,2.0735
3228.00,2.0797
3227.00,2.0852
3226.00,2.0895
3225.00,2.0929
3224.00,2.0959
3223.00,2.0991
3222.00,2.1024
3221.00,2.1056
3220.00,2.1085
3219.00,2.1109
3218.00,2.1128
3217.00,2.1142
3216.00,2.1151
3215.00,2.1156
3214.00,2.1158
3213.00,2.1156
3212.00,2.1146
3211.00,2.1129
3210.00,2.1108
3209.00,2.1085
3208.00,2.1060
3207.00,2.1033
3206.00,2.1005
3205.00,2.0975
3204.00,2.0940
3203.00,2.0902
3202.00,2.0860
3201.00,2.0816
3200.00,2.0766
3199.00,2.0707
3198.00,2.0641
3197.00,2.0566
3196.00,2.0482
3195.00,2.0391
3194.00,2.0294
3193.00,2.0194
3192.00,2.0087
3191.00,1.9971
3190.00,1.9848
3189.00,1.9718
3188.00,1.9582
3187.00,1.9437
3186.00,1.9284
3185.00,1.9125
3184.00,1.8962
3183.00,1.8797
3182.00,1.8626
3181.00,1.8451
3180.00,1.8267
3179.00,1.8072
3178.00,1.7868
3177.00,1.7656
3176.00,1.7441
3175.00,1.7225
3174.00,1.7016
3173.00,1.6818
3172.00,1.6639
3171.00,1.6490
3170.00,1.6383
3169.00,1.6329
3168.00,1.6336
3167.00,1.6397
3166.00,1.6492
3165.00,1.6584
3164.00,1.6629
3163.00,1.6585
3162.00,1.6429
3161.00,1.6166
3160.00,1.5822
3159.00,1.5428
3158.00,1.5016
3157.00,1.4606
3156.00,1.4214
3155.00,1.3849
3154.00,1.3515
3153.00,1.3214
3152.00,1.2946
3151.00,1.2712
3150.00,1.2512
3149.00,1.2346
3148.00,1.2212
3147.00,1.2110
3146.00,1.2038
3145.00,1.1997
3144.00,1.1986
3143.00,1.2005
3142.00,1.2052
3141.00,1.2126
3140.00,1.2227
3139.00,1.2353
3138.00,1.2502
3137.00,1.2670
3136.00,1.2857
3135.00,1.3058
3134.00,1.3274
3133.00,1.3500
3132.00,1.3737
3131.00,1.3981
3130.00,1.4231
3129.00,1.4486
3128.00,1.4746
3127.00,1.5008
3126.00,1.5273
3125.00,1.5540
3124.00,1.5806
3123.00,1.6068
3122.00,1.6327
3121.00,1.6582
3120.00,1.6834
3119.00,1.7083
3118.00,1.7327
3117.00,1.7566
3116.00,1.7798
3115.00,1.8022
3114.00,1.8239
3113.00,1.8449
3112.00,1.8651
3111.00,1.8848
3110.00,1.9036
3109.00,1.9216
3108.00,1.9386
3107.00,1.9550
3106.00,1.9710
3105.00,1.9867
3104.00,2.0017
3103.00,2.0159
3102.00,2.0293
3101.00,2.0423
3100.00,2.0552
3099.00,2.0676
3098.00,2.0793
3097.00,2.0903
3096.00,2.1007
3095.00,2.1105
3094.00,2.1196
3093.00,2.1281
3092.00,2.1363
3091.00,2.1443
3090.00,2.1522
3089.00,2.1597
3088.00,2.1666
3087.00,2.1728
3086.00,2.1786
3085.00,2.1838
3084.00,2.1882
3083.00,2.1918
3082.00,2.1955
3081.00,2.1994
3080.00,2.2029
3079.00,2.2054
3078.00,2.2070
3077.00,2.2084
3076.00,2.2100
3075.00,2.2113
3074.00,2.2119
3073.00,2.2115
3072.00,2.2103
3071.00,2.2090
3070.00,2.2081
3069.00,2.2073
3068.00,2.2059
3067.00,2.2033
3066.00,2.1990
3065.00,2.1936
3064.00,2.1879
3063.00,2.1827
3062.00,2.1784
3061.00,2.1745
3060.00,2.1700
3059.00,2.1644
3058.00,2.1576
3057.00,2.1501
3056.00,2.1421
3055.00,2.1340
3054.00,2.1259
3053.00,2.1176
3052.00,2.1088
3051.00,2.0991
3050.00,2.0884
3049.00,2.0766
3048.00,2.0640
3047.00,2.0508
3046.00,2.0376
3045.00,2.0243
3044.00,2.0105
3043.00,1.9960
3042.00,1.9807
3041.00,1.9648
3040.00,1.9484
3039.00,1.9313
3038.00,1.9138
3037.00,1.8961
3036.00,1.8783
3035.00,1.8603
3034.00,1.8420
3033.00,1.8234
3032.00,1.8043
3031.00,1.7848
3030.00,1.7654
3029.00,1.7467
3028.00,1.7288
3027.00,1.7119
3026.00,1.6957
3025.00,1.6805
3024.00,1.6662
3023.00,1.6532
3022.00,1.6416
3021.00,1.6319
3020.00,1.6244
3019.00,1.6192
3018.00,1.6164
3017.00,1.6159
3016.00,1.6176
3015.00,1.6215
3014.00,1.6279
3013.00,1.6366
3012.00,1.6474
3011.00,1.6598
3010.00,1.6732
3009.00,1.6874
3008.00,1.7020
3007.00,1.7164
3006.00,1.7300
3005.00,1.7423
3004.00,1.7528
3003.00,1.7609
3002.00,1.7666
3001.00,1.7701
3000.00,1.7714
2999.00,1.7707
2998.00,1.7684
2997.00,1.7651
2996.00,1.7618
2995.00,1.7591
2994.00,1.7573
2993.00,1.7569
2992.00,1.7582
2991.00,1.7615
2990.00,1.7673
2989.00,1.7759
2988.00,1.7870
2987.00,1.8005
2986.00,1.8159
2985.00,1.8332
2984.00,1.8525
2983.00,1.8737
2982.00,1.8964
2981.00,1.9200
2980.00,1.9441
2979.00,1.9684
2978.00,1.9928
2977.00,2.0173
2976.00,2.0421
2975.00,2.0671
2974.00,2.0921
2973.00,2.1166
2972.00,2.1403
2971.00,2.1627
2970.00,2.1838
2969.00,2.2042
2968.00,2.2242
2967.00,2.2434
2966.00,2.2612
2965.00,2.2773
2964.00,2.2923
2963.00,2.3067
2962.00,2.3208
2961.00,2.3348
2960.00,2.3485
2959.00,2.3622
2958.00,2.3760
2957.00,2.3898
2956.00,2.4035
2955.00,2.4175
2954.00,2.4320
2953.00,2.4474
2952.00,2.4631
2951.00,2.4786
2950.00,2.4935
2949.00,2.5083
2948.00,2.5233
2947.00,2.5381
2946.00,2.5514
2945.00,2.5610
2944.00,2.5644
2943.00,2.5600
2942.00,2.5481
2941.00,2.5308
2940.00,2.5109
2939.00,2.4909
2938.00,2.4724
2937.00,2.4564
2936.00,2.4428
2935.00,2.4309
2934.00,2.4204
2933.00,2.4111
2932.00,2.4031
2931.00,2.3960
2930.00,2.3896
2929.00,2.3840
2928.00,2.3795
2927.00,2.3764
2926.00,2.3741
2925.00,2.3720
2924.00,2.3697
2923.00,2.3671
2922.00,2.3644
2921.00,2.3623
2920.00,2.3614
2919.00,2.3612
2918.00,2.3611
2917.00,2.3602
2916.00,2.3586
2915.00,2.3569
2914.00,2.3554
2913.00,2.3543
2912.00,2.3533
2911.00,2.3519
2910.00,2.3497
2909.00,2.3464
2908.00,2.3423
2907.00,2.3377
2906.00,2.3334
2905.00,2.3293
2904.00,2.3245
2903.00,2.3184
2902.00,2.3111
2901.00,2.3033
2900.00,2.2956
2899.00,2.2876
2898.00,2.2786
2897.00,2.2682
2896.00,2.2572
2895.00,2.2464
2894.00,2.2358
2893.00,2.2250
2892.00,2.2133
2891.00,2.2004
2890.00,2.1863
2889.00,2.1712
2888.00,2.1557
2887.00,2.1402
2886.00,2.1249
2885.00,2.1094
2884.00,2.0935
2883.00,2.0773
2882.00,2.0613
2881.00,2.0456
2880.00,2.0302
2879.00,2.0153
2878.00,2.0016
2877.00,1.9901
2876.00,1.9811
2875.00,1.9746
2874.00,1.9699
2873.00,1.9668
2872.00,1.9646
2871.00,1.9628
2870.00,1.9607
2869.00,1.9575
2868.00,1.9525
2867.00,1.9450
2866.00,1.9350
2865.00,1.9226
2864.00,1.9078
2863.00,1.8904
2862.00,1.8700
2861.00,1.8463
2860.00,1.8194
2859.00,1.7893
2858.00,1.7563
2857.00,1.7206
2856.00,1.6829
2855.00,1.6439
2854.00,1.6044
2853.00,1.5657
2852.00,1.5284
2851.00,1.4933
2850.00,1.4608
2849.00,1.4315
2848.00,1.4058
2847.00,1.3844
2846.00,1.3672
2845.00,1.3546
2844.00,1.3465
2843.00,1.3429
2842.00,1.3436
2841.00,1.3484
2840.00,1.3569
2839.00,1.3687
2838.00,1.3835
2837.00,1.4010
2836.00,1.4210
2835.00,1.4430
2834.00,1.4667
2833.00,1.4918
2832.00,1.5181
2831.00,1.5455
2830.00,1.5737
2829.00,1.6024
2828.00,1.6314
2827.00,1.6607
2826.00,1.6900
2825.00,1.7194
2824.00,1.7488
2823.00,1.7780
2822.00,1.8069
2821.00,1.8355
2820.00,1.8635
2819.00,1.8910
2818.00,1.9179
2817.00,1.9440
2816.00,1.9689
2815.00,1.9926
2814.00,2.0155
2813.00,2.0378
2812.00,2.0594
2811.00,2.0798
2810.00,2.0992
2809.00,2.1181
2808.00,2.1368
2807.00,2.1551
2806.00,2.1721
2805.00,2.1877
2804.00,2.2021
2803.00,2.2159
2802.00,2.2294
2801.00,2.2424
2800.00,2.2549
2799.00,2.2667
2798.00,2.2778
2797.00,2.2880
2796.00,2.2974
2795.00,2.3063
2794.00,2.3149
2793.00,2.3225
2792.00,2.3288
2791.00,2.3341
2790.00,2.3389
2789.00,2.3439
2788.00,2.3492
2787.00,2.3548
2786.00,2.3606
2785.00,2.3661
2784.00,2.3703
2783.00,2.3730
2782.00,2.3747
2781.00,2.3763
2780.00,2.3782
2779.00,2.3801
2778.00,2.3813
2777.00,2.3814
2776.00,2.3807
2775.00,2.3796
2774.00,2.3783
2773.00,2.3765
2772.00,2.3743
2771.00,2.3719
2770.00,2.3696
2769.00,2.3667
2768.00,2.3626
2767.00,2.3572
2766.00,2.3516
2765.00,2.3464
2764.00,2.3415
2763.00,2.3363
2762.00,2.3302
2761.00,2.3230
2760.00,2.3147
2759.00,2.3058
2758.00,2.2968
2757.00,2.2876
2756.00,2.2775
2755.00,2.2663
2754.00,2.2543
2753.00,2.2417
2752.00,2.2287
2751.00,2.2150
2750.00,2.2008
2749.00,2.1862
2748.00,2.1713
2747.00,2.1559
2746.00,2.1397
2745.00,2.1225
2744.00,2.1038
2743.00,2.0835
2742.00,2.0620
2741.00,2.0397
2740.00,2.0165
2739.00,1.9925
2738.00,1.9676
2737.00,1.9418
2736.00,1.9150
2735.00,1.8869
2734.00,1.8572
2733.00,1.8257
2732.00,1.7927
2731.00,1.7582
2730.00,1.7223
2729.00,1.6852
2728.00,1.6469
2727.00,1.6074
2726.00,1.5668
2725.00,1.5254
2724.00,1.4837
2723.00,1.4422
2722.00,1.4013
2721.00,1.3615
2720.00,1.3231
2719.00,1.2865
2718.00,1.2523
2717.00,1.2208
2716.00,1.1925
2715.00,1.1678
2714.00,1.1470
2713.00,1.1307
2712.00,1.1192
2711.00,1.1127
2710.00,1.1113
2709.00,1.1151
2708.00,1.1238
2707.00,1.1373
2706.00,1.1552
2705.00,1.1772
2704.00,1.2028
2703.00,1.2315
2702.00,1.2628
2701.00,1.2962
2700.00,1.3315
2699.00,1.3681
2698.00,1.4059
2697.00,1.4444
2696.00,1.4833
2695.00,1.5226
2694.00,1.5620
2693.00,1.6013
2692.00,1.6404
2691.00,1.6790
2690.00,1.7171
2689.00,1.7546
2688.00,1.7913
2687.00,1.8270
2686.00,1.8615
2685.00,1.8946
2684.00,1.9263
2683.00,1.9566
2682.00,1.9854
2681.00,2.0130
2680.00,2.0395
2679.00,2.0647
2678.00,2.0890
2677.00,2.1120
2676.00,2.1336
2675.00,2.1539
2674.00,2.1733
2673.00,2.1919
2672.00,2.2099
2671.00,2.2272
2670.00,2.2436
2669.00,2.2591
2668.00,2.2738
2667.00,2.2877
2666.00,2.3013
2665.00,2.3151
2664.00,2.3287
2663.00,2.3415
2662.00,2.3530
2661.00,2.3634
2660.00,2.3732
2659.00,2.3830
2658.00,2.3927
2657.00,2.4018
2656.00,2.4098
2655.00,2.4168
2654.00,2.4230
2653.00,2.4288
2652.00,2.4345
2651.00,2.4402
2650.00,2.4453
2649.00,2.4498
2648.00,2.4536
2647.00,2.4573
2646.00,2.4608
2645.00,2.4639
2644.00,2.4666
2643.00,2.4697
2642.00,2.4731
2641.00,2.4761
2640.00,2.4773
2639.00,2.4769
2638.00,2.4760
2637.00,2.4752
2636.00,2.4741
2635.00,2.4724
2634.00,2.4701
2633.00,2.4676
2632.00,2.4650
2631.00,2.4627
2630.00,2.4609
2629.00,2.4594
2628.00,2.4579
2627.00,2.4559
2626.00,2.4530
2625.00,2.4489
2624.00,2.4436
2623.00,2.4371
2622.00,2.4296
2621.00,2.4210
2620.00,2.4112
2619.00,2.4008
2618.00,2.3908
2617.00,2.3814
2616.00,2.3726
2615.00,2.3635
2614.00,2.3532
2613.00,2.3414
2612.00,2.3280
2611.00,2.3138
2610.00,2.2996
2609.00,2.2853
2608.00,2.2699
2607.00,2.2531
2606.00,2.2352
2605.00,2.2165
2604.00,2.1968
2603.00,2.1760
2602.00,2.1540
2601.00,2.1311
2600.00,2.1075
2599.00,2.0830
2598.00,2.0571
2597.00,2.0298
2596.00,2.0007
2595.00,1.9700
2594.00,1.9378
2593.00,1.9043
2592.00,1.8695
2591.00,1.8331
2590.00,1.7949
2589.00,1.7547
2588.00,1.7127
2587.00,1.6692
2586.00,1.6245
2585.00,1.5793
2584.00,1.5338
2583.00,1.4885
2582.00,1.4439
2581.00,1.4005
2580.00,1.3589
2579.00,1.3195
2578.00,1.2829
2577.00,1.2497
2576.00,1.2203
2575.00,1.1952
2574.00,1.1749
2573.00,1.1597
2572.00,1.1499
2571.00,1.1457
2570.00,1.1471
2569.00,1.1539
2568.00,1.1660
2567.00,1.1830
2566.00,1.2045
2565.00,1.2300
2564.00,1.2590
2563.00,1.2910
2562.00,1.3256
2561.00,1.3623
2560.00,1.4006
2559.00,1.4402
2558.00,1.4807
2557.00,1.5220
2556.00,1.5638
2555.00,1.6060
2554.00,1.6481
2553.00,1.6900
2552.00,1.7313
2551.00,1.7719
2550.00,1.8112
2549.00,1.8492
2548.00,1.8860
2547.00,1.9218
2546.00,1.9569
2545.00,1.9909
2544.00,2.0237
2543.00,2.0551
2542.00,2.0852
2541.00,2.1139
2540.00,2.1411
2539.00,2.1666
2538.00,2.1906
2537.00,2.2137
2536.00,2.2356
2535.00,2.2562
2534.00,2.2755
2533.00,2.2938
2532.00,2.3119
2531.00,2.3302
2530.00,2.3486
2529.00,2.3664
2528.00,2.3828
2527.00,2.3973
2526.00,2.4106
2525.00,2.4231
2524.00,2.4350
2523.00,2.4465
2522.00,2.4576
2521.00,2.4681
2520.00,2.4776
2519.00,2.4859
2518.00,2.4934
2517.00,2.5009
2516.00,2.5088
2515.00,2.5168
2514.00,2.5246
2513.00,2.5319
2512.00,2.5384
2511.00,2.5442
2510.00,2.5492
2509.00,2.5528
2508.00,2.5555
2507.00,2.5587
2506.00,2.5640
2505.00,2.5710
2504.00,2.5771
2503.00,2.5800
2502.00,2.5795
2501.00,2.5775
2500.00,2.5756
2499.00,2.5746
2498.00,2.5745
2497.00,2.5753
2496.00,2.5765
2495.00,2.5777
2494.00,2.5784
2493.00,2.5775
2492.00,2.5742
2491.00,2.5687
2490.00,2.5622
2489.00,2.5556
2488.00,2.5493
2487.00,2.5436
2486.00,2.5389
2485.00,2.5351
2484.00,2.5312
2483.00,2.5260
2482.00,2.5191
2481.00,2.5106
2480.00,2.5006
2479.00,2.4893
2478.00,2.4778
2477.00,2.4669
2476.00,2.4568
2475.00,2.4472
2474.00,2.4377
2473.00,2.4278
2472.00,2.4167
2471.00,2.4042
2470.00,2.3902
2469.00,2.3750
2468.00,2.3588
2467.00,2.3416
2466.00,2.3233
2465.00,2.3041
2464.00,2.2843
2463.00,2.2635
2462.00,2.2416
2461.00,2.2185
2460.00,2.1945
2459.00,2.1696
2458.00,2.1437
2457.00,2.1164
2456.00,2.0875
2455.00,2.0571
2454.00,2.0252
2453.00,1.9918
2452.00,1.9565
2451.00,1.9193
2450.00,1.8807
2449.00,1.8409
2448.00,1.8000
2447.00,1.7580
2446.00,1.7152
2445.00,1.6721
2444.00,1.6290
2443.00,1.5865
2442.00,1.5452
2441.00,1.5055
2440.00,1.4679
2439.00,1.4329
2438.00,1.4008
2437.00,1.3724
2436.00,1.3482
2435.00,1.3284
2434.00,1.3135
2433.00,1.3039
2432.00,1.2997
2431.00,1.3012
2430.00,1.3082
2429.00,1.3208
2428.00,1.3384
2427.00,1.3606
2426.00,1.3871
2425.00,1.4171
2424.00,1.4501
2423.00,1.4856
2422.00,1.5228
2421.00,1.5614
2420.00,1.6009
2419.00,1.6409
2418.00,1.6809
2417.00,1.7207
2416.00,1.7599
2415.00,1.7981
2414.00,1.8353
2413.00,1.8711
2412.00,1.9057
2411.00,1.9391
2410.00,1.9713
2409.00,2.0024
2408.00,2.0324
2407.00,2.0612
2406.00,2.0891
2405.00,2.1161
2404.00,2.1424
2403.00,2.1677
2402.00,2.1924
2401.00,2.2169
2400.00,2.2411
2399.00,2.2647
2398.00,2.2876
2397.00,2.3100
2396.00,2.3321
2395.00,2.3535
2394.00,2.3737
2393.00,2.3934
2392.00,2.4119
2391.00,2.4333
2390.00,2.4526
2389.00,2.4814
2388.00,2.4876
2387.00,2.4904
2386.00,2.5088
2385.00,2.5195
2384.00,2.5336
2383.00,2.5454
2382.00,2.5577
2381.00,2.5680
2380.00,2.5766
2379.00,2.5843
2378.00,2.5923
2377.00,2.6012
2376.00,2.6101
2375.00,2.6179
2374.00,2.6244
2373.00,2.6298
2372.00,2.6342
2371.00,2.6383
2370.00,2.6435
2369.00,2.6505
2368.00,2.6574
2367.00,2.6610
2366.00,2.6604
2365.00,2.6585
2364.00,2.6589
2363.00,2.6631
2362.00,2.6689
2361.00,2.6728
2360.00,2.6729
2359.00,2.6699
2358.00,2.6659
2357.00,2.6630
2356.00,2.6617
2355.00,2.6614
2354.00,2.6614
2353.00,2.6606
2352.00,2.6582
2351.00,2.6539
2350.00,2.6486
2349.00,2.6441
2348.00,2.6414
2347.00,2.6400
2346.00,2.6377
2345.00,2.6329
2344.00,2.6251
2343.00,2.6154
2342.00,2.6048
2341.00,2.5941
2340.00,2.5840
2339.00,2.5745
2338.00,2.5649
2337.00,2.5544
2336.00,2.5409
2335.00,2.5282
2334.00,2.5100
2333.00,2.4998
2332.00,2.4736
2331.00,2.4738
2330.00,2.3944
2329.00,2.3254
2328.00,2.3173
2327.00,2.3078
2326.00,2.3140
2325.00,2.3125
2324.00,2.3058
2323.00,2.2862
2322.00,2.2632
2321.00,2.2311
2320.00,2.1993
2319.00,2.1677
2318.00,2.1488
2317.00,2.1396
2316.00,2.1377
2315.00,2.1316
2314.00,2.1156
2313.00,2.0876
2312.00,2.0505
2311.00,2.0081
2310.00,1.9634
2309.00,1.9185
2308.00,1.8763
2307.00,1.8398
2306.00,1.8135
2305.00,1.7999
2304.00,1.8012
2303.00,1.8168
2302.00,1.8454
2301.00,1.8866
2300.00,1.9383
2299.00,2.0001
2298.00,2.0673
2297.00,2.1383
2296.00,2.2058
2295.00,2.2655
2294.00,2.3083
2293.00,2.3282
2292.00,2.3191
2291.00,2.2826
2290.00,2.2240
2289.00,2.1529
2288.00,2.0784
2287.00,2.0084
2286.00,1.9489
2285.00,1.9037
2284.00,1.8743
2283.00,1.8598
2282.00,1.8586
2281.00,1.8691
2280.00,1.8906
2279.00,1.9219
2278.00,1.9616
2277.00,2.0074
2276.00,2.0572
2275.00,2.1092
2274.00,2.1621
2273.00,2.2150
2272.00,2.2675
2271.00,2.3193
2270.00,2.3701
2269.00,2.4196
2268.00,2.4672
2267.00,2.5135
2266.00,2.5601
2265.00,2.6082
2264.00,2.6570
2263.00,2.7052
2262.00,2.7522
2261.00,2.8002
2260.00,2.8545
2259.00,2.9211
2258.00,3.0077
2257.00,3.1214
2256.00,3.2666
2255.00,3.4352
2254.00,3.5867
2253.00,3.6427
2252.00,3.5683
2251.00,3.4172
2250.00,3.2410
2249.00,3.0612
2248.00,2.8881
2247.00,2.7286
2246.00,2.5871
2245.00,2.4671
2244.00,2.3712
2243.00,2.3012
2242.00,2.2568
2241.00,2.2362
2240.00,2.2357
2239.00,2.2514
2238.00,2.2789
2237.00,2.3142
2236.00,2.3533
2235.00,2.3934
2234.00,2.4327
2233.00,2.4704
2232.00,2.5057
2231.00,2.5375
2230.00,2.5649
2229.00,2.5882
2228.00,2.6082
2227.00,2.6261
2226.00,2.6433
2225.00,2.6608
2224.00,2.6779
2223.00,2.6931
2222.00,2.7051
2221.00,2.7148
2220.00,2.7242
2219.00,2.7343
2218.00,2.7443
2217.00,2.7529
2216.00,2.7601
2215.00,2.7669
2214.00,2.7742
2213.00,2.7810
2212.00,2.7860
2211.00,2.7887
2210.00,2.7894
2209.00,2.7887
2208.00,2.7872
2207.00,2.7860
2206.00,2.7855
2205.00,2.7853
2204.00,2.7852
2203.00,2.7856
2202.00,2.7868
2201.00,2.7884
2200.00,2.7893
2199.00,2.7892
2198.00,2.7877
2197.00,2.7840
2196.00,2.7772
2195.00,2.7687
2194.00,2.7610
2193.00,2.7546
2192.00,2.7477
2191.00,2.7380
2190.00,2.7264
2189.00,2.7155
2188.00,2.7070
2187.00,2.6997
2186.00,2.6914
2185.00,2.6811
2184.00,2.6691
2183.00,2.6565
2182.00,2.6432
2181.00,2.6285
2180.00,2.6124
2179.00,2.5958
2178.00,2.5796
2177.00,2.5637
2176.00,2.5472
2175.00,2.5295
2174.00,2.5104
2173.00,2.4895
2172.00,2.4667
2171.00,2.4424
2170.00,2.4170
2169.00,2.3910
2168.00,2.3643
2167.00,2.3365
2166.00,2.3074
2165.00,2.2762
2164.00,2.2427
2163.00,2.2067
2162.00,2.1687
2161.00,2.1287
2160.00,2.0865
2159.00,2.0416
2158.00,1.9940
2157.00,1.9441
2156.00,1.8923
2155.00,1.8387
2154.00,1.7836
2153.00,1.7276
2152.00,1.6716
2151.00,1.6168
2150.00,1.5640
2149.00,1.5141
2148.00,1.4681
2147.00,1.4267
2146.00,1.3910
2145.00,1.3617
2144.00,1.3396
2143.00,1.3252
2142.00,1.3189
2141.00,1.3210
2140.00,1.3313
2139.00,1.3495
2138.00,1.3747
2137.00,1.4061
2136.00,1.4427
2135.00,1.4836
2134.00,1.5279
2133.00,1.5749
2132.00,1.6238
2131.00,1.6742
2130.00,1.7253
2129.00,1.7768
2128.00,1.8280
2127.00,1.8787
2126.00,1.9288
2125.00,1.9780
2124.00,2.0260
2123.00,2.0725
2122.00,2.1172
2121.00,2.1600
2120.00,2.2008
2119.00,2.2394
2118.00,2.2760
2117.00,2.3108
2116.00,2.3438
2115.00,2.3752
2114.00,2.4049
2113.00,2.4329
2112.00,2.4596
2111.00,2.4853
2110.00,2.5101
2109.00,2.5335
2108.00,2.5549
2107.00,2.5746
2106.00,2.5937
2105.00,2.6128
2104.00,2.6311
2103.00,2.6477
2102.00,2.6635
2101.00,2.6795
2100.00,2.6957
2099.00,2.7112
2098.00,2.7251
2097.00,2.7379
2096.00,2.7500
2095.00,2.7619
2094.00,2.7742
2093.00,2.7869
2092.00,2.7992
2091.00,2.8097
2090.00,2.8178
2089.00,2.8240
2088.00,2.8301
2087.00,2.8382
2086.00,2.8488
2085.00,2.8600
2084.00,2.8684
2083.00,2.8725
2082.00,2.8746
2081.00,2.8780
2080.00,2.8834
2079.00,2.8885
2078.00,2.8912
2077.00,2.8916
2076.00,2.8914
2075.00,2.8919
2074.00,2.8934
2073.00,2.8955
2072.00,2.8976
2071.00,2.8989
2070.00,2.8988
2069.00,2.8973
2068.00,2.8952
2067.00,2.8929
2066.00,2.8901
2065.00,2.8863
2064.00,2.8820
2063.00,2.8783
2062.00,2.8753
2061.00,2.8720
2060.00,2.8682
2059.00,2.8649
2058.00,2.8626
2057.00,2.8594
2056.00,2.8536
2055.00,2.8459
2054.00,2.8385
2053.00,2.8321
2052.00,2.8255
2051.00,2.8182
2050.00,2.8109
2049.00,2.8033
2048.00,2.7938
2047.00,2.7814
2046.00,2.7668
2045.00,2.7513
2044.00,2.7358
2043.00,2.7211
2042.00,2.7077
2041.00,2.6950
2040.00,2.6810
2039.00,2.6645
2038.00,2.6463
2037.00,2.6275
2036.00,2.6085
2035.00,2.5888
2034.00,2.5682
2033.00,2.5465
2032.00,2.5230
2031.00,2.4976
2030.00,2.4713
2029.00,2.4448
2028.00,2.4178
2027.00,2.3889
2026.00,2.3572
2025.00,2.3227
2024.00,2.2859
2023.00,2.2474
2022.00,2.2068
2021.00,2.1642
2020.00,2.1191
2019.00,2.0711
2018.00,2.0204
2017.00,1.9675
2016.00,1.9131
2015.00,1.8578
2014.00,1.8021
2013.00,1.7465
2012.00,1.6918
2011.00,1.6389
2010.00,1.5887
2009.00,1.5424
2008.00,1.5010
2007.00,1.4655
2006.00,1.4368
2005.00,1.4155
2004.00,1.4023
2003.00,1.3976
2002.00,1.4016
2001.00,1.4142
2000.00,1.4349
1999.00,1.4629
1998.00,1.4970
1997.00,1.5363
1996.00,1.5797
1995.00,1.6262
1994.00,1.6749
1993.00,1.7259
1992.00,1.7786
1991.00,1.8323
1990.00,1.8858
1989.00,1.9386
1988.00,1.9908
1987.00,2.0424
1986.00,2.0932
1985.00,2.1425
1984.00,2.1894
1983.00,2.2338
1982.00,2.2756
1981.00,2.3150
1980.00,2.3524
1979.00,2.3875
1978.00,2.4207
1977.00,2.4529
1976.00,2.4851
1975.00,2.5165
1974.00,2.5458
1973.00,2.5722
1972.00,2.5962
1971.00,2.6190
1970.00,2.6412
1969.00,2.6628
1968.00,2.6842
1967.00,2.7052
1966.00,2.7252
1965.00,2.7430
1964.00,2.7579
1963.00,2.7714
1962.00,2.7861
1961.00,2.8039
1960.00,2.8237
1959.00,2.8416
1958.00,2.8546
1957.00,2.8633
1956.00,2.8709
1955.00,2.8800
1954.00,2.8898
1953.00,2.8986
1952.00,2.9061
1951.00,2.9139
1950.00,2.9234
1949.00,2.9348
1948.00,2.9465
1947.00,2.9566
1946.00,2.9634
1945.00,2.9675
1944.00,2.9707
1943.00,2.9744
1942.00,2.9776
1941.00,2.9787
1940.00,2.9786
1939.00,2.9805
1938.00,2.9863
1937.00,2.9949
1936.00,3.0029
1935.00,3.0081
1934.00,3.0104
1933.00,3.0108
1932.00,3.0104
1931.00,3.0098
1930.00,3.0095
1929.00,3.0096
1928.00,3.0095
1927.00,3.0078
1926.00,3.0035
1925.00,2.9967
1924.00,2.9893
1923.00,2.9829
1922.00,2.9792
1921.00,2.9788
1920.00,2.9808
1919.00,2.9814
1918.00,2.9769
1917.00,2.9678
1916.00,2.9584
1915.00,2.9518
1914.00,2.9456
1913.00,2.9361
1912.00,2.9231
1911.00,2.9101
1910.00,2.9004
1909.00,2.8941
1908.00,2.8894
1907.00,2.8834
1906.00,2.8735
1905.00,2.8593
1904.00,2.8433
1903.00,2.8285
1902.00,2.8155
1901.00,2.8022
1900.00,2.7862
1899.00,2.7675
1898.00,2.7471
1897.00,2.7264
1896.00,2.7055
1895.00,2.6840
1894.00,2.6612
1893.00,2.6368
1892.00,2.6114
1891.00,2.5847
1890.00,2.5560
1889.00,2.5252
1888.00,2.4931
1887.00,2.4607
1886.00,2.4278
1885.00,2.3928
1884.00,2.3551
1883.00,2.3149
1882.00,2.2722
1881.00,2.2269
1880.00,2.1792
1879.00,2.1291
1878.00,2.0772
1877.00,2.0239
1876.00,1.9697
1875.00,1.9148
1874.00,1.8596
1873.00,1.8050
1872.00,1.7523
1871.00,1.7030
1870.00,1.6579
1869.00,1.6173
1868.00,1.5811
1867.00,1.5502
1866.00,1.5270
1865.00,1.5134
1864.00,1.5102
1863.00,1.5167
1862.00,1.5325
1861.00,1.5571
1860.00,1.5900
1859.00,1.6299
1858.00,1.6753
1857.00,1.7251
1856.00,1.7780
1855.00,1.8329
1854.00,1.8890
1853.00,1.9457
1852.00,2.0020
1851.00,2.0570
1850.00,2.1104
1849.00,2.1623
1848.00,2.2121
1847.00,2.2588
1846.00,2.3035
1845.00,2.3482
1844.00,2.3930
1843.00,2.4354
1842.00,2.4751
1841.00,2.5137
1840.00,2.5510
1839.00,2.5862
1838.00,2.6184
1837.00,2.6475
1836.00,2.6740
1835.00,2.6986
1834.00,2.7221
1833.00,2.7454
1832.00,2.7691
1831.00,2.7934
1830.00,2.8168
1829.00,2.8361
1828.00,2.8514
1827.00,2.8660
1826.00,2.8827
1825.00,2.9007
1824.00,2.9166
1823.00,2.9290
1822.00,2.9397
1821.00,2.9510
1820.00,2.9632
1819.00,2.9756
1818.00,2.9874
1817.00,2.9985
1816.00,3.0092
1815.00,3.0205
1814.00,3.0328
1813.00,3.0450
1812.00,3.0551
1811.00,3.0621
1810.00,3.0661
1809.00,3.0681
1808.00,3.0707
1807.00,3.0779
1806.00,3.0903
1805.00,3.1017
1804.00,3.1035
1803.00,3.0952
1802.00,3.0870
1801.00,3.0885
1800.00,3.0996
1799.00,3.1125
1798.00,3.1194
1797.00,3.1180
1796.00,3.1122
1795.00,3.1084
1794.00,3.1103
1793.00,3.1142
1792.00,3.1131
1791.00,3.1073
1790.00,3.1046
1789.00,3.1081
1788.00,3.1109
1787.00,3.1070
1786.00,3.0985
1785.00,3.0906
1784.00,3.0849
1783.00,3.0793
1782.00,3.0737
1781.00,3.0680
1780.00,3.0610
1779.00,3.0526
1778.00,3.0441
1777.00,3.0361
1776.00,3.0262
1775.00,3.0141
1774.00,3.0033
1773.00,2.9970
1772.00,2.9908
1771.00,2.9787
1770.00,2.9616
1769.00,2.9429
1768.00,2.9230
1767.00,2.9026
1766.00,2.8837
1765.00,2.8669
1764.00,2.8495
1763.00,2.8294
1762.00,2.8062
1761.00,2.7804
1760.00,2.7540
1759.00,2.7282
1758.00,2.7023
1757.00,2.6740
1756.00,2.6420
1755.00,2.6079
1754.00,2.5733
1753.00,2.5376
1752.00,2.5007
1751.00,2.4652
1750.00,2.4329
1749.00,2.4024
1748.00,2.3706
1747.00,2.3372
1746.00,2.3057
1745.00,2.2795
1744.00,2.2587
1743.00,2.2430
1742.00,2.2332
1741.00,2.2299
1740.00,2.2310
1739.00,2.2317
1738.00,2.2307
1737.00,2.2313
1736.00,2.2374
1735.00,2.2539
1734.00,2.2805
1733.00,2.3117
1732.00,2.3498
1731.00,2.3978
1730.00,2.4516
1729.00,2.5077
1728.00,2.5652
1727.00,2.6255
1726.00,2.6902
1725.00,2.7593
1724.00,2.8322
1723.00,2.9084
1722.00,2.9873
1721.00,3.0664
1720.00,3.1431
1719.00,3.2203
1718.00,3.3014
1717.00,3.3818
1716.00,3.4570
1715.00,3.5354
1714.00,3.6250
1713.00,3.7101
1712.00,3.7640
1711.00,3.7898
1710.00,3.8230
1709.00,3.8814
1708.00,3.9425
1707.00,3.9640
1706.00,3.9067
1705.00,3.7690
1704.00,3.6029
1703.00,3.4499
1702.00,3.3109
1701.00,3.1672
1700.00,3.0139
1699.00,2.8672
1698.00,2.7427
1697.00,2.6346
1696.00,2.5332
1695.00,2.4434
1694.00,2.3792
1693.00,2.3473
1692.00,2.3394
1691.00,2.3468
1690.00,2.3668
1689.00,2.3972
1688.00,2.4331
1687.00,2.4709
1686.00,2.5141
1685.00,2.5715
1684.00,2.6368
1683.00,2.6908
1682.00,2.7322
1681.00,2.7698
1680.00,2.8051
1679.00,2.8373
1678.00,2.8662
1677.00,2.8945
1676.00,2.9247
1675.00,2.9525
1674.00,2.9721
1673.00,2.9879
1672.00,3.0089
1671.00,3.0374
1670.00,3.0675
1669.00,3.0893
1668.00,3.1002
1667.00,3.1082
1666.00,3.1211
1665.00,3.1401
1664.00,3.1620
1663.00,3.1798
1662.00,3.1876
1661.00,3.1882
1660.00,3.1894
1659.00,3.1949
1658.00,3.2034
1657.00,3.2107
1656.00,3.2134
1655.00,3.2151
1654.00,3.2275
1653.00,3.2456
1652.00,3.2500
1651.00,3.2526
1650.00,3.2656
1649.00,3.2786
1648.00,3.2856
1647.00,3.2857
1646.00,3.2779
1645.00,3.2669
1644.00,3.2610
1643.00,3.2602
1642.00,3.2610
1641.00,3.2621
1640.00,3.2633
1639.00,3.2641
1638.00,3.2652
1637.00,3.2691
1636.00,3.2727
1635.00,3.2669
1634.00,3.2536
1633.00,3.2459
1632.00,3.2463
1631.00,3.2472
1630.00,3.2436
1629.00,3.2358
1628.00,3.2257
1627.00,3.2149
1626.00,3.2063
1625.00,3.2024
1624.00,3.2015
1623.00,3.1965
1622.00,3.1833
1621.00,3.1676
1620.00,3.1559
1619.00,3.1480
1618.00,3.1398
1617.00,3.1278
1616.00,3.1102
1615.00,3.0916
1614.00,3.0773
1613.00,3.0646
1612.00,3.0488
1611.00,3.0300
1610.00,3.0103
1609.00,2.9896
1608.00,2.9666
1607.00,2.9409
1606.00,2.9141
1605.00,2.8874
1604.00,2.8604
1603.00,2.8316
1602.00,2.8001
1601.00,2.7659
1600.00,2.7301
1599.00,2.6940
1598.00,2.6576
1597.00,2.6199
1596.00,2.5807
1595.00,2.5400
1594.00,2.4974
1593.00,2.4523
1592.00,2.4049
1591.00,2.3564
1590.00,2.3080
1589.00,2.2603
1588.00,2.2139
1587.00,2.1701
1586.00,2.1302
1585.00,2.0955
1584.00,2.0671
1583.00,2.0464
1582.00,2.0344
1581.00,2.0307
1580.00,2.0333
1579.00,2.0407
1578.00,2.0537
1577.00,2.0750
1576.00,2.1029
1575.00,2.1322
1574.00,2.1641
1573.00,2.2008
1572.00,2.2420
1571.00,2.2899
1570.00,2.3446
1569.00,2.3985
1568.00,2.4455
1567.00,2.4881
1566.00,2.5310
1565.00,2.5746
1564.00,2.6151
1563.00,2.6482
1562.00,2.6748
1561.00,2.7053
1560.00,2.7567
1559.00,2.8218
1558.00,2.8646
1557.00,2.8833
1556.00,2.9023
1555.00,2.9259
1554.00,2.9517
1553.00,2.9771
1552.00,3.0004
1551.00,3.0222
1550.00,3.0458
1549.00,3.0729
1548.00,3.0993
1547.00,3.1183
1546.00,3.1295
1545.00,3.1397
1544.00,3.1546
1543.00,3.1744
1542.00,3.1970
1541.00,3.2213
1540.00,3.2411
1539.00,3.2477
1538.00,3.2502
1537.00,3.2622
1536.00,3.2809
1535.00,3.2982
1534.00,3.3107
1533.00,3.3167
1532.00,3.3181
1531.00,3.3206
1530.00,3.3279
1529.00,3.3420
1528.00,3.3617
1527.00,3.3799
1526.00,3.3876
1525.00,3.3830
1524.00,3.3763
1523.00,3.3807
1522.00,3.3995
1521.00,3.4195
1520.00,3.4227
1519.00,3.4112
1518.00,3.4006
1517.00,3.3988
1516.00,3.4026
1515.00,3.4066
1514.00,3.4085
1513.00,3.4070
1512.00,3.4013
1511.00,3.3907
1510.00,3.3776
1509.00,3.3670
1508.00,3.3650
1507.00,3.3722
1506.00,3.3797
1505.00,3.3863
1504.00,3.3988
1503.00,3.4104
1502.00,3.4110
1501.00,3.4020
1500.00,3.3920
1499.00,3.3872
1498.00,3.3879
1497.00,3.3902
1496.00,3.3894
1495.00,3.3839
1494.00,3.3754
1493.00,3.3631
1492.00,3.3458
1491.00,3.3286
1490.00,3.3218
1489.00,3.3292
1488.00,3.3390
1487.00,3.3342
1486.00,3.3123
1485.00,3.2845
1484.00,3.2603
1483.00,3.2429
1482.00,3.2328
1481.00,3.2291
1480.00,3.2276
1479.00,3.2219
1478.00,3.2100
1477.00,3.1957
1476.00,3.1831
1475.00,3.1715
1474.00,3.1605
1473.00,3.1519
1472.00,3.1462
1471.00,3.1415
1470.00,3.1364
1469.00,3.1313
1468.00,3.1292
1467.00,3.1342
1466.00,3.1482
1465.00,3.1677
1464.00,3.1864
1463.00,3.2041
1462.00,3.2257
1461.00,3.2522
1460.00,3.2780
1459.00,3.2987
1458.00,3.3196
1457.00,3.3511
1456.00,3.3973
1455.00,3.4508
1454.00,3.4982
1453.00,3.5361
1452.00,3.5733
1451.00,3.6153
1450.00,3.6536
1449.00,3.6730
1448.00,3.6674
1447.00,3.6442
1446.00,3.6166
1445.00,3.5903
1444.00,3.5633
1443.00,3.5379
1442.00,3.5215
1441.00,3.5160
1440.00,3.5137
1439.00,3.5070
1438.00,3.5008
1437.00,3.5072
1436.00,3.5266
1435.00,3.5420
1434.00,3.5384
1433.00,3.5175
1432.00,3.4919
1431.00,3.4731
1430.00,3.4666
1429.00,3.4741
1428.00,3.4897
1427.00,3.5021
1426.00,3.5070
1425.00,3.5063
1424.00,3.4992
1423.00,3.4854
1422.00,3.4689
1421.00,3.4563
1420.00,3.4529
1419.00,3.4594
1418.00,3.4714
1417.00,3.4835
1416.00,3.4881
1415.00,3.4771
1414.00,3.4507
1413.00,3.4166
1412.00,3.3816
1411.00,3.3501
1410.00,3.3257
1409.00,3.3118
1408.00,3.3078
1407.00,3.3075
1406.00,3.3026
1405.00,3.2902
1404.00,3.2762
1403.00,3.2694
1402.00,3.2735
1401.00,3.2857
1400.00,3.3003
1399.00,3.3109
1398.00,3.3129
1397.00,3.3084
1396.00,3.3057
1395.00,3.3150
1394.00,3.3399
1393.00,3.3733
1392.00,3.4018
1391.00,3.4191
1390.00,3.4311
1389.00,3.4457
1388.00,3.4637
1387.00,3.4824
1386.00,3.5081
1385.00,3.5532
1384.00,3.6191
1383.00,3.6872
1382.00,3.7312
1381.00,3.7427
1380.00,3.7405
1379.00,3.7520
1378.00,3.7945
1377.00,3.8661
1376.00,3.9305
1375.00,3.9276
1374.00,3.8485
1373.00,3.7420
1372.00,3.6484
1371.00,3.5809
1370.00,3.5379
1369.00,3.5138
1368.00,3.5015
1367.00,3.4952
1366.00,3.4918
1365.00,3.4886
1364.00,3.4831
1363.00,3.4769
1362.00,3.4762
1361.00,3.4841
1360.00,3.4963
1359.00,3.5075
1358.00,3.5177
1357.00,3.5295
1356.00,3.5405
1355.00,3.5446
1354.00,3.5429
1353.00,3.5447
1352.00,3.5553
1351.00,3.5707
1350.00,3.5852
1349.00,3.5964
1348.00,3.6024
1347.00,3.5986
1346.00,3.5857
1345.00,3.5739
1344.00,3.5760
1343.00,3.5947
1342.00,3.6200
1341.00,3.6368
1340.00,3.6380
1339.00,3.6294
1338.00,3.6191
1337.00,3.6083
1336.00,3.5934
1335.00,3.5754
1334.00,3.5611
1333.00,3.5539
1332.00,3.5476
1331.00,3.5351
1330.00,3.5206
1329.00,3.5152
1328.00,3.5217
1327.00,3.5300
1326.00,3.5298
1325.00,3.5242
1324.00,3.5226
1323.00,3.5266
1322.00,3.5293
1321.00,3.5246
1320.00,3.5127
1319.00,3.4964
1318.00,3.4773
1317.00,3.4588
1316.00,3.4459
1315.00,3.4393
1314.00,3.4345
1313.00,3.4302
1312.00,3.4311
1311.00,3.4399
1310.00,3.4503
1309.00,3.4503
1308.00,3.4328
1307.00,3.4032
1306.00,3.3713
1305.00,3.3397
1304.00,3.3052
1303.00,3.2680
1302.00,3.2332
1301.00,3.2050
1300.00,3.1819
1299.00,3.1584
1298.00,3.1298
1297.00,3.0950
1296.00,3.0567
1295.00,3.0176
1294.00,2.9780
1293.00,2.9354
1292.00,2.8866
1291.00,2.8319
1290.00,2.7740
1289.00,2.7153
1288.00,2.6563
1287.00,2.5971
1286.00,2.5391
1285.00,2.4852
1284.00,2.4378
1283.00,2.3991
1282.00,2.3708
1281.00,2.3545
1280.00,2.3510
1279.00,2.3595
1278.00,2.3772
1277.00,2.3995
1276.00,2.4226
1275.00,2.4446
1274.00,2.4659
1273.00,2.4884
1272.00,2.5146
1271.00,2.5462
1270.00,2.5839
1269.00,2.6266
1268.00,2.6721
1267.00,2.7183
1266.00,2.7638
1265.00,2.8077
1264.00,2.8506
1263.00,2.8932
1262.00,2.9364
1261.00,2.9800
1260.00,3.0228
1259.00,3.0632
1258.00,3.0993
1257.00,3.1294
1256.00,3.1552
1255.00,3.1831
1254.00,3.2200
1253.00,3.2665
1252.00,3.3140
1251.00,3.3518
1250.00,3.3790
1249.00,3.4036
1248.00,3.4307
1247.00,3.4575
1246.00,3.4806
1245.00,3.5016
1244.00,3.5230
1243.00,3.5432
1242.00,3.5584
1241.00,3.5689
1240.00,3.5812
1239.00,3.6026
1238.00,3.6302
1237.00,3.6460
1236.00,3.6385
1235.00,3.6240
1234.00,3.6237
1233.00,3.6421
1232.00,3.6693
1231.00,3.6954
1230.00,3.7249
1229.00,3.7682
1228.00,3.8278
1227.00,3.8908
1226.00,3.9329
1225.00,3.9389
1224.00,3.9115
1223.00,3.8744
1222.00,3.8453
1221.00,3.8183
1220.00,3.7845
1219.00,3.7503
1218.00,3.7304
1217.00,3.7291
1216.00,3.7409
1215.00,3.7625
1214.00,3.7960
1213.00,3.8362
1212.00,3.8572
1211.00,3.8325
1210.00,3.7785
1209.00,3.7319
1208.00,3.7093
1207.00,3.7102
1206.00,3.7307
1205.00,3.7641
1204.00,3.7926
1203.00,3.7956
1202.00,3.7787
1201.00,3.7693
1200.00,3.7738
1199.00,3.7759
1198.00,3.7700
1197.00,3.7566
1196.00,3.7304
1195.00,3.6962
1194.00,3.6658
1193.00,3.6523
1192.00,3.6633
1191.00,3.6959
1190.00,3.7343
1189.00,3.7475
1188.00,3.7130
1187.00,3.6492
1186.00,3.5961
1185.00,3.5805
1184.00,3.6060
1183.00,3.6470
1182.00,3.6668
1181.00,3.6705
1180.00,3.6810
1179.00,3.6877
1178.00,3.6763
1177.00,3.6512
1176.00,3.6163
1175.00,3.5802
1174.00,3.5557
1173.00,3.5446
1172.00,3.5363
1171.00,3.5215
1170.00,3.5068
1169.00,3.5025
1168.00,3.5037
1167.00,3.4937
1166.00,3.4642
1165.00,3.4238
1164.00,3.3854
1163.00,3.3526
1162.00,3.3204
1161.00,3.2842
1160.00,3.2438
1159.00,3.1996
1158.00,3.1510
1157.00,3.0995
1156.00,3.0489
1155.00,3.0020
1154.00,2.9592
1153.00,2.9181
1152.00,2.8740
1151.00,2.8238
1150.00,2.7693
1149.00,2.7171
1148.00,2.6738
1147.00,2.6428
1146.00,2.6234
1145.00,2.6127
1144.00,2.6085
1143.00,2.6108
1142.00,2.6212
1141.00,2.6410
1140.00,2.6707
1139.00,2.7096
1138.00,2.7561
1137.00,2.8088
1136.00,2.8669
1135.00,2.9305
1134.00,2.9989
1133.00,3.0702
1132.00,3.1402
1131.00,3.2058
1130.00,3.2654
1129.00,3.3186
1128.00,3.3636
1127.00,3.3994
1126.00,3.4341
1125.00,3.4817
1124.00,3.5495
1123.00,3.6325
1122.00,3.7106
1121.00,3.7629
1120.00,3.7970
1119.00,3.8181
1118.00,3.7993
1117.00,3.7380
1116.00,3.6808
1115.00,3.6699
1114.00,3.7128
1113.00,3.7698
1112.00,3.7771
1111.00,3.7482
1110.00,3.7369
1109.00,3.7597
1108.00,3.8151
1107.00,3.8940
1106.00,3.9795
1105.00,4.0467
1104.00,4.0690
1103.00,4.0816
1102.00,4.1603
1101.00,4.2430
1100.00,4.1709
1099.00,4.0606
1098.00,3.9908
1097.00,3.9516
1096.00,3.9263
1095.00,3.9239
1094.00,3.9753
1093.00,4.0554
1092.00,4.0354
1091.00,3.9009
1090.00,3.7928
1089.00,3.7634
1088.00,3.7905
1087.00,3.8324
1086.00,3.8853
1085.00,3.9775
1084.00,4.1102
1083.00,4.1983
1082.00,4.1491
1081.00,4.0377
1080.00,3.9227
1079.00,3.8265
1078.00,3.7737
1077.00,3.7819
1076.00,3.8555
1075.00,3.9626
1074.00,4.0416
1073.00,4.0688
1072.00,4.0236
1071.00,3.9288
1070.00,3.8531
1069.00,3.8218
1068.00,3.8407
1067.00,3.9119
1066.00,4.0103
1065.00,4.0696
1064.00,4.0542
1063.00,4.0174
1062.00,4.0101
1061.00,4.0186
1060.00,4.0051
1059.00,3.9741
1058.00,3.9497
1057.00,3.9303
1056.00,3.8923
1055.00,3.8446
1054.00,3.8383
1053.00,3.9289
1052.00,4.1446
1051.00,4.3849
1050.00,4.5378
1049.00,4.5692
1048.00,4.4274
1047.00,4.4098
1046.00,4.4973
1045.00,4.3983
1044.00,4.1809
1043.00,4.0660
1042.00,4.0383
1041.00,4.0611
1040.00,4.1307
1039.00,4.2241
1038.00,4.2986
1037.00,4.3928
1036.00,4.7130
1035.00,4.8889
1034.00,4.4948
1033.00,4.4459
1032.00,4.2920
1031.00,4.0647
1030.00,3.9970
1029.00,4.0384
1028.00,4.0749
1027.00,4.0491
1026.00,4.0133
1025.00,4.0009
1024.00,3.9998
1023.00,3.9751
1022.00,3.9317
1021.00,3.9142
1020.00,3.9549
1019.00,4.0041
1018.00,3.9452
1017.00,3.8654
1016.00,3.8704
1015.00,3.9380
1014.00,3.9451
1013.00,3.8525
1012.00,3.7561
1011.00,3.6948
1010.00,3.6678
1009.00,3.6619
1008.00,3.6665
1007.00,3.6855
1006.00,3.7300
1005.00,3.7831
1004.00,3.7838
1003.00,3.7259
1002.00,3.6606
1001.00,3.5967
1000.00,3.5166
999.00,3.4304
998.00,3.3649
997.00,3.3311
996.00,3.3250
995.00,3.3320
994.00,3.3350
993.00,3.3304
992.00,3.3277
991.00,3.3389
990.00,3.3706
989.00,3.4208
988.00,3.4794
987.00,3.5336
986.00,3.5768
985.00,3.6118
984.00,3.6475
983.00,3.6984
982.00,3.7768
981.00,3.8758
980.00,3.9609
979.00,4.0031
978.00,4.0279
977.00,4.0805
976.00,4.1731
975.00,4.2901
974.00,4.4196
973.00,4.5299
972.00,4.5057
971.00,4.3474
970.00,4.1932
969.00,4.1000
968.00,4.0262
967.00,3.9309
966.00,3.8568
965.00,3.8518
964.00,3.9375
963.00,4.1406
962.00,4.4022
961.00,4.4524
960.00,4.4784
959.00,4.5626
958.00,4.5833
957.00,4.5105
956.00,4.3436
955.00,4.1701
954.00,4.0733
953.00,4.1290
952.00,4.3892
951.00,4.3854
950.00,4.1832
949.00,4.1879
948.00,4.3989
947.00,4.7633
946.00,4.4464
945.00,4.1330
944.00,3.9545
943.00,3.8764
942.00,3.8943
941.00,3.9856
940.00,4.1178
939.00,4.2372
938.00,4.3045
937.00,4.3636
936.00,4.5041
935.00,4.7030
934.00,4.7531
933.00,4.7198
932.00,4.8315
931.00,4.7639
930.00,4.3366
929.00,4.1149
928.00,4.0542
927.00,4.0842
926.00,4.1201
925.00,4.1329
924.00,4.2054
923.00,4.3224
922.00,4.2141
921.00,4.0600
920.00,4.0426
919.00,4.1992
918.00,4.6663
917.00,4.6477
916.00,4.2585
915.00,4.1706
914.00,4.2256
913.00,4.4928
912.00,4.9064
911.00,4.4298
910.00,4.2843
909.00,4.2376
908.00,4.1846
907.00,4.1959
906.00,4.2669
905.00,4.3420
904.00,4.4332
903.00,4.5755
902.00,4.6577
901.00,4.5480
900.00,4.3607
899.00,4.2090
898.00,4.0476
897.00,3.8905
896.00,3.7949
895.00,3.7783
894.00,3.8341
893.00,3.9326
892.00,4.0175
891.00,4.0648
890.00,4.0800
889.00,4.0539
888.00,3.9969
887.00,3.9644
886.00,3.9992
885.00,4.0696
884.00,4.0745
883.00,3.9280
882.00,3.7945
881.00,3.7847
880.00,3.8740
879.00,3.9425
878.00,3.9265
877.00,3.9361
876.00,3.9907
875.00,4.0107
874.00,4.0103
873.00,4.0756
872.00,4.1689
871.00,4.1307
870.00,4.0204
869.00,3.9293
868.00,3.8854
867.00,3.9011
866.00,3.9651
865.00,4.0693
864.00,4.1939
863.00,4.3325
862.00,4.5131
861.00,4.4853
860.00,4.2522
859.00,4.0878
858.00,4.0051
857.00,3.9639
856.00,3.9328
855.00,3.9232
854.00,3.9636
853.00,4.0304
852.00,4.0035
851.00,3.8620
850.00,3.7156
849.00,3.6251
848.00,3.6103
847.00,3.6626
846.00,3.7667
845.00,3.9282
844.00,4.2618
843.00,4.8307
842.00,4.3180
841.00,4.2236
840.00,4.3755
839.00,4.1709
838.00,3.9318
837.00,3.8275
836.00,3.7712
835.00,3.7172
834.00,3.6975
833.00,3.7556
832.00,3.8854
831.00,4.0037
830.00,4.0297
829.00,3.9795
828.00,3.9232
827.00,3.9070
826.00,3.9149
825.00,3.8859
824.00,3.8164
823.00,3.7707
822.00,3.7791
821.00,3.8392
820.00,3.9368
819.00,4.0381
818.00,4.1288
817.00,4.2437
816.00,4.3870
815.00,4.3956
814.00,4.3449
813.00,4.3928
812.00,4.2737
811.00,4.0201
810.00,3.8791
809.00,3.8737
808.00,3.9856
807.00,4.1616
806.00,4.2743
805.00,4.2376
804.00,4.1184
803.00,4.0016
802.00,3.9194
801.00,3.8665
800.00,3.8319
799.00,3.8265
798.00,3.8730
797.00,3.9698
796.00,4.0489
795.00,4.0272
794.00,3.9482
793.00,3.8811
792.00,3.8580
791.00,3.8876
790.00,3.9503
789.00,3.9930
788.00,3.9700
787.00,3.9225
786.00,3.9112
785.00,3.9483
784.00,4.0442
783.00,4.2805
782.00,4.6069
781.00,4.3773
780.00,4.3155
779.00,4.2505
778.00,4.0243
777.00,3.9499
776.00,4.0966
775.00,4.4605
774.00,4.4042
773.00,4.3648
772.00,4.5183
771.00,4.7499
770.00,4.9568
769.00,4.5404
768.00,4.1097
767.00,3.9199
766.00,3.8606
765.00,3.8552
764.00,3.8942
763.00,4.0029
762.00,4.2639
761.00,4.9291
760.00,4.5608
759.00,4.2860
758.00,4.1495
757.00,4.0007
756.00,3.8623
755.00,3.7768
754.00,3.7535
753.00,3.7787
752.00,3.8296
751.00,3.8730
750.00,3.9161
749.00,4.0302
748.00,4.3655
747.00,4.7666
746.00,4.3403
745.00,4.3165
744.00,4.3576
743.00,4.2994
742.00,4.2665
741.00,4.1498
740.00,3.9748
739.00,3.8565
738.00,3.8256
737.00,3.8622
736.00,3.9271
735.00,4.0195
734.00,4.1440
733.00,4.1699
732.00,4.0467
731.00,3.9336
730.00,3.9041
729.00,3.9287
728.00,3.9853
727.00,4.1532
726.00,4.2889
725.00,4.2006
724.00,4.1637
723.00,4.0733
722.00,3.9874
721.00,3.9367
720.00,3.8827
719.00,3.8433
718.00,3.8612
717.00,3.9810
716.00,4.1773
715.00,4.2843
714.00,4.3612
713.00,4.3130
712.00,4.1559
711.00,4.0988
710.00,4.0006
709.00,3.8587
708.00,3.7780
707.00,3.7633
706.00,3.8063
705.00,3.8747
704.00,3.9169
703.00,3.9522
702.00,4.0096
701.00,4.1317
700.00,4.3788
