Created as New Dataset,Sample 041 By Administrator Date Wednesday, November 24 2021
cm-1,A
7502.00,0.8180
7501.00,0.8179
7500.00,0.8166
7499.00,0.8140
7498.00,0.8107
7497.00,0.8069
7496.00,0.8026
7495.00,0.7977
7494.00,0.7927
7493.00,0.7886
7492.00,0.7855
7491.00,0.7829
7490.00,0.7803
7489.00,0.7773
7488.00,0.7733
7487.00,0.7678
7486.00,0.7603
7485.00,0.7513
7484.00,0.7414
7483.00,0.7311
7482.00,0.7209
7481.00,0.7116
7480.00,0.7035
7479.00,0.6962
7478.00,0.6893
7477.00,0.6826
7476.00,0.6764
7475.00,0.6709
7474.00,0.6659
7473.00,0.6610
7472.00,0.6561
7471.00,0.6509
7470.00,0.6450
7469.00,0.6378
7468.00,0.6299
7467.00,0.6221
7466.00,0.6149
7465.00,0.6079
7464.00,0.6007
7463.00,0.5934
7462.00,0.5864
7461.00,0.5798
7460.00,0.5731
7459.00,0.5661
7458.00,0.5596
7457.00,0.5541
7456.00,0.5498
7455.00,0.5462
7454.00,0.5430
7453.00,0.5401
7452.00,0.5372
7451.00,0.5342
7450.00,0.5311
7449.00,0.5281
7448.00,0.5253
7447.00,0.5228
7446.00,0.5209
7445.00,0.5196
7444.00,0.5187
7443.00,0.5181
7442.00,0.5176
7441.00,0.5174
7440.00,0.5176
7439.00,0.5182
7438.00,0.5191
7437.00,0.5204
7436.00,0.5219
7435.00,0.5236
7434.00,0.5258
7433.00,0.5286
7432.00,0.5319
7431.00,0.5356
7430.00,0.5395
7429.00,0.5439
7428.00,0.5487
7427.00,0.5542
7426.00,0.5601
7425.00,0.5664
7424.00,0.5728
7423.00,0.5792
7422.00,0.5860
7421.00,0.5930
7420.00,0.6003
7419.00,0.6074
7418.00,0.6145
7417.00,0.6218
7416.00,0.6294
7415.00,0.6373
7414.00,0.6454
7413.00,0.6538
7412.00,0.6622
7411.00,0.6707
7410.00,0.6790
7409.00,0.6872
7408.00,0.6956
7407.00,0.7047
7406.00,0.7145
7405.00,0.7245
7404.00,0.7341
7403.00,0.7433
7402.00,0.7525
7401.00,0.7618
7400.00,0.7707
7399.00,0.7791
7398.00,0.7873
7397.00,0.7958
7396.00,0.8044
7395.00,0.8131
7394.00,0.8220
7393.00,0.8312
7392.00,0.8404
7391.00,0.8490
7390.00,0.8568
7389.00,0.8644
7388.00,0.8721
7387.00,0.8795
7386.00,0.8866
7385.00,0.8935
7384.00,0.9003
7383.00,0.9072
7382.00,0.9141
7381.00,0.9210
7380.00,0.9279
7379.00,0.9345
7378.00,0.9404
7377.00,0.9456
7376.00,0.9504
7375.00,0.9554
7374.00,0.9606
7373.00,0.9656
7372.00,0.9697
7371.00,0.9726
7370.00,0.9748
7369.00,0.9769
7368.00,0.9795
7367.00,0.9823
7366.00,0.9848
7365.00,0.9866
7364.00,0.9879
7363.00,0.9893
7362.00,0.9904
7361.00,0.9907
7360.00,0.9898
7359.00,0.9886
7358.00,0.9880
7357.00,0.9882
7356.00,0.9880
7355.00,0.9863
7354.00,0.9835
7353.00,0.9804
7352.00,0.9776
7351.00,0.9748
7350.00,0.9718
7349.00,0.9689
7348.00,0.9662
7347.00,0.9636
7346.00,0.9606
7345.00,0.9571
7344.00,0.9529
7343.00,0.9479
7342.00,0.9420
7341.00,0.9353
7340.00,0.9285
7339.00,0.9219
7338.00,0.9156
7337.00,0.9093
7336.00,0.9027
7335.00,0.8958
7334.00,0.8890
7333.00,0.8823
7332.00,0.8755
7331.00,0.8680
7330.00,0.8598
7329.00,0.8511
7328.00,0.8426
7327.00,0.8348
7326.00,0.8273
7325.00,0.8195
7324.00,0.8108
7323.00,0.8017
7322.00,0.7929
7321.00,0.7846
7320.00,0.7766
7319.00,0.7685
7318.00,0.7605
7317.00,0.7528
7316.00,0.7455
7315.00,0.7382
7314.00,0.7309
7313.00,0.7237
7312.00,0.7166
7311.00,0.7099
7310.00,0.7036
7309.00,0.6978
7308.00,0.6921
7307.00,0.6865
7306.00,0.6810
7305.00,0.6759
7304.00,0.6712
7303.00,0.6671
7302.00,0.6633
7301.00,0.6600
7300.00,0.6570
7299.00,0.6546
7298.00,0.6528
7297.00,0.6516
7296.00,0.6507
7295.00,0.6502
7294.00,0.6503
7293.00,0.6514
7292.00,0.6531
7291.00,0.6549
7290.00,0.6567
7289.00,0.6587
7288.00,0.6611
7287.00,0.6641
7286.00,0.6675
7285.00,0.6715
7284.00,0.6762
7283.00,0.6814
7282.00,0.6870
7281.00,0.6926
7280.00,0.6984
7279.00,0.7046
7278.00,0.7111
7277.00,0.7178
7276.00,0.7244
7275.00,0.7308
7274.00,0.7376
7273.00,0.7448
7272.00,0.7526
7271.00,0.7604
7270.00,0.7681
7269.00,0.7759
7268.00,0.7841
7267.00,0.7927
7266.00,0.8015
7265.00,0.8102
7264.00,0.8187
7263.00,0.8270
7262.00,0.8354
7261.00,0.8441
7260.00,0.8527
7259.00,0.8611
7258.00,0.8692
7257.00,0.8772
7256.00,0.8853
7255.00,0.8936
7254.00,0.9022
7253.00,0.9106
7252.00,0.9186
7251.00,0.9259
7250.00,0.9330
7249.00,0.9402
7248.00,0.9473
7247.00,0.9540
7246.00,0.9603
7245.00,0.9662
7244.00,0.9722
7243.00,0.9784
7242.00,0.9848
7241.00,0.9911
7240.00,0.9974
7239.00,1.0035
7238.00,1.0095
7237.00,1.0156
7236.00,1.0214
7235.00,1.0264
7234.00,1.0305
7233.00,1.0340
7232.00,1.0371
7231.00,1.0400
7230.00,1.0426
7229.00,1.0447
7228.00,1.0465
7227.00,1.0483
7226.00,1.0504
7225.00,1.0527
7224.00,1.0546
7223.00,1.0558
7222.00,1.0568
7221.00,1.0580
7220.00,1.0589
7219.00,1.0587
7218.00,1.0574
7217.00,1.0558
7216.00,1.0544
7215.00,1.0531
7214.00,1.0510
7213.00,1.0478
7212.00,1.0440
7211.00,1.0402
7210.00,1.0366
7209.00,1.0332
7208.00,1.0293
7207.00,1.0247
7206.00,1.0196
7205.00,1.0146
7204.00,1.0101
7203.00,1.0059
7202.00,1.0010
7201.00,0.9954
7200.00,0.9893
7199.00,0.9830
7198.00,0.9766
7197.00,0.9697
7196.00,0.9622
7195.00,0.9546
7194.00,0.9473
7193.00,0.9404
7192.00,0.9335
7191.00,0.9260
7190.00,0.9181
7189.00,0.9097
7188.00,0.9011
7187.00,0.8923
7186.00,0.8833
7185.00,0.8746
7184.00,0.8659
7183.00,0.8573
7182.00,0.8486
7181.00,0.8401
7180.00,0.8321
7179.00,0.8244
7178.00,0.8165
7177.00,0.8086
7176.00,0.8009
7175.00,0.7937
7174.00,0.7867
7173.00,0.7797
7172.00,0.7725
7171.00,0.7652
7170.00,0.7578
7169.00,0.7506
7168.00,0.7434
7167.00,0.7364
7166.00,0.7298
7165.00,0.7239
7164.00,0.7185
7163.00,0.7137
7162.00,0.7094
7161.00,0.7055
7160.00,0.7020
7159.00,0.6988
7158.00,0.6959
7157.00,0.6934
7156.00,0.6913
7155.00,0.6897
7154.00,0.6886
7153.00,0.6881
7152.00,0.6881
7151.00,0.6884
7150.00,0.6892
7149.00,0.6906
7148.00,0.6923
7147.00,0.6942
7146.00,0.6965
7145.00,0.6993
7144.00,0.7028
7143.00,0.7069
7142.00,0.7114
7141.00,0.7161
7140.00,0.7210
7139.00,0.7263
7138.00,0.7321
7137.00,0.7384
7136.00,0.7449
7135.00,0.7515
7134.00,0.7581
7133.00,0.7649
7132.00,0.7718
7131.00,0.7788
7130.00,0.7859
7129.00,0.7936
7128.00,0.8017
7127.00,0.8100
7126.00,0.8180
7125.00,0.8261
7124.00,0.8344
7123.00,0.8429
7122.00,0.8514
7121.00,0.8598
7120.00,0.8683
7119.00,0.8771
7118.00,0.8863
7117.00,0.8954
7116.00,0.9044
7115.00,0.9130
7114.00,0.9214
7113.00,0.9295
7112.00,0.9378
7111.00,0.9463
7110.00,0.9552
7109.00,0.9642
7108.00,0.9727
7107.00,0.9806
7106.00,0.9882
7105.00,0.9959
7104.00,1.0035
7103.00,1.0108
7102.00,1.0178
7101.00,1.0250
7100.00,1.0324
7099.00,1.0399
7098.00,1.0470
7097.00,1.0536
7096.00,1.0598
7095.00,1.0653
7094.00,1.0703
7093.00,1.0751
7092.00,1.0801
7091.00,1.0850
7090.00,1.0896
7089.00,1.0936
7088.00,1.0971
7087.00,1.1005
7086.00,1.1038
7085.00,1.1069
7084.00,1.1097
7083.00,1.1125
7082.00,1.1156
7081.00,1.1189
7080.00,1.1220
7079.00,1.1240
7078.00,1.1248
7077.00,1.1246
7076.00,1.1241
7075.00,1.1235
7074.00,1.1226
7073.00,1.1213
7072.00,1.1199
7071.00,1.1186
7070.00,1.1176
7069.00,1.1163
7068.00,1.1144
7067.00,1.1116
7066.00,1.1085
7065.00,1.1054
7064.00,1.1024
7063.00,1.0992
7062.00,1.0957
7061.00,1.0917
7060.00,1.0876
7059.00,1.0832
7058.00,1.0785
7057.00,1.0733
7056.00,1.0672
7055.00,1.0604
7054.00,1.0531
7053.00,1.0459
7052.00,1.0389
7051.00,1.0320
7050.00,1.0248
7049.00,1.0171
7048.00,1.0091
7047.00,1.0011
7046.00,0.9930
7045.00,0.9844
7044.00,0.9752
7043.00,0.9655
7042.00,0.9560
7041.00,0.9470
7040.00,0.9382
7039.00,0.9293
7038.00,0.9202
7037.00,0.9112
7036.00,0.9023
7035.00,0.8937
7034.00,0.8850
7033.00,0.8760
7032.00,0.8668
7031.00,0.8576
7030.00,0.8490
7029.00,0.8407
7028.00,0.8325
7027.00,0.8243
7026.00,0.8162
7025.00,0.8086
7024.00,0.8014
7023.00,0.7947
7022.00,0.7883
7021.00,0.7823
7020.00,0.7767
7019.00,0.7715
7018.00,0.7668
7017.00,0.7626
7016.00,0.7585
7015.00,0.7547
7014.00,0.7512
7013.00,0.7483
7012.00,0.7460
7011.00,0.7441
7010.00,0.7428
7009.00,0.7420
7008.00,0.7416
7007.00,0.7417
7006.00,0.7422
7005.00,0.7435
7004.00,0.7453
7003.00,0.7476
7002.00,0.7502
7001.00,0.7533
7000.00,0.7567
6999.00,0.7604
6998.00,0.7645
6997.00,0.7689
6996.00,0.7737
6995.00,0.7788
6994.00,0.7842
6993.00,0.7904
6992.00,0.7971
6991.00,0.8039
6990.00,0.8107
6989.00,0.8177
6988.00,0.8249
6987.00,0.8325
6986.00,0.8403
6985.00,0.8482
6984.00,0.8562
6983.00,0.8645
6982.00,0.8730
6981.00,0.8816
6980.00,0.8901
6979.00,0.8986
6978.00,0.9071
6977.00,0.9155
6976.00,0.9238
6975.00,0.9320
6974.00,0.9401
6973.00,0.9482
6972.00,0.9563
6971.00,0.9644
6970.00,0.9727
6969.00,0.9814
6968.00,0.9902
6967.00,0.9988
6966.00,1.0071
6965.00,1.0150
6964.00,1.0227
6963.00,1.0301
6962.00,1.0372
6961.00,1.0443
6960.00,1.0515
6959.00,1.0588
6958.00,1.0659
6957.00,1.0725
6956.00,1.0787
6955.00,1.0845
6954.00,1.0901
6953.00,1.0954
6952.00,1.1005
6951.00,1.1054
6950.00,1.1099
6949.00,1.1141
6948.00,1.1176
6947.00,1.1207
6946.00,1.1237
6945.00,1.1268
6944.00,1.1298
6943.00,1.1321
6942.00,1.1339
6941.00,1.1355
6940.00,1.1370
6939.00,1.1380
6938.00,1.1383
6937.00,1.1382
6936.00,1.1383
6935.00,1.1385
6934.00,1.1386
6933.00,1.1381
6932.00,1.1369
6931.00,1.1354
6930.00,1.1340
6929.00,1.1324
6928.00,1.1303
6927.00,1.1274
6926.00,1.1239
6925.00,1.1204
6924.00,1.1169
6923.00,1.1134
6922.00,1.1098
6921.00,1.1058
6920.00,1.1015
6919.00,1.0966
6918.00,1.0911
6917.00,1.0848
6916.00,1.0780
6915.00,1.0708
6914.00,1.0637
6913.00,1.0568
6912.00,1.0497
6911.00,1.0425
6910.00,1.0353
6909.00,1.0280
6908.00,1.0204
6907.00,1.0124
6906.00,1.0041
6905.00,0.9956
6904.00,0.9871
6903.00,0.9784
6902.00,0.9696
6901.00,0.9604
6900.00,0.9508
6899.00,0.9410
6898.00,0.9312
6897.00,0.9217
6896.00,0.9124
6895.00,0.9031
6894.00,0.8939
6893.00,0.8850
6892.00,0.8763
6891.00,0.8677
6890.00,0.8590
6889.00,0.8502
6888.00,0.8416
6887.00,0.8331
6886.00,0.8251
6885.00,0.8174
6884.00,0.8098
6883.00,0.8022
6882.00,0.7949
6881.00,0.7880
6880.00,0.7817
6879.00,0.7759
6878.00,0.7705
6877.00,0.7655
6876.00,0.7608
6875.00,0.7564
6874.00,0.7524
6873.00,0.7488
6872.00,0.7457
6871.00,0.7430
6870.00,0.7410
6869.00,0.7396
6868.00,0.7387
6867.00,0.7380
6866.00,0.7374
6865.00,0.7373
6864.00,0.7378
6863.00,0.7387
6862.00,0.7402
6861.00,0.7420
6860.00,0.7442
6859.00,0.7469
6858.00,0.7502
6857.00,0.7541
6856.00,0.7585
6855.00,0.7632
6854.00,0.7683
6853.00,0.7737
6852.00,0.7794
6851.00,0.7853
6850.00,0.7912
6849.00,0.7975
6848.00,0.8043
6847.00,0.8115
6846.00,0.8192
6845.00,0.8271
6844.00,0.8350
6843.00,0.8431
6842.00,0.8513
6841.00,0.8598
6840.00,0.8684
6839.00,0.8772
6838.00,0.8860
6837.00,0.8949
6836.00,0.9038
6835.00,0.9127
6834.00,0.9217
6833.00,0.9307
6832.00,0.9398
6831.00,0.9489
6830.00,0.9581
6829.00,0.9672
6828.00,0.9759
6827.00,0.9845
6826.00,0.9931
6825.00,1.0018
6824.00,1.0106
6823.00,1.0194
6822.00,1.0281
6821.00,1.0366
6820.00,1.0448
6819.00,1.0525
6818.00,1.0597
6817.00,1.0669
6816.00,1.0743
6815.00,1.0816
6814.00,1.0888
6813.00,1.0959
6812.00,1.1029
6811.00,1.1097
6810.00,1.1163
6809.00,1.1224
6808.00,1.1278
6807.00,1.1329
6806.00,1.1379
6805.00,1.1429
6804.00,1.1476
6803.00,1.1519
6802.00,1.1557
6801.00,1.1593
6800.00,1.1627
6799.00,1.1659
6798.00,1.1689
6797.00,1.1716
6796.00,1.1738
6795.00,1.1756
6794.00,1.1772
6793.00,1.1787
6792.00,1.1798
6791.00,1.1803
6790.00,1.1804
6789.00,1.1801
6788.00,1.1794
6787.00,1.1782
6786.00,1.1765
6785.00,1.1747
6784.00,1.1726
6783.00,1.1703
6782.00,1.1679
6781.00,1.1656
6780.00,1.1631
6779.00,1.1601
6778.00,1.1565
6777.00,1.1524
6776.00,1.1478
6775.00,1.1426
6774.00,1.1371
6773.00,1.1317
6772.00,1.1262
6771.00,1.1205
6770.00,1.1145
6769.00,1.1083
6768.00,1.1016
6767.00,1.0943
6766.00,1.0865
6765.00,1.0786
6764.00,1.0705
6763.00,1.0622
6762.00,1.0537
6761.00,1.0453
6760.00,1.0368
6759.00,1.0280
6758.00,1.0189
6757.00,1.0099
6756.00,1.0008
6755.00,0.9914
6754.00,0.9816
6753.00,0.9716
6752.00,0.9616
6751.00,0.9516
6750.00,0.9415
6749.00,0.9315
6748.00,0.9217
6747.00,0.9121
6746.00,0.9025
6745.00,0.8929
6744.00,0.8835
6743.00,0.8745
6742.00,0.8658
6741.00,0.8573
6740.00,0.8490
6739.00,0.8408
6738.00,0.8329
6737.00,0.8252
6736.00,0.8179
6735.00,0.8109
6734.00,0.8045
6733.00,0.7987
6732.00,0.7934
6731.00,0.7885
6730.00,0.7841
6729.00,0.7801
6728.00,0.7766
6727.00,0.7735
6726.00,0.7708
6725.00,0.7687
6724.00,0.7671
6723.00,0.7658
6722.00,0.7651
6721.00,0.7651
6720.00,0.7657
6719.00,0.7668
6718.00,0.7684
6717.00,0.7706
6716.00,0.7733
6715.00,0.7764
6714.00,0.7799
6713.00,0.7839
6712.00,0.7882
6711.00,0.7930
6710.00,0.7982
6709.00,0.8038
6708.00,0.8097
6707.00,0.8161
6706.00,0.8228
6705.00,0.8298
6704.00,0.8371
6703.00,0.8446
6702.00,0.8522
6701.00,0.8600
6700.00,0.8679
6699.00,0.8760
6698.00,0.8845
6697.00,0.8934
6696.00,0.9025
6695.00,0.9118
6694.00,0.9210
6693.00,0.9301
6692.00,0.9390
6691.00,0.9477
6690.00,0.9560
6689.00,0.9643
6688.00,0.9726
6687.00,0.9811
6686.00,0.9898
6685.00,0.9987
6684.00,1.0076
6683.00,1.0162
6682.00,1.0247
6681.00,1.0330
6680.00,1.0414
6679.00,1.0497
6678.00,1.0577
6677.00,1.0656
6676.00,1.0731
6675.00,1.0804
6674.00,1.0875
6673.00,1.0943
6672.00,1.1009
6671.00,1.1074
6670.00,1.1139
6669.00,1.1202
6668.00,1.1261
6667.00,1.1316
6666.00,1.1367
6665.00,1.1417
6664.00,1.1465
6663.00,1.1508
6662.00,1.1547
6661.00,1.1584
6660.00,1.1620
6659.00,1.1656
6658.00,1.1691
6657.00,1.1724
6656.00,1.1754
6655.00,1.1777
6654.00,1.1791
6653.00,1.1794
6652.00,1.1790
6651.00,1.1782
6650.00,1.1776
6649.00,1.1773
6648.00,1.1773
6647.00,1.1772
6646.00,1.1766
6645.00,1.1755
6644.00,1.1738
6643.00,1.1717
6642.00,1.1690
6641.00,1.1658
6640.00,1.1624
6639.00,1.1588
6638.00,1.1549
6637.00,1.1510
6636.00,1.1468
6635.00,1.1422
6634.00,1.1371
6633.00,1.1317
6632.00,1.1260
6631.00,1.1198
6630.00,1.1134
6629.00,1.1067
6628.00,1.0998
6627.00,1.0926
6626.00,1.0849
6625.00,1.0769
6624.00,1.0687
6623.00,1.0603
6622.00,1.0516
6621.00,1.0429
6620.00,1.0342
6619.00,1.0254
6618.00,1.0164
6617.00,1.0070
6616.00,0.9975
6615.00,0.9877
6614.00,0.9777
6613.00,0.9676
6612.00,0.9576
6611.00,0.9478
6610.00,0.9382
6609.00,0.9287
6608.00,0.9192
6607.00,0.9096
6606.00,0.9000
6605.00,0.8905
6604.00,0.8809
6603.00,0.8714
6602.00,0.8621
6601.00,0.8532
6600.00,0.8449
6599.00,0.8369
6598.00,0.8291
6597.00,0.8215
6596.00,0.8141
6595.00,0.8070
6594.00,0.8000
6593.00,0.7934
6592.00,0.7870
6591.00,0.7812
6590.00,0.7759
6589.00,0.7711
6588.00,0.7666
6587.00,0.7626
6586.00,0.7589
6585.00,0.7558
6584.00,0.7531
6583.00,0.7507
6582.00,0.7488
6581.00,0.7474
6580.00,0.7466
6579.00,0.7464
6578.00,0.7468
6577.00,0.7478
6576.00,0.7493
6575.00,0.7512
6574.00,0.7536
6573.00,0.7566
6572.00,0.7601
6571.00,0.7640
6570.00,0.7682
6569.00,0.7728
6568.00,0.7780
6567.00,0.7836
6566.00,0.7895
6565.00,0.7958
6564.00,0.8025
6563.00,0.8095
6562.00,0.8169
6561.00,0.8246
6560.00,0.8324
6559.00,0.8404
6558.00,0.8486
6557.00,0.8575
6556.00,0.8666
6555.00,0.8759
6554.00,0.8851
6553.00,0.8943
6552.00,0.9034
6551.00,0.9123
6550.00,0.9212
6549.00,0.9301
6548.00,0.9393
6547.00,0.9489
6546.00,0.9588
6545.00,0.9687
6544.00,0.9783
6543.00,0.9875
6542.00,0.9966
6541.00,1.0056
6540.00,1.0147
6539.00,1.0237
6538.00,1.0326
6537.00,1.0415
6536.00,1.0503
6535.00,1.0590
6534.00,1.0674
6533.00,1.0754
6532.00,1.0833
6531.00,1.0913
6530.00,1.0992
6529.00,1.1067
6528.00,1.1138
6527.00,1.1207
6526.00,1.1275
6525.00,1.1343
6524.00,1.1407
6523.00,1.1466
6522.00,1.1523
6521.00,1.1578
6520.00,1.1630
6519.00,1.1677
6518.00,1.1719
6517.00,1.1759
6516.00,1.1799
6515.00,1.1835
6514.00,1.1867
6513.00,1.1893
6512.00,1.1916
6511.00,1.1937
6510.00,1.1959
6509.00,1.1983
6508.00,1.2006
6507.00,1.2024
6506.00,1.2036
6505.00,1.2042
6504.00,1.2041
6503.00,1.2033
6502.00,1.2019
6501.00,1.2001
6500.00,1.1983
6499.00,1.1964
6498.00,1.1944
6497.00,1.1922
6496.00,1.1899
6495.00,1.1872
6494.00,1.1841
6493.00,1.1806
6492.00,1.1766
6491.00,1.1723
6490.00,1.1674
6489.00,1.1620
6488.00,1.1559
6487.00,1.1495
6486.00,1.1430
6485.00,1.1364
6484.00,1.1296
6483.00,1.1226
6482.00,1.1155
6481.00,1.1082
6480.00,1.1006
6479.00,1.0924
6478.00,1.0838
6477.00,1.0750
6476.00,1.0660
6475.00,1.0568
6474.00,1.0472
6473.00,1.0374
6472.00,1.0275
6471.00,1.0174
6470.00,1.0072
6469.00,0.9969
6468.00,0.9864
6467.00,0.9758
6466.00,0.9654
6465.00,0.9551
6464.00,0.9446
6463.00,0.9340
6462.00,0.9234
6461.00,0.9130
6460.00,0.9028
6459.00,0.8926
6458.00,0.8825
6457.00,0.8726
6456.00,0.8629
6455.00,0.8535
6454.00,0.8443
6453.00,0.8354
6452.00,0.8270
6451.00,0.8191
6450.00,0.8116
6449.00,0.8045
6448.00,0.7977
6447.00,0.7913
6446.00,0.7853
6445.00,0.7797
6444.00,0.7746
6443.00,0.7702
6442.00,0.7664
6441.00,0.7633
6440.00,0.7607
6439.00,0.7585
6438.00,0.7567
6437.00,0.7555
6436.00,0.7549
6435.00,0.7549
6434.00,0.7556
6433.00,0.7568
6432.00,0.7586
6431.00,0.7609
6430.00,0.7636
6429.00,0.7668
6428.00,0.7703
6427.00,0.7744
6426.00,0.7791
6425.00,0.7845
6424.00,0.7903
6423.00,0.7964
6422.00,0.8029
6421.00,0.8099
6420.00,0.8171
6419.00,0.8245
6418.00,0.8320
6417.00,0.8398
6416.00,0.8480
6415.00,0.8565
6414.00,0.8651
6413.00,0.8737
6412.00,0.8824
6411.00,0.8911
6410.00,0.9001
6409.00,0.9093
6408.00,0.9187
6407.00,0.9282
6406.00,0.9379
6405.00,0.9478
6404.00,0.9575
6403.00,0.9670
6402.00,0.9764
6401.00,0.9858
6400.00,0.9952
6399.00,1.0044
6398.00,1.0136
6397.00,1.0229
6396.00,1.0320
6395.00,1.0409
6394.00,1.0495
6393.00,1.0580
6392.00,1.0661
6391.00,1.0739
6390.00,1.0814
6389.00,1.0889
6388.00,1.0966
6387.00,1.1042
6386.00,1.1115
6385.00,1.1185
6384.00,1.1249
6383.00,1.1306
6382.00,1.1360
6381.00,1.1413
6380.00,1.1467
6379.00,1.1520
6378.00,1.1574
6377.00,1.1625
6376.00,1.1671
6375.00,1.1712
6374.00,1.1748
6373.00,1.1779
6372.00,1.1806
6371.00,1.1829
6370.00,1.1850
6369.00,1.1870
6368.00,1.1887
6367.00,1.1898
6366.00,1.1905
6365.00,1.1909
6364.00,1.1912
6363.00,1.1909
6362.00,1.1902
6361.00,1.1891
6360.00,1.1879
6359.00,1.1864
6358.00,1.1845
6357.00,1.1822
6356.00,1.1795
6355.00,1.1764
6354.00,1.1730
6353.00,1.1693
6352.00,1.1652
6351.00,1.1607
6350.00,1.1561
6349.00,1.1512
6348.00,1.1461
6347.00,1.1407
6346.00,1.1350
6345.00,1.1292
6344.00,1.1231
6343.00,1.1168
6342.00,1.1103
6341.00,1.1038
6340.00,1.0970
6339.00,1.0898
6338.00,1.0824
6337.00,1.0750
6336.00,1.0677
6335.00,1.0602
6334.00,1.0525
6333.00,1.0446
6332.00,1.0367
6331.00,1.0286
6330.00,1.0200
6329.00,1.0107
6328.00,1.0009
6327.00,0.9908
6326.00,0.9804
6325.00,0.9698
6324.00,0.9588
6323.00,0.9475
6322.00,0.9360
6321.00,0.9245
6320.00,0.9129
6319.00,0.9013
6318.00,0.8898
6317.00,0.8787
6316.00,0.8678
6315.00,0.8571
6314.00,0.8466
6313.00,0.8364
6312.00,0.8264
6311.00,0.8166
6310.00,0.8073
6309.00,0.7986
6308.00,0.7905
6307.00,0.7829
6306.00,0.7757
6305.00,0.7689
6304.00,0.7627
6303.00,0.7571
6302.00,0.7519
6301.00,0.7472
6300.00,0.7430
6299.00,0.7393
6298.00,0.7361
6297.00,0.7335
6296.00,0.7313
6295.00,0.7297
6294.00,0.7288
6293.00,0.7287
6292.00,0.7292
6291.00,0.7302
6290.00,0.7318
6289.00,0.7338
6288.00,0.7363
6287.00,0.7393
6286.00,0.7429
6285.00,0.7469
6284.00,0.7514
6283.00,0.7565
6282.00,0.7622
6281.00,0.7684
6280.00,0.7749
6279.00,0.7818
6278.00,0.7890
6277.00,0.7966
6276.00,0.8044
6275.00,0.8123
6274.00,0.8206
6273.00,0.8293
6272.00,0.8382
6271.00,0.8472
6270.00,0.8564
6269.00,0.8657
6268.00,0.8750
6267.00,0.8845
6266.00,0.8942
6265.00,0.9043
6264.00,0.9146
6263.00,0.9248
6262.00,0.9349
6261.00,0.9449
6260.00,0.9548
6259.00,0.9647
6258.00,0.9747
6257.00,0.9847
6256.00,0.9946
6255.00,1.0043
6254.00,1.0138
6253.00,1.0232
6252.00,1.0323
6251.00,1.0413
6250.00,1.0504
6249.00,1.0596
6248.00,1.0688
6247.00,1.0774
6246.00,1.0854
6245.00,1.0930
6244.00,1.1005
6243.00,1.1076
6242.00,1.1144
6241.00,1.1210
6240.00,1.1275
6239.00,1.1341
6238.00,1.1404
6237.00,1.1464
6236.00,1.1521
6235.00,1.1579
6234.00,1.1637
6233.00,1.1693
6232.00,1.1745
6231.00,1.1793
6230.00,1.1838
6229.00,1.1880
6228.00,1.1914
6227.00,1.1939
6226.00,1.1960
6225.00,1.1980
6224.00,1.1998
6223.00,1.2010
6222.00,1.2019
6221.00,1.2026
6220.00,1.2030
6219.00,1.2028
6218.00,1.2022
6217.00,1.2017
6216.00,1.2013
6215.00,1.2009
6214.00,1.1999
6213.00,1.1983
6212.00,1.1963
6211.00,1.1939
6210.00,1.1910
6209.00,1.1876
6208.00,1.1836
6207.00,1.1793
6206.00,1.1747
6205.00,1.1698
6204.00,1.1644
6203.00,1.1585
6202.00,1.1524
6201.00,1.1462
6200.00,1.1397
6199.00,1.1327
6198.00,1.1253
6197.00,1.1176
6196.00,1.1096
6195.00,1.1015
6194.00,1.0933
6193.00,1.0851
6192.00,1.0765
6191.00,1.0674
6190.00,1.0578
6189.00,1.0481
6188.00,1.0383
6187.00,1.0281
6186.00,1.0177
6185.00,1.0070
6184.00,0.9962
6183.00,0.9852
6182.00,0.9740
6181.00,0.9626
6180.00,0.9512
6179.00,0.9399
6178.00,0.9287
6177.00,0.9175
6176.00,0.9064
6175.00,0.8952
6174.00,0.8840
6173.00,0.8728
6172.00,0.8617
6171.00,0.8509
6170.00,0.8404
6169.00,0.8302
6168.00,0.8203
6167.00,0.8109
6166.00,0.8020
6165.00,0.7935
6164.00,0.7853
6163.00,0.7774
6162.00,0.7698
6161.00,0.7628
6160.00,0.7563
6159.00,0.7503
6158.00,0.7448
6157.00,0.7399
6156.00,0.7355
6155.00,0.7317
6154.00,0.7286
6153.00,0.7262
6152.00,0.7245
6151.00,0.7233
6150.00,0.7229
6149.00,0.7230
6148.00,0.7238
6147.00,0.7251
6146.00,0.7269
6145.00,0.7294
6144.00,0.7325
6143.00,0.7363
6142.00,0.7406
6141.00,0.7456
6140.00,0.7510
6139.00,0.7568
6138.00,0.7631
6137.00,0.7697
6136.00,0.7767
6135.00,0.7840
6134.00,0.7916
6133.00,0.7995
6132.00,0.8078
6131.00,0.8164
6130.00,0.8252
6129.00,0.8342
6128.00,0.8434
6127.00,0.8528
6126.00,0.8624
6125.00,0.8721
6124.00,0.8821
6123.00,0.8921
6122.00,0.9022
6121.00,0.9124
6120.00,0.9225
6119.00,0.9327
6118.00,0.9429
6117.00,0.9530
6116.00,0.9630
6115.00,0.9729
6114.00,0.9828
6113.00,0.9927
6112.00,1.0026
6111.00,1.0123
6110.00,1.0219
6109.00,1.0314
6108.00,1.0405
6107.00,1.0495
6106.00,1.0582
6105.00,1.0669
6104.00,1.0753
6103.00,1.0837
6102.00,1.0918
6101.00,1.0996
6100.00,1.1069
6099.00,1.1138
6098.00,1.1205
6097.00,1.1272
6096.00,1.1335
6095.00,1.1393
6094.00,1.1447
6093.00,1.1500
6092.00,1.1552
6091.00,1.1601
6090.00,1.1646
6089.00,1.1686
6088.00,1.1721
6087.00,1.1750
6086.00,1.1774
6085.00,1.1796
6084.00,1.1816
6083.00,1.1836
6082.00,1.1854
6081.00,1.1871
6080.00,1.1883
6079.00,1.1889
6078.00,1.1889
6077.00,1.1886
6076.00,1.1878
6075.00,1.1868
6074.00,1.1857
6073.00,1.1845
6072.00,1.1832
6071.00,1.1812
6070.00,1.1786
6069.00,1.1755
6068.00,1.1721
6067.00,1.1685
6066.00,1.1647
6065.00,1.1607
6064.00,1.1565
6063.00,1.1519
6062.00,1.1465
6061.00,1.1406
6060.00,1.1342
6059.00,1.1279
6058.00,1.1216
6057.00,1.1152
6056.00,1.1085
6055.00,1.1012
6054.00,1.0937
6053.00,1.0861
6052.00,1.0782
6051.00,1.0698
6050.00,1.0611
6049.00,1.0521
6048.00,1.0430
6047.00,1.0334
6046.00,1.0236
6045.00,1.0137
6044.00,1.0038
6043.00,0.9936
6042.00,0.9831
6041.00,0.9722
6040.00,0.9613
6039.00,0.9502
6038.00,0.9392
6037.00,0.9282
6036.00,0.9172
6035.00,0.9061
6034.00,0.8949
6033.00,0.8836
6032.00,0.8723
6031.00,0.8611
6030.00,0.8501
6029.00,0.8395
6028.00,0.8291
6027.00,0.8190
6026.00,0.8091
6025.00,0.7992
6024.00,0.7896
6023.00,0.7801
6022.00,0.7710
6021.00,0.7625
6020.00,0.7547
6019.00,0.7476
6018.00,0.7410
6017.00,0.7348
6016.00,0.7291
6015.00,0.7239
6014.00,0.7192
6013.00,0.7152
6012.00,0.7118
6011.00,0.7091
6010.00,0.7072
6009.00,0.7059
6008.00,0.7052
6007.00,0.7049
6006.00,0.7053
6005.00,0.7063
6004.00,0.7080
6003.00,0.7102
6002.00,0.7131
6001.00,0.7167
6000.00,0.7209
5999.00,0.7258
5998.00,0.7311
5997.00,0.7369
5996.00,0.7431
5995.00,0.7497
5994.00,0.7569
5993.00,0.7645
5992.00,0.7724
5991.00,0.7806
5990.00,0.7892
5989.00,0.7980
5988.00,0.8071
5987.00,0.8163
5986.00,0.8257
5985.00,0.8354
5984.00,0.8453
5983.00,0.8553
5982.00,0.8655
5981.00,0.8759
5980.00,0.8865
5979.00,0.8971
5978.00,0.9076
5977.00,0.9183
5976.00,0.9290
5975.00,0.9398
5974.00,0.9505
5973.00,0.9613
5972.00,0.9720
5971.00,0.9827
5970.00,0.9934
5969.00,1.0039
5968.00,1.0142
5967.00,1.0243
5966.00,1.0344
5965.00,1.0444
5964.00,1.0543
5963.00,1.0639
5962.00,1.0732
5961.00,1.0824
5960.00,1.0914
5959.00,1.1001
5958.00,1.1085
5957.00,1.1169
5956.00,1.1250
5955.00,1.1328
5954.00,1.1401
5953.00,1.1467
5952.00,1.1527
5951.00,1.1583
5950.00,1.1635
5949.00,1.1686
5948.00,1.1736
5947.00,1.1783
5946.00,1.1826
5945.00,1.1865
5944.00,1.1899
5943.00,1.1928
5942.00,1.1953
5941.00,1.1974
5940.00,1.1993
5939.00,1.2011
5938.00,1.2030
5937.00,1.2046
5936.00,1.2061
5935.00,1.2073
5934.00,1.2082
5933.00,1.2087
5932.00,1.2086
5931.00,1.2079
5930.00,1.2066
5929.00,1.2048
5928.00,1.2023
5927.00,1.1993
5926.00,1.1962
5925.00,1.1932
5924.00,1.1901
5923.00,1.1869
5922.00,1.1833
5921.00,1.1795
5920.00,1.1752
5919.00,1.1704
5918.00,1.1650
5917.00,1.1592
5916.00,1.1530
5915.00,1.1464
5914.00,1.1395
5913.00,1.1324
5912.00,1.1248
5911.00,1.1169
5910.00,1.1087
5909.00,1.1001
5908.00,1.0911
5907.00,1.0817
5906.00,1.0719
5905.00,1.0621
5904.00,1.0521
5903.00,1.0420
5902.00,1.0314
5901.00,1.0205
5900.00,1.0093
5899.00,0.9979
5898.00,0.9863
5897.00,0.9744
5896.00,0.9623
5895.00,0.9501
5894.00,0.9381
5893.00,0.9262
5892.00,0.9144
5891.00,0.9026
5890.00,0.8909
5889.00,0.8793
5888.00,0.8677
5887.00,0.8559
5886.00,0.8442
5885.00,0.8326
5884.00,0.8213
5883.00,0.8102
5882.00,0.7996
5881.00,0.7895
5880.00,0.7798
5879.00,0.7705
5878.00,0.7617
5877.00,0.7533
5876.00,0.7454
5875.00,0.7379
5874.00,0.7311
5873.00,0.7251
5872.00,0.7196
5871.00,0.7147
5870.00,0.7104
5869.00,0.7069
5868.00,0.7040
5867.00,0.7016
5866.00,0.6998
5865.00,0.6988
5864.00,0.6986
5863.00,0.6990
5862.00,0.7002
5861.00,0.7022
5860.00,0.7048
5859.00,0.7081
5858.00,0.7121
5857.00,0.7167
5856.00,0.7220
5855.00,0.7279
5854.00,0.7343
5853.00,0.7411
5852.00,0.7484
5851.00,0.7560
5850.00,0.7639
5849.00,0.7723
5848.00,0.7812
5847.00,0.7903
5846.00,0.7996
5845.00,0.8093
5844.00,0.8194
5843.00,0.8298
5842.00,0.8404
5841.00,0.8512
5840.00,0.8620
5839.00,0.8728
5838.00,0.8837
5837.00,0.8946
5836.00,0.9054
5835.00,0.9163
5834.00,0.9273
5833.00,0.9384
5832.00,0.9493
5831.00,0.9600
5830.00,0.9704
5829.00,0.9809
5828.00,0.9912
5827.00,1.0013
5826.00,1.0114
5825.00,1.0215
5824.00,1.0316
5823.00,1.0414
5822.00,1.0510
5821.00,1.0603
5820.00,1.0694
5819.00,1.0781
5818.00,1.0866
5817.00,1.0949
5816.00,1.1031
5815.00,1.1112
5814.00,1.1192
5813.00,1.1270
5812.00,1.1345
5811.00,1.1415
5810.00,1.1480
5809.00,1.1543
5808.00,1.1603
5807.00,1.1662
5806.00,1.1719
5805.00,1.1775
5804.00,1.1830
5803.00,1.1878
5802.00,1.1919
5801.00,1.1954
5800.00,1.1985
5799.00,1.2014
5798.00,1.2039
5797.00,1.2063
5796.00,1.2084
5795.00,1.2103
5794.00,1.2117
5793.00,1.2128
5792.00,1.2135
5791.00,1.2140
5790.00,1.2143
5789.00,1.2144
5788.00,1.2141
5787.00,1.2133
5786.00,1.2118
5785.00,1.2098
5784.00,1.2073
5783.00,1.2044
5782.00,1.2010
5781.00,1.1973
5780.00,1.1934
5779.00,1.1893
5778.00,1.1848
5777.00,1.1802
5776.00,1.1753
5775.00,1.1699
5774.00,1.1640
5773.00,1.1575
5772.00,1.1504
5771.00,1.1429
5770.00,1.1351
5769.00,1.1272
5768.00,1.1194
5767.00,1.1115
5766.00,1.1033
5765.00,1.0948
5764.00,1.0858
5763.00,1.0763
5762.00,1.0663
5761.00,1.0560
5760.00,1.0455
5759.00,1.0348
5758.00,1.0239
5757.00,1.0126
5756.00,1.0012
5755.00,0.9895
5754.00,0.9777
5753.00,0.9656
5752.00,0.9534
5751.00,0.9412
5750.00,0.9290
5749.00,0.9168
5748.00,0.9045
5747.00,0.8922
5746.00,0.8798
5745.00,0.8674
5744.00,0.8550
5743.00,0.8427
5742.00,0.8307
5741.00,0.8190
5740.00,0.8076
5739.00,0.7965
5738.00,0.7857
5737.00,0.7754
5736.00,0.7654
5735.00,0.7559
5734.00,0.7467
5733.00,0.7382
5732.00,0.7302
5731.00,0.7227
5730.00,0.7158
5729.00,0.7095
5728.00,0.7038
5727.00,0.6988
5726.00,0.6945
5725.00,0.6910
5724.00,0.6882
5723.00,0.6862
5722.00,0.6851
5721.00,0.6846
5720.00,0.6848
5719.00,0.6856
5718.00,0.6872
5717.00,0.6894
5716.00,0.6922
5715.00,0.6957
5714.00,0.6999
5713.00,0.7047
5712.00,0.7101
5711.00,0.7159
5710.00,0.7223
5709.00,0.7291
5708.00,0.7364
5707.00,0.7442
5706.00,0.7525
5705.00,0.7612
5704.00,0.7704
5703.00,0.7798
5702.00,0.7894
5701.00,0.7992
5700.00,0.8094
5699.00,0.8197
5698.00,0.8303
5697.00,0.8411
5696.00,0.8520
5695.00,0.8631
5694.00,0.8743
5693.00,0.8856
5692.00,0.8969
5691.00,0.9082
5690.00,0.9194
5689.00,0.9307
5688.00,0.9420
5687.00,0.9534
5686.00,0.9648
5685.00,0.9763
5684.00,0.9878
5683.00,0.9990
5682.00,1.0101
5681.00,1.0209
5680.00,1.0315
5679.00,1.0419
5678.00,1.0521
5677.00,1.0621
5676.00,1.0720
5675.00,1.0817
5674.00,1.0912
5673.00,1.1003
5672.00,1.1093
5671.00,1.1179
5670.00,1.1261
5669.00,1.1340
5668.00,1.1417
5667.00,1.1493
5666.00,1.1564
5665.00,1.1632
5664.00,1.1696
5663.00,1.1756
5662.00,1.1813
5661.00,1.1868
5660.00,1.1921
5659.00,1.1972
5658.00,1.2018
5657.00,1.2058
5656.00,1.2093
5655.00,1.2122
5654.00,1.2148
5653.00,1.2170
5652.00,1.2189
5651.00,1.2207
5650.00,1.2223
5649.00,1.2236
5648.00,1.2244
5647.00,1.2246
5646.00,1.2244
5645.00,1.2238
5644.00,1.2230
5643.00,1.2219
5642.00,1.2204
5641.00,1.2185
5640.00,1.2163
5639.00,1.2135
5638.00,1.2103
5637.00,1.2068
5636.00,1.2031
5635.00,1.1992
5634.00,1.1949
5633.00,1.1902
5632.00,1.1851
5631.00,1.1796
5630.00,1.1738
5629.00,1.1676
5628.00,1.1609
5627.00,1.1535
5626.00,1.1456
5625.00,1.1373
5624.00,1.1287
5623.00,1.1198
5622.00,1.1106
5621.00,1.1012
5620.00,1.0916
5619.00,1.0817
5618.00,1.0714
5617.00,1.0607
5616.00,1.0496
5615.00,1.0381
5614.00,1.0265
5613.00,1.0146
5612.00,1.0026
5611.00,0.9902
5610.00,0.9776
5609.00,0.9648
5608.00,0.9516
5607.00,0.9384
5606.00,0.9253
5605.00,0.9123
5604.00,0.8994
5603.00,0.8865
5602.00,0.8736
5601.00,0.8608
5600.00,0.8479
5599.00,0.8351
5598.00,0.8225
5597.00,0.8103
5596.00,0.7986
5595.00,0.7872
5594.00,0.7763
5593.00,0.7657
5592.00,0.7556
5591.00,0.7459
5590.00,0.7367
5589.00,0.7282
5588.00,0.7204
5587.00,0.7133
5586.00,0.7069
5585.00,0.7012
5584.00,0.6961
5583.00,0.6917
5582.00,0.6880
5581.00,0.6852
5580.00,0.6832
5579.00,0.6820
5578.00,0.6815
5577.00,0.6818
5576.00,0.6829
5575.00,0.6846
5574.00,0.6871
5573.00,0.6904
5572.00,0.6944
5571.00,0.6992
5570.00,0.7048
5569.00,0.7111
5568.00,0.7179
5567.00,0.7253
5566.00,0.7332
5565.00,0.7415
5564.00,0.7503
5563.00,0.7595
5562.00,0.7692
5561.00,0.7793
5560.00,0.7898
5559.00,0.8006
5558.00,0.8116
5557.00,0.8228
5556.00,0.8342
5555.00,0.8456
5554.00,0.8571
5553.00,0.8687
5552.00,0.8806
5551.00,0.8925
5550.00,0.9047
5549.00,0.9170
5548.00,0.9294
5547.00,0.9419
5546.00,0.9544
5545.00,0.9667
5544.00,0.9789
5543.00,0.9909
5542.00,1.0026
5541.00,1.0142
5540.00,1.0256
5539.00,1.0369
5538.00,1.0481
5537.00,1.0592
5536.00,1.0701
5535.00,1.0808
5534.00,1.0912
5533.00,1.1012
5532.00,1.1111
5531.00,1.1208
5530.00,1.1303
5529.00,1.1394
5528.00,1.1481
5527.00,1.1564
5526.00,1.1643
5525.00,1.1721
5524.00,1.1795
5523.00,1.1866
5522.00,1.1934
5521.00,1.1996
5520.00,1.2052
5519.00,1.2104
5518.00,1.2154
5517.00,1.2203
5516.00,1.2251
5515.00,1.2297
5514.00,1.2338
5513.00,1.2373
5512.00,1.2401
5511.00,1.2422
5510.00,1.2440
5509.00,1.2455
5508.00,1.2469
5507.00,1.2481
5506.00,1.2491
5505.00,1.2496
5504.00,1.2496
5503.00,1.2489
5502.00,1.2478
5501.00,1.2464
5500.00,1.2447
5499.00,1.2427
5498.00,1.2405
5497.00,1.2380
5496.00,1.2351
5495.00,1.2316
5494.00,1.2274
5493.00,1.2230
5492.00,1.2184
5491.00,1.2137
5490.00,1.2085
5489.00,1.2029
5488.00,1.1968
5487.00,1.1902
5486.00,1.1833
5485.00,1.1760
5484.00,1.1684
5483.00,1.1602
5482.00,1.1515
5481.00,1.1422
5480.00,1.1326
5479.00,1.1230
5478.00,1.1130
5477.00,1.1026
5476.00,1.0918
5475.00,1.0806
5474.00,1.0691
5473.00,1.0574
5472.00,1.0455
5471.00,1.0333
5470.00,1.0208
5469.00,1.0080
5468.00,0.9949
5467.00,0.9816
5466.00,0.9681
5465.00,0.9544
5464.00,0.9406
5463.00,0.9265
5462.00,0.9124
5461.00,0.8984
5460.00,0.8845
5459.00,0.8707
5458.00,0.8570
5457.00,0.8433
5456.00,0.8299
5455.00,0.8167
5454.00,0.8040
5453.00,0.7916
5452.00,0.7795
5451.00,0.7677
5450.00,0.7563
5449.00,0.7455
5448.00,0.7352
5447.00,0.7255
5446.00,0.7165
5445.00,0.7083
5444.00,0.7009
5443.00,0.6942
5442.00,0.6882
5441.00,0.6829
5440.00,0.6786
5439.00,0.6752
5438.00,0.6728
5437.00,0.6711
5436.00,0.6701
5435.00,0.6699
5434.00,0.6706
5433.00,0.6724
5432.00,0.6750
5431.00,0.6783
5430.00,0.6823
5429.00,0.6870
5428.00,0.6926
5427.00,0.6990
5426.00,0.7061
5425.00,0.7137
5424.00,0.7219
5423.00,0.7305
5422.00,0.7396
5421.00,0.7490
5420.00,0.7588
5419.00,0.7688
5418.00,0.7793
5417.00,0.7901
5416.00,0.8012
5415.00,0.8126
5414.00,0.8244
5413.00,0.8366
5412.00,0.8491
5411.00,0.8620
5410.00,0.8751
5409.00,0.8884
5408.00,0.9016
5407.00,0.9148
5406.00,0.9279
5405.00,0.9408
5404.00,0.9536
5403.00,0.9664
5402.00,0.9793
5401.00,0.9921
5400.00,1.0046
5399.00,1.0170
5398.00,1.0293
5397.00,1.0413
5396.00,1.0532
5395.00,1.0648
5394.00,1.0764
5393.00,1.0880
5392.00,1.0995
5391.00,1.1107
5390.00,1.1216
5389.00,1.1319
5388.00,1.1418
5387.00,1.1513
5386.00,1.1607
5385.00,1.1700
5384.00,1.1791
5383.00,1.1876
5382.00,1.1957
5381.00,1.2034
5380.00,1.2105
5379.00,1.2173
5378.00,1.2238
5377.00,1.2301
5376.00,1.2360
5375.00,1.2413
5374.00,1.2463
5373.00,1.2511
5372.00,1.2556
5371.00,1.2599
5370.00,1.2639
5369.00,1.2675
5368.00,1.2706
5367.00,1.2731
5366.00,1.2751
5365.00,1.2766
5364.00,1.2779
5363.00,1.2788
5362.00,1.2793
5361.00,1.2792
5360.00,1.2788
5359.00,1.2781
5358.00,1.2771
5357.00,1.2758
5356.00,1.2740
5355.00,1.2717
5354.00,1.2691
5353.00,1.2662
5352.00,1.2630
5351.00,1.2592
5350.00,1.2548
5349.00,1.2499
5348.00,1.2447
5347.00,1.2394
5346.00,1.2336
5345.00,1.2273
5344.00,1.2205
5343.00,1.2134
5342.00,1.2061
5341.00,1.1984
5340.00,1.1904
5339.00,1.1819
5338.00,1.1729
5337.00,1.1636
5336.00,1.1540
5335.00,1.1439
5334.00,1.1333
5333.00,1.1222
5332.00,1.1110
5331.00,1.0997
5330.00,1.0882
5329.00,1.0763
5328.00,1.0640
5327.00,1.0513
5326.00,1.0382
5325.00,1.0248
5324.00,1.0112
5323.00,0.9973
5322.00,0.9832
5321.00,0.9692
5320.00,0.9551
5319.00,0.9410
5318.00,0.9269
5317.00,0.9127
5316.00,0.8984
5315.00,0.8840
5314.00,0.8697
5313.00,0.8556
5312.00,0.8418
5311.00,0.8285
5310.00,0.8156
5309.00,0.8031
5308.00,0.7909
5307.00,0.7792
5306.00,0.7681
5305.00,0.7577
5304.00,0.7479
5303.00,0.7389
5302.00,0.7306
5301.00,0.7230
5300.00,0.7162
5299.00,0.7102
5298.00,0.7049
5297.00,0.7005
5296.00,0.6969
5295.00,0.6941
5294.00,0.6924
5293.00,0.6917
5292.00,0.6918
5291.00,0.6927
5290.00,0.6945
5289.00,0.6973
5288.00,0.7008
5287.00,0.7051
5286.00,0.7103
5285.00,0.7164
5284.00,0.7232
5283.00,0.7307
5282.00,0.7387
5281.00,0.7473
5280.00,0.7564
5279.00,0.7661
5278.00,0.7763
5277.00,0.7871
5276.00,0.7982
5275.00,0.8097
5274.00,0.8214
5273.00,0.8334
5272.00,0.8457
5271.00,0.8580
5270.00,0.8706
5269.00,0.8833
5268.00,0.8962
5267.00,0.9092
5266.00,0.9223
5265.00,0.9355
5264.00,0.9489
5263.00,0.9624
5262.00,0.9760
5261.00,0.9896
5260.00,1.0030
5259.00,1.0164
5258.00,1.0295
5257.00,1.0424
5256.00,1.0549
5255.00,1.0672
5254.00,1.0794
5253.00,1.0916
5252.00,1.1036
5251.00,1.1153
5250.00,1.1266
5249.00,1.1375
5248.00,1.1482
5247.00,1.1587
5246.00,1.1690
5245.00,1.1790
5244.00,1.1887
5243.00,1.1982
5242.00,1.2076
5241.00,1.2165
5240.00,1.2250
5239.00,1.2329
5238.00,1.2403
5237.00,1.2475
5236.00,1.2544
5235.00,1.2611
5234.00,1.2674
5233.00,1.2732
5232.00,1.2783
5231.00,1.2829
5230.00,1.2870
5229.00,1.2905
5228.00,1.2937
5227.00,1.2965
5226.00,1.2993
5225.00,1.3021
5224.00,1.3047
5223.00,1.3069
5222.00,1.3086
5221.00,1.3097
5220.00,1.3103
5219.00,1.3104
5218.00,1.3103
5217.00,1.3099
5216.00,1.3089
5215.00,1.3074
5214.00,1.3056
5213.00,1.3035
5212.00,1.3011
5211.00,1.2983
5210.00,1.2950
5209.00,1.2913
5208.00,1.2871
5207.00,1.2825
5206.00,1.2776
5205.00,1.2724
5204.00,1.2669
5203.00,1.2609
5202.00,1.2545
5201.00,1.2479
5200.00,1.2410
5199.00,1.2338
5198.00,1.2260
5197.00,1.2177
5196.00,1.2089
5195.00,1.1998
5194.00,1.1904
5193.00,1.1807
5192.00,1.1704
5191.00,1.1596
5190.00,1.1482
5189.00,1.1363
5188.00,1.1241
5187.00,1.1116
5186.00,1.0987
5185.00,1.0854
5184.00,1.0716
5183.00,1.0574
5182.00,1.0429
5181.00,1.0282
5180.00,1.0133
5179.00,0.9982
5178.00,0.9829
5177.00,0.9675
5176.00,0.9520
5175.00,0.9365
5174.00,0.9210
5173.00,0.9057
5172.00,0.8905
5171.00,0.8754
5170.00,0.8605
5169.00,0.8458
5168.00,0.8315
5167.00,0.8175
5166.00,0.8039
5165.00,0.7909
5164.00,0.7785
5163.00,0.7666
5162.00,0.7555
5161.00,0.7452
5160.00,0.7356
5159.00,0.7267
5158.00,0.7186
5157.00,0.7113
5156.00,0.7047
5155.00,0.6991
5154.00,0.6944
5153.00,0.6908
5152.00,0.6880
5151.00,0.6862
5150.00,0.6853
5149.00,0.6854
5148.00,0.6864
5147.00,0.6883
5146.00,0.6912
5145.00,0.6950
5144.00,0.6997
5143.00,0.7052
5142.00,0.7114
5141.00,0.7185
5140.00,0.7263
5139.00,0.7349
5138.00,0.7441
5137.00,0.7539
5136.00,0.7643
5135.00,0.7751
5134.00,0.7864
5133.00,0.7980
5132.00,0.8101
5131.00,0.8225
5130.00,0.8353
5129.00,0.8484
5128.00,0.8619
5127.00,0.8756
5126.00,0.8895
5125.00,0.9035
5124.00,0.9176
5123.00,0.9316
5122.00,0.9457
5121.00,0.9599
5120.00,0.9741
5119.00,0.9883
5118.00,1.0026
5117.00,1.0167
5116.00,1.0306
5115.00,1.0444
5114.00,1.0581
5113.00,1.0717
5112.00,1.0852
5111.00,1.0984
5110.00,1.1114
5109.00,1.1240
5108.00,1.1364
5107.00,1.1485
5106.00,1.1605
5105.00,1.1722
5104.00,1.1836
5103.00,1.1946
5102.00,1.2053
5101.00,1.2156
5100.00,1.2256
5099.00,1.2351
5098.00,1.2441
5097.00,1.2526
5096.00,1.2607
5095.00,1.2685
5094.00,1.2760
5093.00,1.2833
5092.00,1.2903
5091.00,1.2969
5090.00,1.3033
5089.00,1.3093
5088.00,1.3150
5087.00,1.3203
5086.00,1.3250
5085.00,1.3290
5084.00,1.3322
5083.00,1.3348
5082.00,1.3369
5081.00,1.3388
5080.00,1.3406
5079.00,1.3420
5078.00,1.3431
5077.00,1.3438
5076.00,1.3443
5075.00,1.3444
5074.00,1.3443
5073.00,1.3439
5072.00,1.3431
5071.00,1.3417
5070.00,1.3398
5069.00,1.3374
5068.00,1.3344
5067.00,1.3310
5066.00,1.3272
5065.00,1.3231
5064.00,1.3187
5063.00,1.3141
5062.00,1.3090
5061.00,1.3034
5060.00,1.2973
5059.00,1.2906
5058.00,1.2837
5057.00,1.2764
5056.00,1.2689
5055.00,1.2608
5054.00,1.2523
5053.00,1.2434
5052.00,1.2339
5051.00,1.2240
5050.00,1.2135
5049.00,1.2026
5048.00,1.1912
5047.00,1.1794
5046.00,1.1673
5045.00,1.1550
5044.00,1.1424
5043.00,1.1293
5042.00,1.1157
5041.00,1.1016
5040.00,1.0872
5039.00,1.0726
5038.00,1.0577
5037.00,1.0427
5036.00,1.0273
5035.00,1.0116
5034.00,0.9958
5033.00,0.9799
5032.00,0.9639
5031.00,0.9480
5030.00,0.9320
5029.00,0.9162
5028.00,0.9004
5027.00,0.8848
5026.00,0.8694
5025.00,0.8543
5024.00,0.8396
5023.00,0.8253
5022.00,0.8115
5021.00,0.7983
5020.00,0.7857
5019.00,0.7738
5018.00,0.7625
5017.00,0.7521
5016.00,0.7425
5015.00,0.7338
5014.00,0.7261
5013.00,0.7192
5012.00,0.7134
5011.00,0.7085
5010.00,0.7046
5009.00,0.7018
5008.00,0.7001
5007.00,0.6994
5006.00,0.6999
5005.00,0.7014
5004.00,0.7039
5003.00,0.7073
5002.00,0.7117
5001.00,0.7170
5000.00,0.7231
4999.00,0.7300
4998.00,0.7377
4997.00,0.7461
4996.00,0.7553
4995.00,0.7651
4994.00,0.7756
4993.00,0.7866
4992.00,0.7982
4991.00,0.8101
4990.00,0.8224
4989.00,0.8351
4988.00,0.8481
4987.00,0.8613
4986.00,0.8749
4985.00,0.8888
4984.00,0.9029
4983.00,0.9172
4982.00,0.9318
4981.00,0.9468
4980.00,0.9618
4979.00,0.9769
4978.00,0.9919
4977.00,1.0068
4976.00,1.0216
4975.00,1.0363
4974.00,1.0509
4973.00,1.0653
4972.00,1.0796
4971.00,1.0937
4970.00,1.1075
4969.00,1.1211
4968.00,1.1345
4967.00,1.1478
4966.00,1.1608
4965.00,1.1738
4964.00,1.1864
4963.00,1.1988
4962.00,1.2108
4961.00,1.2223
4960.00,1.2333
4959.00,1.2437
4958.00,1.2537
4957.00,1.2634
4956.00,1.2728
4955.00,1.2819
4954.00,1.2908
4953.00,1.2992
4952.00,1.3071
4951.00,1.3145
4950.00,1.3215
4949.00,1.3281
4948.00,1.3344
4947.00,1.3401
4946.00,1.3453
4945.00,1.3501
4944.00,1.3546
4943.00,1.3588
4942.00,1.3628
4941.00,1.3664
4940.00,1.3695
4939.00,1.3721
4938.00,1.3742
4937.00,1.3757
4936.00,1.3768
4935.00,1.3776
4934.00,1.3781
4933.00,1.3782
4932.00,1.3779
4931.00,1.3772
4930.00,1.3761
4929.00,1.3745
4928.00,1.3725
4927.00,1.3699
4926.00,1.3668
4925.00,1.3635
4924.00,1.3601
4923.00,1.3564
4922.00,1.3524
4921.00,1.3478
4920.00,1.3424
4919.00,1.3363
4918.00,1.3297
4917.00,1.3228
4916.00,1.3157
4915.00,1.3083
4914.00,1.3005
4913.00,1.2924
4912.00,1.2840
4911.00,1.2750
4910.00,1.2654
4909.00,1.2553
4908.00,1.2446
4907.00,1.2334
4906.00,1.2220
4905.00,1.2103
4904.00,1.1982
4903.00,1.1858
4902.00,1.1728
4901.00,1.1592
4900.00,1.1451
4899.00,1.1305
4898.00,1.1156
4897.00,1.1005
4896.00,1.0850
4895.00,1.0692
4894.00,1.0531
4893.00,1.0368
4892.00,1.0203
4891.00,1.0037
4890.00,0.9869
4889.00,0.9700
4888.00,0.9531
4887.00,0.9362
4886.00,0.9194
4885.00,0.9028
4884.00,0.8866
4883.00,0.8706
4882.00,0.8549
4881.00,0.8397
4880.00,0.8249
4879.00,0.8108
4878.00,0.7972
4877.00,0.7843
4876.00,0.7721
4875.00,0.7605
4874.00,0.7497
4873.00,0.7398
4872.00,0.7308
4871.00,0.7228
4870.00,0.7159
4869.00,0.7101
4868.00,0.7053
4867.00,0.7015
4866.00,0.6987
4865.00,0.6971
4864.00,0.6967
4863.00,0.6975
4862.00,0.6993
4861.00,0.7023
4860.00,0.7062
4859.00,0.7112
4858.00,0.7172
4857.00,0.7242
4856.00,0.7322
4855.00,0.7410
4854.00,0.7505
4853.00,0.7607
4852.00,0.7716
4851.00,0.7832
4850.00,0.7954
4849.00,0.8082
4848.00,0.8216
4847.00,0.8354
4846.00,0.8495
4845.00,0.8639
4844.00,0.8785
4843.00,0.8935
4842.00,0.9086
4841.00,0.9241
4840.00,0.9397
4839.00,0.9553
4838.00,0.9709
4837.00,0.9865
4836.00,1.0021
4835.00,1.0178
4834.00,1.0336
4833.00,1.0494
4832.00,1.0651
4831.00,1.0807
4830.00,1.0959
4829.00,1.1109
4828.00,1.1256
4827.00,1.1400
4826.00,1.1542
4825.00,1.1682
4824.00,1.1819
4823.00,1.1953
4822.00,1.2085
4821.00,1.2215
4820.00,1.2343
4819.00,1.2468
4818.00,1.2588
4817.00,1.2703
4816.00,1.2813
4815.00,1.2918
4814.00,1.3019
4813.00,1.3118
4812.00,1.3215
4811.00,1.3307
4810.00,1.3394
4809.00,1.3477
4808.00,1.3553
4807.00,1.3625
4806.00,1.3692
4805.00,1.3753
4804.00,1.3810
4803.00,1.3864
4802.00,1.3914
4801.00,1.3962
4800.00,1.4005
4799.00,1.4043
4798.00,1.4076
4797.00,1.4105
4796.00,1.4130
4795.00,1.4152
4794.00,1.4169
4793.00,1.4182
4792.00,1.4190
4791.00,1.4195
4790.00,1.4196
4789.00,1.4194
4788.00,1.4188
4787.00,1.4178
4786.00,1.4163
4785.00,1.4144
4784.00,1.4119
4783.00,1.4089
4782.00,1.4055
4781.00,1.4016
4780.00,1.3974
4779.00,1.3929
4778.00,1.3880
4777.00,1.3826
4776.00,1.3768
4775.00,1.3707
4774.00,1.3641
4773.00,1.3572
4772.00,1.3501
4771.00,1.3425
4770.00,1.3345
4769.00,1.3260
4768.00,1.3168
4767.00,1.3069
4766.00,1.2964
4765.00,1.2854
4764.00,1.2740
4763.00,1.2623
4762.00,1.2502
4761.00,1.2377
4760.00,1.2247
4759.00,1.2111
4758.00,1.1970
4757.00,1.1826
4756.00,1.1678
4755.00,1.1526
4754.00,1.1370
4753.00,1.1208
4752.00,1.1043
4751.00,1.0874
4750.00,1.0702
4749.00,1.0527
4748.00,1.0351
4747.00,1.0173
4746.00,0.9994
4745.00,0.9815
4744.00,0.9636
4743.00,0.9458
4742.00,0.9282
4741.00,0.9107
4740.00,0.8934
4739.00,0.8764
4738.00,0.8598
4737.00,0.8437
4736.00,0.8283
4735.00,0.8135
4734.00,0.7994
4733.00,0.7861
4732.00,0.7737
4731.00,0.7621
4730.00,0.7516
4729.00,0.7421
4728.00,0.7337
4727.00,0.7264
4726.00,0.7203
4725.00,0.7154
4724.00,0.7116
4723.00,0.7091
4722.00,0.7078
4721.00,0.7077
4720.00,0.7089
4719.00,0.7113
4718.00,0.7150
4717.00,0.7198
4716.00,0.7258
4715.00,0.7328
4714.00,0.7408
4713.00,0.7497
4712.00,0.7595
4711.00,0.7702
4710.00,0.7816
4709.00,0.7937
4708.00,0.8065
4707.00,0.8198
4706.00,0.8337
4705.00,0.8482
4704.00,0.8631
4703.00,0.8783
4702.00,0.8938
4701.00,0.9096
4700.00,0.9256
4699.00,0.9417
4698.00,0.9581
4697.00,0.9745
4696.00,0.9911
4695.00,1.0078
4694.00,1.0245
4693.00,1.0412
4692.00,1.0578
4691.00,1.0743
4690.00,1.0906
4689.00,1.1068
4688.00,1.1227
4687.00,1.1384
4686.00,1.1538
4685.00,1.1691
4684.00,1.1841
4683.00,1.1989
4682.00,1.2134
4681.00,1.2276
4680.00,1.2415
4679.00,1.2551
4678.00,1.2683
4677.00,1.2812
4676.00,1.2936
4675.00,1.3055
4674.00,1.3169
4673.00,1.3276
4672.00,1.3379
4671.00,1.3478
4670.00,1.3574
4669.00,1.3667
4668.00,1.3758
4667.00,1.3843
4666.00,1.3923
4665.00,1.3996
4664.00,1.4062
4663.00,1.4124
4662.00,1.4183
4661.00,1.4242
4660.00,1.4297
4659.00,1.4347
4658.00,1.4390
4657.00,1.4429
4656.00,1.4463
4655.00,1.4494
4654.00,1.4521
4653.00,1.4544
4652.00,1.4562
4651.00,1.4575
4650.00,1.4581
4649.00,1.4583
4648.00,1.4581
4647.00,1.4577
4646.00,1.4571
4645.00,1.4561
4644.00,1.4545
4643.00,1.4523
4642.00,1.4495
4641.00,1.4462
4640.00,1.4428
4639.00,1.4392
4638.00,1.4354
4637.00,1.4311
4636.00,1.4262
4635.00,1.4206
4634.00,1.4145
4633.00,1.4079
4632.00,1.4009
4631.00,1.3935
4630.00,1.3856
4629.00,1.3773
4628.00,1.3687
4627.00,1.3598
4626.00,1.3503
4625.00,1.3404
4624.00,1.3298
4623.00,1.3188
4622.00,1.3073
4621.00,1.2955
4620.00,1.2832
4619.00,1.2705
4618.00,1.2573
4617.00,1.2439
4616.00,1.2302
4615.00,1.2163
4614.00,1.2020
4613.00,1.1872
4612.00,1.1718
4611.00,1.1558
4610.00,1.1394
4609.00,1.1226
4608.00,1.1056
4607.00,1.0884
4606.00,1.0708
4605.00,1.0529
4604.00,1.0346
4603.00,1.0162
4602.00,0.9976
4601.00,0.9790
4600.00,0.9604
4599.00,0.9419
4598.00,0.9237
4597.00,0.9056
4596.00,0.8879
4595.00,0.8706
4594.00,0.8540
4593.00,0.8379
4592.00,0.8226
4591.00,0.8081
4590.00,0.7944
4589.00,0.7817
4588.00,0.7699
4587.00,0.7592
4586.00,0.7496
4585.00,0.7412
4584.00,0.7340
4583.00,0.7281
4582.00,0.7236
4581.00,0.7205
4580.00,0.7186
4579.00,0.7181
4578.00,0.7190
4577.00,0.7211
4576.00,0.7246
4575.00,0.7293
4574.00,0.7353
4573.00,0.7425
4572.00,0.7508
4571.00,0.7601
4570.00,0.7704
4569.00,0.7816
4568.00,0.7937
4567.00,0.8065
4566.00,0.8200
4565.00,0.8342
4564.00,0.8490
4563.00,0.8643
4562.00,0.8801
4561.00,0.8963
4560.00,0.9128
4559.00,0.9295
4558.00,0.9464
4557.00,0.9635
4556.00,0.9807
4555.00,0.9981
4554.00,1.0157
4553.00,1.0334
4552.00,1.0511
4551.00,1.0687
4550.00,1.0862
4549.00,1.1036
4548.00,1.1209
4547.00,1.1381
4546.00,1.1551
4545.00,1.1719
4544.00,1.1884
4543.00,1.2046
4542.00,1.2205
4541.00,1.2361
4540.00,1.2513
4539.00,1.2662
4538.00,1.2807
4537.00,1.2948
4536.00,1.3086
4535.00,1.3221
4534.00,1.3349
4533.00,1.3472
4532.00,1.3589
4531.00,1.3703
4530.00,1.3814
4529.00,1.3921
4528.00,1.4025
4527.00,1.4123
4526.00,1.4217
4525.00,1.4304
4524.00,1.4386
4523.00,1.4461
4522.00,1.4532
4521.00,1.4599
4520.00,1.4664
4519.00,1.4726
4518.00,1.4782
4517.00,1.4832
4516.00,1.4876
4515.00,1.4917
4514.00,1.4956
4513.00,1.4992
4512.00,1.5023
4511.00,1.5049
4510.00,1.5068
4509.00,1.5083
4508.00,1.5094
4507.00,1.5101
4506.00,1.5106
4505.00,1.5108
4504.00,1.5104
4503.00,1.5095
4502.00,1.5080
4501.00,1.5058
4500.00,1.5032
4499.00,1.5002
4498.00,1.4971
4497.00,1.4937
4496.00,1.4897
4495.00,1.4852
4494.00,1.4803
4493.00,1.4749
4492.00,1.4692
4491.00,1.4630
4490.00,1.4561
4489.00,1.4487
4488.00,1.4409
4487.00,1.4326
4486.00,1.4240
4485.00,1.4149
4484.00,1.4054
4483.00,1.3954
4482.00,1.3850
4481.00,1.3742
4480.00,1.3631
4479.00,1.3515
4478.00,1.3395
4477.00,1.3271
4476.00,1.3142
4475.00,1.3007
4474.00,1.2865
4473.00,1.2717
4472.00,1.2564
4471.00,1.2406
4470.00,1.2244
4469.00,1.2079
4468.00,1.1910
4467.00,1.1739
4466.00,1.1564
4465.00,1.1387
4464.00,1.1207
4463.00,1.1026
4462.00,1.0845
4461.00,1.0666
4460.00,1.0488
4459.00,1.0312
4458.00,1.0139
4457.00,0.9970
4456.00,0.9806
4455.00,0.9648
4454.00,0.9497
4453.00,0.9355
4452.00,0.9223
4451.00,0.9100
4450.00,0.8990
4449.00,0.8891
4448.00,0.8804
4447.00,0.8729
4446.00,0.8667
4445.00,0.8616
4444.00,0.8575
4443.00,0.8544
4442.00,0.8520
4441.00,0.8502
4440.00,0.8490
4439.00,0.8480
4438.00,0.8473
4437.00,0.8467
4436.00,0.8462
4435.00,0.8458
4434.00,0.8456
4433.00,0.8458
4432.00,0.8465
4431.00,0.8481
4430.00,0.8505
4429.00,0.8539
4428.00,0.8584
4427.00,0.8641
4426.00,0.8710
4425.00,0.8793
4424.00,0.8889
4423.00,0.8997
4422.00,0.9116
4421.00,0.9245
4420.00,0.9384
4419.00,0.9530
4418.00,0.9683
4417.00,0.9843
4416.00,1.0009
4415.00,1.0180
4414.00,1.0355
4413.00,1.0533
4412.00,1.0713
4411.00,1.0895
4410.00,1.1079
4409.00,1.1264
4408.00,1.1448
4407.00,1.1632
4406.00,1.1814
4405.00,1.1996
4404.00,1.2176
4403.00,1.2354
4402.00,1.2528
4401.00,1.2697
4400.00,1.2858
4399.00,1.3010
4398.00,1.3154
4397.00,1.3294
4396.00,1.3433
4395.00,1.3569
4394.00,1.3701
4393.00,1.3827
4392.00,1.3945
4391.00,1.4058
4390.00,1.4169
4389.00,1.4278
4388.00,1.4386
4387.00,1.4489
4386.00,1.4587
4385.00,1.4681
4384.00,1.4770
4383.00,1.4856
4382.00,1.4939
4381.00,1.5020
4380.00,1.5097
4379.00,1.5170
4378.00,1.5239
4377.00,1.5305
4376.00,1.5367
4375.00,1.5426
4374.00,1.5482
4373.00,1.5532
4372.00,1.5576
4371.00,1.5612
4370.00,1.5644
4369.00,1.5673
4368.00,1.5700
4367.00,1.5725
4366.00,1.5747
4365.00,1.5763
4364.00,1.5772
4363.00,1.5774
4362.00,1.5770
4361.00,1.5764
4360.00,1.5755
4359.00,1.5744
4358.00,1.5731
4357.00,1.5717
4356.00,1.5698
4355.00,1.5674
4354.00,1.5641
4353.00,1.5603
4352.00,1.5561
4351.00,1.5518
4350.00,1.5473
4349.00,1.5424
4348.00,1.5367
4347.00,1.5304
4346.00,1.5236
4345.00,1.5165
4344.00,1.5091
4343.00,1.5014
4342.00,1.4932
4341.00,1.4843
4340.00,1.4749
4339.00,1.4650
4338.00,1.4545
4337.00,1.4436
4336.00,1.4323
4335.00,1.4205
4334.00,1.4082
4333.00,1.3954
4332.00,1.3820
4331.00,1.3680
4330.00,1.3535
4329.00,1.3387
4328.00,1.3234
4327.00,1.3078
4326.00,1.2917
4325.00,1.2751
4324.00,1.2582
4323.00,1.2409
4322.00,1.2234
4321.00,1.2056
4320.00,1.1873
4319.00,1.1684
4318.00,1.1488
4317.00,1.1287
4316.00,1.1082
4315.00,1.0872
4314.00,1.0659
4313.00,1.0444
4312.00,1.0228
4311.00,1.0013
4310.00,0.9799
4309.00,0.9588
4308.00,0.9381
4307.00,0.9181
4306.00,0.8988
4305.00,0.8804
4304.00,0.8630
4303.00,0.8465
4302.00,0.8311
4301.00,0.8169
4300.00,0.8040
4299.00,0.7925
4298.00,0.7825
4297.00,0.7740
4296.00,0.7671
4295.00,0.7618
4294.00,0.7580
4293.00,0.7559
4292.00,0.7553
4291.00,0.7563
4290.00,0.7588
4289.00,0.7629
4288.00,0.7684
4287.00,0.7754
4286.00,0.7837
4285.00,0.7933
4284.00,0.8041
4283.00,0.8160
4282.00,0.8289
4281.00,0.8428
4280.00,0.8576
4279.00,0.8730
4278.00,0.8891
4277.00,0.9058
4276.00,0.9230
4275.00,0.9407
4274.00,0.9589
4273.00,0.9774
4272.00,0.9962
4271.00,1.0151
4270.00,1.0342
4269.00,1.0533
4268.00,1.0725
4267.00,1.0919
4266.00,1.1113
4265.00,1.1307
4264.00,1.1499
4263.00,1.1690
4262.00,1.1880
4261.00,1.2069
4260.00,1.2256
4259.00,1.2442
4258.00,1.2624
4257.00,1.2802
4256.00,1.2976
4255.00,1.3146
4254.00,1.3312
4253.00,1.3474
4252.00,1.3630
4251.00,1.3783
4250.00,1.3932
4249.00,1.4078
4248.00,1.4220
4247.00,1.4355
4246.00,1.4485
4245.00,1.4608
4244.00,1.4726
4243.00,1.4839
4242.00,1.4945
4241.00,1.5046
4240.00,1.5143
4239.00,1.5236
4238.00,1.5326
4237.00,1.5413
4236.00,1.5495
4235.00,1.5571
4234.00,1.5640
4233.00,1.5701
4232.00,1.5758
4231.00,1.5811
4230.00,1.5861
4229.00,1.5909
4228.00,1.5952
4227.00,1.5991
4226.00,1.6025
4225.00,1.6054
4224.00,1.6078
4223.00,1.6097
4222.00,1.6111
4221.00,1.6120
4220.00,1.6125
4219.00,1.6126
4218.00,1.6123
4217.00,1.6117
4216.00,1.6107
4215.00,1.6093
4214.00,1.6072
4213.00,1.6045
4212.00,1.6012
4211.00,1.5975
4210.00,1.5936
4209.00,1.5894
4208.00,1.5850
4207.00,1.5801
4206.00,1.5748
4205.00,1.5692
4204.00,1.5634
4203.00,1.5571
4202.00,1.5500
4201.00,1.5421
4200.00,1.5334
4199.00,1.5242
4198.00,1.5147
4197.00,1.5051
4196.00,1.4952
4195.00,1.4845
4194.00,1.4731
4193.00,1.4609
4192.00,1.4481
4191.00,1.4348
4190.00,1.4212
4189.00,1.4072
4188.00,1.3926
4187.00,1.3772
4186.00,1.3611
4185.00,1.3443
4184.00,1.3268
4183.00,1.3087
4182.00,1.2902
4181.00,1.2712
4180.00,1.2516
4179.00,1.2314
4178.00,1.2107
4177.00,1.1895
4176.00,1.1680
4175.00,1.1462
4174.00,1.1241
4173.00,1.1017
4172.00,1.0792
4171.00,1.0567
4170.00,1.0341
4169.00,1.0118
4168.00,0.9896
4167.00,0.9679
4166.00,0.9467
4165.00,0.9262
4164.00,0.9064
4163.00,0.8875
4162.00,0.8695
4161.00,0.8526
4160.00,0.8369
4159.00,0.8225
4158.00,0.8095
4157.00,0.7979
4156.00,0.7878
4155.00,0.7794
4154.00,0.7726
4153.00,0.7675
4152.00,0.7642
4151.00,0.7627
4150.00,0.7629
4149.00,0.7648
4148.00,0.7684
4147.00,0.7737
4146.00,0.7806
4145.00,0.7890
4144.00,0.7989
4143.00,0.8101
4142.00,0.8226
4141.00,0.8363
4140.00,0.8510
4139.00,0.8667
4138.00,0.8832
4137.00,0.9005
4136.00,0.9185
4135.00,0.9371
4134.00,0.9563
4133.00,0.9758
4132.00,0.9957
4131.00,1.0159
4130.00,1.0363
4129.00,1.0568
4128.00,1.0775
4127.00,1.0983
4126.00,1.1191
4125.00,1.1401
4124.00,1.1610
4123.00,1.1818
4122.00,1.2024
4121.00,1.2226
4120.00,1.2425
4119.00,1.2622
4118.00,1.2818
4117.00,1.3011
4116.00,1.3201
4115.00,1.3386
4114.00,1.3567
4113.00,1.3744
4112.00,1.3916
4111.00,1.4083
4110.00,1.4245
4109.00,1.4403
4108.00,1.4556
4107.00,1.4702
4106.00,1.4844
4105.00,1.4980
4104.00,1.5112
4103.00,1.5239
4102.00,1.5359
4101.00,1.5472
4100.00,1.5578
4099.00,1.5679
4098.00,1.5776
4097.00,1.5866
4096.00,1.5950
4095.00,1.6027
4094.00,1.6099
4093.00,1.6166
4092.00,1.6232
4091.00,1.6295
4090.00,1.6354
4089.00,1.6411
4088.00,1.6464
4087.00,1.6512
4086.00,1.6554
4085.00,1.6589
4084.00,1.6618
4083.00,1.6644
4082.00,1.6667
4081.00,1.6687
4080.00,1.6703
4079.00,1.6713
4078.00,1.6719
4077.00,1.6719
4076.00,1.6713
4075.00,1.6702
4074.00,1.6684
4073.00,1.6663
4072.00,1.6640
4071.00,1.6618
4070.00,1.6594
4069.00,1.6569
4068.00,1.6538
4067.00,1.6498
4066.00,1.6450
4065.00,1.6396
4064.00,1.6338
4063.00,1.6276
4062.00,1.6213
4061.00,1.6148
4060.00,1.6079
4059.00,1.6002
4058.00,1.5916
4057.00,1.5821
4056.00,1.5721
4055.00,1.5619
4054.00,1.5515
4053.00,1.5407
4052.00,1.5291
4051.00,1.5167
4050.00,1.5037
4049.00,1.4903
4048.00,1.4765
4047.00,1.4623
4046.00,1.4473
4045.00,1.4317
4044.00,1.4153
4043.00,1.3984
4042.00,1.3812
4041.00,1.3636
4040.00,1.3455
4039.00,1.3270
4038.00,1.3080
4037.00,1.2888
4036.00,1.2695
4035.00,1.2500
4034.00,1.2303
4033.00,1.2103
4032.00,1.1901
4031.00,1.1697
4030.00,1.1492
4029.00,1.1285
4028.00,1.1076
4027.00,1.0865
4026.00,1.0652
4025.00,1.0436
4024.00,1.0220
4023.00,1.0005
4022.00,0.9794
4021.00,0.9587
4020.00,0.9385
4019.00,0.9190
4018.00,0.9004
4017.00,0.8830
4016.00,0.8669
4015.00,0.8524
4014.00,0.8394
4013.00,0.8280
4012.00,0.8183
4011.00,0.8104
4010.00,0.8044
4009.00,0.8004
4008.00,0.7982
4007.00,0.7980
4006.00,0.7999
4005.00,0.8037
4004.00,0.8094
4003.00,0.8171
4002.00,0.8264
4001.00,0.8374
4000.00,0.8499
3999.00,0.8637
3998.00,0.8788
3997.00,0.8951
3996.00,0.9125
3995.00,0.9308
3994.00,0.9498
3993.00,0.9695
3992.00,0.9898
3991.00,1.0107
3990.00,1.0322
3989.00,1.0542
3988.00,1.0764
3987.00,1.0988
3986.00,1.1213
3985.00,1.1439
3984.00,1.1664
3983.00,1.1889
3982.00,1.2113
3981.00,1.2334
3980.00,1.2551
3979.00,1.2762
3978.00,1.2968
3977.00,1.3170
3976.00,1.3367
3975.00,1.3561
3974.00,1.3749
3973.00,1.3932
3972.00,1.4109
3971.00,1.4281
3970.00,1.4450
3969.00,1.4614
3968.00,1.4774
3967.00,1.4927
3966.00,1.5073
3965.00,1.5214
3964.00,1.5349
3963.00,1.5482
3962.00,1.5612
3961.00,1.5738
3960.00,1.5862
3959.00,1.5981
3958.00,1.6098
3957.00,1.6211
3956.00,1.6319
3955.00,1.6420
3954.00,1.6511
3953.00,1.6592
3952.00,1.6665
3951.00,1.6733
3950.00,1.6799
3949.00,1.6863
3948.00,1.6925
3947.00,1.6983
3946.00,1.7036
3945.00,1.7085
3944.00,1.7132
3943.00,1.7178
3942.00,1.7220
3941.00,1.7257
3940.00,1.7288
3939.00,1.7312
3938.00,1.7329
3937.00,1.7339
3936.00,1.7341
3935.00,1.7338
3934.00,1.7334
3933.00,1.7331
3932.00,1.7329
3931.00,1.7323
3930.00,1.7309
3929.00,1.7285
3928.00,1.7255
3927.00,1.7221
3926.00,1.7182
3925.00,1.7138
3924.00,1.7092
3923.00,1.7044
3922.00,1.6994
3921.00,1.6938
3920.00,1.6877
3919.00,1.6812
3918.00,1.6741
3917.00,1.6667
3916.00,1.6590
3915.00,1.6510
3914.00,1.6427
3913.00,1.6336
3912.00,1.6238
3911.00,1.6131
3910.00,1.6015
3909.00,1.5889
3908.00,1.5754
3907.00,1.5613
3906.00,1.5465
3905.00,1.5309
3904.00,1.5145
3903.00,1.4976
3902.00,1.4804
3901.00,1.4630
3900.00,1.4454
3899.00,1.4275
3898.00,1.4089
3897.00,1.3898
3896.00,1.3700
3895.00,1.3497
3894.00,1.3289
3893.00,1.3070
3892.00,1.2834
3891.00,1.2580
3890.00,1.2318
3889.00,1.2060
3888.00,1.1810
3887.00,1.1558
3886.00,1.1294
3885.00,1.1018
3884.00,1.0745
3883.00,1.0484
3882.00,1.0234
3881.00,0.9986
3880.00,0.9740
3879.00,0.9501
3878.00,0.9278
3877.00,0.9072
3876.00,0.8881
3875.00,0.8697
3874.00,0.8522
3873.00,0.8365
3872.00,0.8231
3871.00,0.8115
3870.00,0.8011
3869.00,0.7922
3868.00,0.7857
3867.00,0.7822
3866.00,0.7817
3865.00,0.7837
3864.00,0.7879
3863.00,0.7938
3862.00,0.8016
3861.00,0.8111
3860.00,0.8222
3859.00,0.8342
3858.00,0.8465
3857.00,0.8594
3856.00,0.8740
3855.00,0.8917
3854.00,0.9130
3853.00,0.9373
3852.00,0.9628
3851.00,0.9873
3850.00,1.0104
3849.00,1.0326
3848.00,1.0549
3847.00,1.0774
3846.00,1.1000
3845.00,1.1230
3844.00,1.1463
3843.00,1.1698
3842.00,1.1933
3841.00,1.2165
3840.00,1.2393
3839.00,1.2620
3838.00,1.2856
3837.00,1.3103
3836.00,1.3355
3835.00,1.3600
3834.00,1.3832
3833.00,1.4054
3832.00,1.4270
3831.00,1.4481
3830.00,1.4687
3829.00,1.4888
3828.00,1.5078
3827.00,1.5256
3826.00,1.5423
3825.00,1.5581
3824.00,1.5732
3823.00,1.5880
3822.00,1.6025
3821.00,1.6167
3820.00,1.6307
3819.00,1.6440
3818.00,1.6565
3817.00,1.6684
3816.00,1.6800
3815.00,1.6916
3814.00,1.7028
3813.00,1.7131
3812.00,1.7225
3811.00,1.7310
3810.00,1.7390
3809.00,1.7463
3808.00,1.7526
3807.00,1.7579
3806.00,1.7630
3805.00,1.7683
3804.00,1.7737
3803.00,1.7786
3802.00,1.7824
3801.00,1.7853
3800.00,1.7880
3799.00,1.7906
3798.00,1.7934
3797.00,1.7959
3796.00,1.7977
3795.00,1.7990
3794.00,1.8000
3793.00,1.8005
3792.00,1.8003
3791.00,1.7996
3790.00,1.7985
3789.00,1.7971
3788.00,1.7952
3787.00,1.7930
3786.00,1.7902
3785.00,1.7867
3784.00,1.7823
3783.00,1.7774
3782.00,1.7725
3781.00,1.7673
3780.00,1.7612
3779.00,1.7542
3778.00,1.7468
3777.00,1.7393
3776.00,1.7314
3775.00,1.7230
3774.00,1.7142
3773.00,1.7048
3772.00,1.6948
3771.00,1.6839
3770.00,1.6719
3769.00,1.6591
3768.00,1.6460
3767.00,1.6327
3766.00,1.6192
3765.00,1.6050
3764.00,1.5902
3763.00,1.5751
3762.00,1.5596
3761.00,1.5430
3760.00,1.5250
3759.00,1.5058
3758.00,1.4856
3757.00,1.4648
3756.00,1.4439
3755.00,1.4231
3754.00,1.4022
3753.00,1.3801
3752.00,1.3556
3751.00,1.3282
3750.00,1.2985
3749.00,1.2687
3748.00,1.2408
3747.00,1.2157
3746.00,1.1915
3745.00,1.1654
3744.00,1.1369
3743.00,1.1085
3742.00,1.0825
3741.00,1.0586
3740.00,1.0357
3739.00,1.0133
3738.00,0.9909
3737.00,0.9683
3736.00,0.9457
3735.00,0.9238
3734.00,0.9033
3733.00,0.8846
3732.00,0.8674
3731.00,0.8521
3730.00,0.8392
3729.00,0.8296
3728.00,0.8235
3727.00,0.8205
3726.00,0.8204
3725.00,0.8227
3724.00,0.8274
3723.00,0.8342
3722.00,0.8417
3721.00,0.8483
3720.00,0.8545
3719.00,0.8640
3718.00,0.8806
3717.00,0.9049
3716.00,0.9336
3715.00,0.9619
3714.00,0.9884
3713.00,1.0142
3712.00,1.0408
3711.00,1.0683
3710.00,1.0963
3709.00,1.1244
3708.00,1.1523
3707.00,1.1800
3706.00,1.2070
3705.00,1.2333
3704.00,1.2593
3703.00,1.2856
3702.00,1.3125
3701.00,1.3403
3700.00,1.3683
3699.00,1.3959
3698.00,1.4223
3697.00,1.4476
3696.00,1.4720
3695.00,1.4953
3694.00,1.5177
3693.00,1.5389
3692.00,1.5594
3691.00,1.5792
3690.00,1.5986
3689.00,1.6181
3688.00,1.6383
3687.00,1.6587
3686.00,1.6778
3685.00,1.6951
3684.00,1.7110
3683.00,1.7260
3682.00,1.7401
3681.00,1.7530
3680.00,1.7646
3679.00,1.7751
3678.00,1.7851
3677.00,1.7949
3676.00,1.8042
3675.00,1.8133
3674.00,1.8221
3673.00,1.8307
3672.00,1.8390
3671.00,1.8472
3670.00,1.8553
3669.00,1.8632
3668.00,1.8708
3667.00,1.8777
3666.00,1.8840
3665.00,1.8898
3664.00,1.8951
3663.00,1.8997
3662.00,1.9034
3661.00,1.9064
3660.00,1.9088
3659.00,1.9109
3658.00,1.9128
3657.00,1.9145
3656.00,1.9159
3655.00,1.9167
3654.00,1.9168
3653.00,1.9166
3652.00,1.9167
3651.00,1.9172
3650.00,1.9174
3649.00,1.9167
3648.00,1.9152
3647.00,1.9131
3646.00,1.9112
3645.00,1.9098
3644.00,1.9089
3643.00,1.9079
3642.00,1.9067
3641.00,1.9052
3640.00,1.9033
3639.00,1.9003
3638.00,1.8961
3637.00,1.8911
3636.00,1.8854
3635.00,1.8790
3634.00,1.8717
3633.00,1.8636
3632.00,1.8550
3631.00,1.8462
3630.00,1.8368
3629.00,1.8266
3628.00,1.8161
3627.00,1.8061
3626.00,1.7966
3625.00,1.7871
3624.00,1.7772
3623.00,1.7668
3622.00,1.7559
3621.00,1.7445
3620.00,1.7314
3619.00,1.7152
3618.00,1.6965
3617.00,1.6784
3616.00,1.6637
3615.00,1.6529
3614.00,1.6434
3613.00,1.6324
3612.00,1.6185
3611.00,1.6026
3610.00,1.5861
3609.00,1.5689
3608.00,1.5510
3607.00,1.5329
3606.00,1.5147
3605.00,1.4966
3604.00,1.4784
3603.00,1.4597
3602.00,1.4403
3601.00,1.4201
3600.00,1.3992
3599.00,1.3780
3598.00,1.3570
3597.00,1.3364
3596.00,1.3162
3595.00,1.2962
3594.00,1.2765
3593.00,1.2571
3592.00,1.2383
3591.00,1.2205
3590.00,1.2043
3589.00,1.1897
3588.00,1.1764
3587.00,1.1645
3586.00,1.1541
3585.00,1.1457
3584.00,1.1392
3583.00,1.1349
3582.00,1.1326
3581.00,1.1324
3580.00,1.1341
3579.00,1.1373
3578.00,1.1421
3577.00,1.1483
3576.00,1.1560
3575.00,1.1651
3574.00,1.1756
3573.00,1.1870
3572.00,1.1991
3571.00,1.2118
3570.00,1.2256
3569.00,1.2411
3568.00,1.2587
3567.00,1.2780
3566.00,1.2984
3565.00,1.3190
3564.00,1.3393
3563.00,1.3591
3562.00,1.3790
3561.00,1.3992
3560.00,1.4198
3559.00,1.4405
3558.00,1.4609
3557.00,1.4808
3556.00,1.5004
3555.00,1.5198
3554.00,1.5393
3553.00,1.5586
3552.00,1.5775
3551.00,1.5959
3550.00,1.6135
3549.00,1.6304
3548.00,1.6470
3547.00,1.6633
3546.00,1.6794
3545.00,1.6954
3544.00,1.7111
3543.00,1.7264
3542.00,1.7411
3541.00,1.7552
3540.00,1.7686
3539.00,1.7814
3538.00,1.7937
3537.00,1.8055
3536.00,1.8171
3535.00,1.8284
3534.00,1.8392
3533.00,1.8495
3532.00,1.8593
3531.00,1.8684
3530.00,1.8769
3529.00,1.8846
3528.00,1.8919
3527.00,1.8990
3526.00,1.9060
3525.00,1.9133
3524.00,1.9207
3523.00,1.9279
3522.00,1.9346
3521.00,1.9407
3520.00,1.9462
3519.00,1.9510
3518.00,1.9552
3517.00,1.9589
3516.00,1.9623
3515.00,1.9658
3514.00,1.9693
3513.00,1.9726
3512.00,1.9753
3511.00,1.9773
3510.00,1.9788
3509.00,1.9801
3508.00,1.9812
3507.00,1.9816
3506.00,1.9813
3505.00,1.9803
3504.00,1.9790
3503.00,1.9774
3502.00,1.9756
3501.00,1.9736
3500.00,1.9714
3499.00,1.9689
3498.00,1.9662
3497.00,1.9631
3496.00,1.9593
3495.00,1.9547
3494.00,1.9497
3493.00,1.9445
3492.00,1.9390
3491.00,1.9327
3490.00,1.9256
3489.00,1.9180
3488.00,1.9100
3487.00,1.9020
3486.00,1.8939
3485.00,1.8854
3484.00,1.8765
3483.00,1.8670
3482.00,1.8573
3481.00,1.8471
3480.00,1.8365
3479.00,1.8250
3478.00,1.8126
3477.00,1.7994
3476.00,1.7854
3475.00,1.7709
3474.00,1.7558
3473.00,1.7402
3472.00,1.7239
3471.00,1.7069
3470.00,1.6892
3469.00,1.6711
3468.00,1.6524
3467.00,1.6330
3466.00,1.6127
3465.00,1.5914
3464.00,1.5692
3463.00,1.5464
3462.00,1.5230
3461.00,1.4990
3460.00,1.4746
3459.00,1.4497
3458.00,1.4244
3457.00,1.3988
3456.00,1.3731
3455.00,1.3474
3454.00,1.3217
3453.00,1.2961
3452.00,1.2709
3451.00,1.2461
3450.00,1.2221
3449.00,1.1990
3448.00,1.1768
3447.00,1.1556
3446.00,1.1358
3445.00,1.1177
3444.00,1.1014
3443.00,1.0871
3442.00,1.0747
3441.00,1.0644
3440.00,1.0563
3439.00,1.0505
3438.00,1.0471
3437.00,1.0460
3436.00,1.0473
3435.00,1.0508
3434.00,1.0566
3433.00,1.0645
3432.00,1.0745
3431.00,1.0864
3430.00,1.1001
3429.00,1.1153
3428.00,1.1320
3427.00,1.1500
3426.00,1.1693
3425.00,1.1897
3424.00,1.2111
3423.00,1.2334
3422.00,1.2563
3421.00,1.2798
3420.00,1.3036
3419.00,1.3278
3418.00,1.3523
3417.00,1.3770
3416.00,1.4015
3415.00,1.4260
3414.00,1.4505
3413.00,1.4749
3412.00,1.4992
3411.00,1.5232
3410.00,1.5467
3409.00,1.5697
3408.00,1.5921
3407.00,1.6139
3406.00,1.6352
3405.00,1.6560
3404.00,1.6764
3403.00,1.6959
3402.00,1.7148
3401.00,1.7330
3400.00,1.7507
3399.00,1.7676
3398.00,1.7838
3397.00,1.7993
3396.00,1.8143
3395.00,1.8288
3394.00,1.8429
3393.00,1.8566
3392.00,1.8697
3391.00,1.8819
3390.00,1.8933
3389.00,1.9042
3388.00,1.9148
3387.00,1.9251
3386.00,1.9349
3385.00,1.9442
3384.00,1.9528
3383.00,1.9606
3382.00,1.9679
3381.00,1.9752
3380.00,1.9828
3379.00,1.9902
3378.00,1.9967
3377.00,2.0021
3376.00,2.0067
3375.00,2.0109
3374.00,2.0147
3373.00,2.0183
3372.00,2.0217
3371.00,2.0251
3370.00,2.0282
3369.00,2.0306
3368.00,2.0326
3367.00,2.0344
3366.00,2.0361
3365.00,2.0373
3364.00,2.0373
3363.00,2.0362
3362.00,2.0344
3361.00,2.0325
3360.00,2.0304
3359.00,2.0279
3358.00,2.0251
3357.00,2.0221
3356.00,2.0189
3355.00,2.0154
3354.00,2.0115
3353.00,2.0071
3352.00,2.0021
3351.00,1.9966
3350.00,1.9907
3349.00,1.9845
3348.00,1.9778
3347.00,1.9705
3346.00,1.9624
3345.00,1.9536
3344.00,1.9440
3343.00,1.9337
3342.00,1.9231
3341.00,1.9123
3340.00,1.9012
3339.00,1.8897
3338.00,1.8776
3337.00,1.8649
3336.00,1.8515
3335.00,1.8375
3334.00,1.8229
3333.00,1.8079
3332.00,1.7923
3331.00,1.7760
3330.00,1.7589
3329.00,1.7409
3328.00,1.7222
3327.00,1.7028
3326.00,1.6827
3325.00,1.6623
3324.00,1.6413
3323.00,1.6196
3322.00,1.5969
3321.00,1.5733
3320.00,1.5489
3319.00,1.5237
3318.00,1.4979
3317.00,1.4715
3316.00,1.4449
3315.00,1.4180
3314.00,1.3909
3313.00,1.3638
3312.00,1.3366
3311.00,1.3097
3310.00,1.2833
3309.00,1.2577
3308.00,1.2331
3307.00,1.2096
3306.00,1.1874
3305.00,1.1667
3304.00,1.1478
3303.00,1.1308
3302.00,1.1160
3301.00,1.1034
3300.00,1.0931
3299.00,1.0851
3298.00,1.0794
3297.00,1.0762
3296.00,1.0754
3295.00,1.0771
3294.00,1.0812
3293.00,1.0877
3292.00,1.0963
3291.00,1.1071
3290.00,1.1198
3289.00,1.1343
3288.00,1.1504
3287.00,1.1680
3286.00,1.1870
3285.00,1.2071
3284.00,1.2283
3283.00,1.2504
3282.00,1.2733
3281.00,1.2969
3280.00,1.3210
3279.00,1.3455
3278.00,1.3705
3277.00,1.3957
3276.00,1.4211
3275.00,1.4465
3274.00,1.4719
3273.00,1.4971
3272.00,1.5222
3271.00,1.5472
3270.00,1.5720
3269.00,1.5963
3268.00,1.6202
3267.00,1.6435
3266.00,1.6664
3265.00,1.6889
3264.00,1.7107
3263.00,1.7318
3262.00,1.7522
3261.00,1.7719
3260.00,1.7912
3259.00,1.8099
3258.00,1.8279
3257.00,1.8454
3256.00,1.8621
3255.00,1.8782
3254.00,1.8936
3253.00,1.9083
3252.00,1.9221
3251.00,1.9351
3250.00,1.9476
3249.00,1.9600
3248.00,1.9722
3247.00,1.9836
3246.00,1.9939
3245.00,2.0034
3244.00,2.0125
3243.00,2.0215
3242.00,2.0300
3241.00,2.0380
3240.00,2.0455
3239.00,2.0526
3238.00,2.0592
3237.00,2.0653
3236.00,2.0712
3235.00,2.0769
3234.00,2.0823
3233.00,2.0866
3232.00,2.0899
3231.00,2.0925
3230.00,2.0951
3229.00,2.0981
3228.00,2.1010
3227.00,2.1037
3226.00,2.1057
3225.00,2.1068
3224.00,2.1069
3223.00,2.1060
3222.00,2.1047
3221.00,2.1032
3220.00,2.1017
3219.00,2.0997
3218.00,2.0973
3217.00,2.0944
3216.00,2.0913
3215.00,2.0882
3214.00,2.0850
3213.00,2.0815
3212.00,2.0772
3211.00,2.0720
3210.00,2.0662
3209.00,2.0601
3208.00,2.0540
3207.00,2.0478
3206.00,2.0415
3205.00,2.0349
3204.00,2.0283
3203.00,2.0216
3202.00,2.0147
3201.00,2.0070
3200.00,1.9983
3199.00,1.9885
3198.00,1.9776
3197.00,1.9656
3196.00,1.9525
3195.00,1.9387
3194.00,1.9243
3193.00,1.9093
3192.00,1.8933
3191.00,1.8763
3190.00,1.8584
3189.00,1.8399
3188.00,1.8208
3187.00,1.8010
3186.00,1.7803
3185.00,1.7586
3184.00,1.7361
3183.00,1.7130
3182.00,1.6893
3181.00,1.6653
3180.00,1.6408
3179.00,1.6158
3178.00,1.5905
3177.00,1.5652
3176.00,1.5407
3175.00,1.5174
3174.00,1.4961
3173.00,1.4776
3172.00,1.4630
3171.00,1.4534
3170.00,1.4499
3169.00,1.4531
3168.00,1.4629
3167.00,1.4780
3166.00,1.4953
3165.00,1.5103
3164.00,1.5173
3163.00,1.5119
3162.00,1.4928
3161.00,1.4621
3160.00,1.4242
3159.00,1.3837
3158.00,1.3445
3157.00,1.3091
3156.00,1.2789
3155.00,1.2544
3154.00,1.2356
3153.00,1.2224
3152.00,1.2143
3151.00,1.2109
3150.00,1.2118
3149.00,1.2164
3148.00,1.2242
3147.00,1.2349
3146.00,1.2482
3145.00,1.2636
3144.00,1.2809
3143.00,1.2999
3142.00,1.3203
3141.00,1.3420
3140.00,1.3648
3139.00,1.3885
3138.00,1.4130
3137.00,1.4380
3136.00,1.4635
3135.00,1.4893
3134.00,1.5153
3133.00,1.5414
3132.00,1.5674
3131.00,1.5934
3130.00,1.6190
3129.00,1.6443
3128.00,1.6693
3127.00,1.6938
3126.00,1.7181
3125.00,1.7419
3124.00,1.7651
3123.00,1.7873
3122.00,1.8086
3121.00,1.8294
3120.00,1.8498
3119.00,1.8698
3118.00,1.8894
3117.00,1.9082
3116.00,1.9262
3115.00,1.9434
3114.00,1.9598
3113.00,1.9754
3112.00,1.9900
3111.00,2.0037
3110.00,2.0169
3109.00,2.0297
3108.00,2.0420
3107.00,2.0538
3106.00,2.0655
3105.00,2.0770
3104.00,2.0882
3103.00,2.0987
3102.00,2.1083
3101.00,2.1172
3100.00,2.1253
3099.00,2.1328
3098.00,2.1400
3097.00,2.1470
3096.00,2.1541
3095.00,2.1612
3094.00,2.1679
3093.00,2.1734
3092.00,2.1771
3091.00,2.1793
3090.00,2.1811
3089.00,2.1834
3088.00,2.1863
3087.00,2.1892
3086.00,2.1919
3085.00,2.1943
3084.00,2.1962
3083.00,2.1978
3082.00,2.1992
3081.00,2.2000
3080.00,2.1997
3079.00,2.1980
3078.00,2.1956
3077.00,2.1933
3076.00,2.1913
3075.00,2.1892
3074.00,2.1865
3073.00,2.1831
3072.00,2.1791
3071.00,2.1748
3070.00,2.1704
3069.00,2.1655
3068.00,2.1599
3067.00,2.1536
3066.00,2.1469
3065.00,2.1401
3064.00,2.1329
3063.00,2.1250
3062.00,2.1166
3061.00,2.1076
3060.00,2.0979
3059.00,2.0874
3058.00,2.0759
3057.00,2.0641
3056.00,2.0524
3055.00,2.0407
3054.00,2.0286
3053.00,2.0157
3052.00,2.0018
3051.00,1.9869
3050.00,1.9714
3049.00,1.9555
3048.00,1.9393
3047.00,1.9225
3046.00,1.9050
3045.00,1.8869
3044.00,1.8682
3043.00,1.8489
3042.00,1.8291
3041.00,1.8088
3040.00,1.7884
3039.00,1.7679
3038.00,1.7474
3037.00,1.7269
3036.00,1.7063
3035.00,1.6858
3034.00,1.6656
3033.00,1.6460
3032.00,1.6272
3031.00,1.6094
3030.00,1.5929
3029.00,1.5782
3028.00,1.5652
3027.00,1.5540
3026.00,1.5446
3025.00,1.5372
3024.00,1.5320
3023.00,1.5292
3022.00,1.5289
3021.00,1.5311
3020.00,1.5356
3019.00,1.5425
3018.00,1.5517
3017.00,1.5631
3016.00,1.5766
3015.00,1.5922
3014.00,1.6096
3013.00,1.6284
3012.00,1.6483
3011.00,1.6686
3010.00,1.6891
3009.00,1.7094
3008.00,1.7293
3007.00,1.7484
3006.00,1.7663
3005.00,1.7826
3004.00,1.7967
3003.00,1.8084
3002.00,1.8177
3001.00,1.8247
3000.00,1.8298
2999.00,1.8333
2998.00,1.8360
2997.00,1.8384
2996.00,1.8409
2995.00,1.8437
2994.00,1.8471
2993.00,1.8517
2992.00,1.8581
2991.00,1.8664
2990.00,1.8770
2989.00,1.8897
2988.00,1.9042
2987.00,1.9202
2986.00,1.9375
2985.00,1.9559
2984.00,1.9751
2983.00,1.9949
2982.00,2.0150
2981.00,2.0355
2980.00,2.0562
2979.00,2.0773
2978.00,2.0990
2977.00,2.1209
2976.00,2.1420
2975.00,2.1615
2974.00,2.1800
2973.00,2.1984
2972.00,2.2170
2971.00,2.2353
2970.00,2.2528
2969.00,2.2695
2968.00,2.2853
2967.00,2.3001
2966.00,2.3135
2965.00,2.3255
2964.00,2.3364
2963.00,2.3472
2962.00,2.3586
2961.00,2.3709
2960.00,2.3836
2959.00,2.3957
2958.00,2.4067
2957.00,2.4168
2956.00,2.4270
2955.00,2.4379
2954.00,2.4501
2953.00,2.4636
2952.00,2.4785
2951.00,2.4942
2950.00,2.5101
2949.00,2.5255
2948.00,2.5400
2947.00,2.5534
2946.00,2.5651
2945.00,2.5737
2944.00,2.5775
2943.00,2.5756
2942.00,2.5676
2941.00,2.5545
2940.00,2.5383
2939.00,2.5215
2938.00,2.5054
2937.00,2.4899
2936.00,2.4747
2935.00,2.4605
2934.00,2.4490
2933.00,2.4403
2932.00,2.4331
2931.00,2.4261
2930.00,2.4188
2929.00,2.4114
2928.00,2.4040
2927.00,2.3968
2926.00,2.3905
2925.00,2.3855
2924.00,2.3816
2923.00,2.3788
2922.00,2.3766
2921.00,2.3742
2920.00,2.3705
2919.00,2.3654
2918.00,2.3600
2917.00,2.3554
2916.00,2.3516
2915.00,2.3479
2914.00,2.3434
2913.00,2.3376
2912.00,2.3308
2911.00,2.3235
2910.00,2.3167
2909.00,2.3105
2908.00,2.3039
2907.00,2.2964
2906.00,2.2880
2905.00,2.2793
2904.00,2.2705
2903.00,2.2612
2902.00,2.2511
2901.00,2.2401
2900.00,2.2286
2899.00,2.2167
2898.00,2.2043
2897.00,2.1910
2896.00,2.1766
2895.00,2.1612
2894.00,2.1451
2893.00,2.1283
2892.00,2.1107
2891.00,2.0925
2890.00,2.0739
2889.00,2.0550
2888.00,2.0356
2887.00,2.0156
2886.00,1.9951
2885.00,1.9748
2884.00,1.9547
2883.00,1.9350
2882.00,1.9158
2881.00,1.8973
2880.00,1.8800
2879.00,1.8642
2878.00,1.8507
2877.00,1.8400
2876.00,1.8324
2875.00,1.8279
2874.00,1.8260
2873.00,1.8263
2872.00,1.8276
2871.00,1.8290
2870.00,1.8295
2869.00,1.8282
2868.00,1.8245
2867.00,1.8178
2866.00,1.8079
2865.00,1.7953
2864.00,1.7801
2863.00,1.7623
2862.00,1.7415
2861.00,1.7176
2860.00,1.6904
2859.00,1.6603
2858.00,1.6281
2857.00,1.5947
2856.00,1.5610
2855.00,1.5283
2854.00,1.4978
2853.00,1.4706
2852.00,1.4475
2851.00,1.4289
2850.00,1.4151
2849.00,1.4064
2848.00,1.4026
2847.00,1.4035
2846.00,1.4090
2845.00,1.4187
2844.00,1.4319
2843.00,1.4482
2842.00,1.4669
2841.00,1.4877
2840.00,1.5105
2839.00,1.5348
2838.00,1.5604
2837.00,1.5868
2836.00,1.6138
2835.00,1.6413
2834.00,1.6690
2833.00,1.6970
2832.00,1.7250
2831.00,1.7528
2830.00,1.7805
2829.00,1.8080
2828.00,1.8351
2827.00,1.8619
2826.00,1.8881
2825.00,1.9138
2824.00,1.9389
2823.00,1.9632
2822.00,1.9866
2821.00,2.0091
2820.00,2.0306
2819.00,2.0511
2818.00,2.0710
2817.00,2.0907
2816.00,2.1102
2815.00,2.1289
2814.00,2.1463
2813.00,2.1625
2812.00,2.1778
2811.00,2.1925
2810.00,2.2064
2809.00,2.2195
2808.00,2.2317
2807.00,2.2432
2806.00,2.2543
2805.00,2.2649
2804.00,2.2750
2803.00,2.2844
2802.00,2.2934
2801.00,2.3022
2800.00,2.3106
2799.00,2.3185
2798.00,2.3257
2797.00,2.3325
2796.00,2.3391
2795.00,2.3449
2794.00,2.3497
2793.00,2.3534
2792.00,2.3564
2791.00,2.3590
2790.00,2.3614
2789.00,2.3638
2788.00,2.3667
2787.00,2.3697
2786.00,2.3721
2785.00,2.3730
2784.00,2.3727
2783.00,2.3718
2782.00,2.3709
2781.00,2.3696
2780.00,2.3674
2779.00,2.3644
2778.00,2.3615
2777.00,2.3594
2776.00,2.3574
2775.00,2.3548
2774.00,2.3510
2773.00,2.3462
2772.00,2.3407
2771.00,2.3350
2770.00,2.3292
2769.00,2.3231
2768.00,2.3161
2767.00,2.3076
2766.00,2.2975
2765.00,2.2865
2764.00,2.2756
2763.00,2.2650
2762.00,2.2547
2761.00,2.2441
2760.00,2.2329
2759.00,2.2208
2758.00,2.2076
2757.00,2.1935
2756.00,2.1784
2755.00,2.1628
2754.00,2.1468
2753.00,2.1299
2752.00,2.1117
2751.00,2.0922
2750.00,2.0720
2749.00,2.0516
2748.00,2.0305
2747.00,2.0080
2746.00,1.9839
2745.00,1.9581
2744.00,1.9311
2743.00,1.9030
2742.00,1.8736
2741.00,1.8430
2740.00,1.8110
2739.00,1.7777
2738.00,1.7431
2737.00,1.7074
2736.00,1.6705
2735.00,1.6323
2734.00,1.5930
2733.00,1.5527
2732.00,1.5120
2731.00,1.4712
2730.00,1.4305
2729.00,1.3904
2728.00,1.3512
2727.00,1.3134
2726.00,1.2776
2725.00,1.2441
2724.00,1.2136
2723.00,1.1865
2722.00,1.1632
2721.00,1.1440
2720.00,1.1293
2719.00,1.1193
2718.00,1.1141
2717.00,1.1139
2716.00,1.1186
2715.00,1.1280
2714.00,1.1418
2713.00,1.1599
2712.00,1.1817
2711.00,1.2067
2710.00,1.2345
2709.00,1.2648
2708.00,1.2970
2707.00,1.3309
2706.00,1.3661
2705.00,1.4023
2704.00,1.4393
2703.00,1.4768
2702.00,1.5146
2701.00,1.5526
2700.00,1.5906
2699.00,1.6283
2698.00,1.6656
2697.00,1.7022
2696.00,1.7385
2695.00,1.7743
2694.00,1.8096
2693.00,1.8442
2692.00,1.8777
2691.00,1.9100
2690.00,1.9408
2689.00,1.9703
2688.00,1.9985
2687.00,2.0253
2686.00,2.0509
2685.00,2.0758
2684.00,2.1000
2683.00,2.1234
2682.00,2.1455
2681.00,2.1660
2680.00,2.1851
2679.00,2.2029
2678.00,2.2197
2677.00,2.2357
2676.00,2.2512
2675.00,2.2664
2674.00,2.2816
2673.00,2.2965
2672.00,2.3103
2671.00,2.3227
2670.00,2.3342
2669.00,2.3454
2668.00,2.3565
2667.00,2.3670
2666.00,2.3765
2665.00,2.3850
2664.00,2.3929
2663.00,2.4007
2662.00,2.4085
2661.00,2.4159
2660.00,2.4225
2659.00,2.4282
2658.00,2.4338
2657.00,2.4395
2656.00,2.4452
2655.00,2.4501
2654.00,2.4540
2653.00,2.4568
2652.00,2.4588
2651.00,2.4602
2650.00,2.4614
2649.00,2.4626
2648.00,2.4638
2647.00,2.4652
2646.00,2.4669
2645.00,2.4684
2644.00,2.4688
2643.00,2.4675
2642.00,2.4650
2641.00,2.4621
2640.00,2.4590
2639.00,2.4555
2638.00,2.4518
2637.00,2.4486
2636.00,2.4460
2635.00,2.4433
2634.00,2.4397
2633.00,2.4351
2632.00,2.4298
2631.00,2.4242
2630.00,2.4185
2629.00,2.4131
2628.00,2.4083
2627.00,2.4038
2626.00,2.3990
2625.00,2.3928
2624.00,2.3846
2623.00,2.3744
2622.00,2.3630
2621.00,2.3512
2620.00,2.3390
2619.00,2.3262
2618.00,2.3124
2617.00,2.2980
2616.00,2.2832
2615.00,2.2679
2614.00,2.2516
2613.00,2.2340
2612.00,2.2153
2611.00,2.1958
2610.00,2.1759
2609.00,2.1554
2608.00,2.1338
2607.00,2.1104
2606.00,2.0852
2605.00,2.0589
2604.00,2.0316
2603.00,2.0031
2602.00,1.9731
2601.00,1.9412
2600.00,1.9076
2599.00,1.8726
2598.00,1.8360
2597.00,1.7980
2596.00,1.7582
2595.00,1.7167
2594.00,1.6735
2593.00,1.6288
2592.00,1.5832
2591.00,1.5371
2590.00,1.4911
2589.00,1.4457
2588.00,1.4013
2587.00,1.3585
2586.00,1.3179
2585.00,1.2801
2584.00,1.2458
2583.00,1.2155
2582.00,1.1896
2581.00,1.1686
2580.00,1.1529
2579.00,1.1428
2578.00,1.1383
2577.00,1.1396
2576.00,1.1466
2575.00,1.1589
2574.00,1.1761
2573.00,1.1977
2572.00,1.2232
2571.00,1.2520
2570.00,1.2835
2569.00,1.3172
2568.00,1.3527
2567.00,1.3896
2566.00,1.4277
2565.00,1.4668
2564.00,1.5065
2563.00,1.5466
2562.00,1.5869
2561.00,1.6271
2560.00,1.6672
2559.00,1.7073
2558.00,1.7470
2557.00,1.7860
2556.00,1.8242
2555.00,1.8616
2554.00,1.8982
2553.00,1.9339
2552.00,1.9683
2551.00,2.0010
2550.00,2.0323
2549.00,2.0624
2548.00,2.0912
2547.00,2.1184
2546.00,2.1439
2545.00,2.1681
2544.00,2.1917
2543.00,2.2146
2542.00,2.2367
2541.00,2.2574
2540.00,2.2767
2539.00,2.2953
2538.00,2.3137
2537.00,2.3316
2536.00,2.3483
2535.00,2.3637
2534.00,2.3786
2533.00,2.3934
2532.00,2.4077
2531.00,2.4207
2530.00,2.4319
2529.00,2.4415
2528.00,2.4504
2527.00,2.4599
2526.00,2.4709
2525.00,2.4825
2524.00,2.4929
2523.00,2.5015
2522.00,2.5088
2521.00,2.5157
2520.00,2.5227
2519.00,2.5294
2518.00,2.5356
2517.00,2.5412
2516.00,2.5463
2515.00,2.5513
2514.00,2.5564
2513.00,2.5613
2512.00,2.5648
2511.00,2.5665
2510.00,2.5677
2509.00,2.5691
2508.00,2.5708
2507.00,2.5720
2506.00,2.5721
2505.00,2.5713
2504.00,2.5699
2503.00,2.5689
2502.00,2.5690
2501.00,2.5694
2500.00,2.5685
2499.00,2.5658
2498.00,2.5626
2497.00,2.5598
2496.00,2.5566
2495.00,2.5516
2494.00,2.5447
2493.00,2.5370
2492.00,2.5292
2491.00,2.5212
2490.00,2.5139
2489.00,2.5082
2488.00,2.5036
2487.00,2.4985
2486.00,2.4915
2485.00,2.4830
2484.00,2.4736
2483.00,2.4633
2482.00,2.4517
2481.00,2.4390
2480.00,2.4259
2479.00,2.4128
2478.00,2.3999
2477.00,2.3866
2476.00,2.3723
2475.00,2.3569
2474.00,2.3408
2473.00,2.3242
2472.00,2.3067
2471.00,2.2878
2470.00,2.2675
2469.00,2.2459
2468.00,2.2234
2467.00,2.1998
2466.00,2.1752
2465.00,2.1494
2464.00,2.1226
2463.00,2.0946
2462.00,2.0652
2461.00,2.0344
2460.00,2.0020
2459.00,1.9679
2458.00,1.9318
2457.00,1.8939
2456.00,1.8543
2455.00,1.8132
2454.00,1.7709
2453.00,1.7278
2452.00,1.6841
2451.00,1.6399
2450.00,1.5957
2449.00,1.5522
2448.00,1.5101
2447.00,1.4700
2446.00,1.4326
2445.00,1.3984
2444.00,1.3677
2443.00,1.3411
2442.00,1.3188
2441.00,1.3015
2440.00,1.2895
2439.00,1.2828
2438.00,1.2816
2437.00,1.2857
2436.00,1.2952
2435.00,1.3096
2434.00,1.3287
2433.00,1.3521
2432.00,1.3792
2431.00,1.4096
2430.00,1.4426
2429.00,1.4777
2428.00,1.5147
2427.00,1.5531
2426.00,1.5925
2425.00,1.6327
2424.00,1.6731
2423.00,1.7135
2422.00,1.7540
2421.00,1.7944
2420.00,1.8344
2419.00,1.8736
2418.00,1.9113
2417.00,1.9476
2416.00,1.9826
2415.00,2.0162
2414.00,2.0484
2413.00,2.0788
2412.00,2.1074
2411.00,2.1344
2410.00,2.1603
2409.00,2.1854
2408.00,2.2097
2407.00,2.2334
2406.00,2.2561
2405.00,2.2778
2404.00,2.2981
2403.00,2.3172
2402.00,2.3356
2401.00,2.3540
2400.00,2.3724
2399.00,2.3904
2398.00,2.4078
2397.00,2.4244
2396.00,2.4405
2395.00,2.4566
2394.00,2.4734
2393.00,2.4900
2392.00,2.5071
2391.00,2.5216
2390.00,2.5231
2389.00,2.5339
2388.00,2.5439
2387.00,2.5553
2386.00,2.5670
2385.00,2.5787
2384.00,2.5896
2383.00,2.5998
2382.00,2.6097
2381.00,2.6190
2380.00,2.6275
2379.00,2.6347
2378.00,2.6405
2377.00,2.6446
2376.00,2.6472
2375.00,2.6496
2374.00,2.6529
2373.00,2.6571
2372.00,2.6609
2371.00,2.6631
2370.00,2.6642
2369.00,2.6647
2368.00,2.6649
2367.00,2.6650
2366.00,2.6650
2365.00,2.6646
2364.00,2.6630
2363.00,2.6605
2362.00,2.6584
2361.00,2.6578
2360.00,2.6578
2359.00,2.6571
2358.00,2.6546
2357.00,2.6502
2356.00,2.6441
2355.00,2.6375
2354.00,2.6318
2353.00,2.6271
2352.00,2.6225
2351.00,2.6173
2350.00,2.6120
2349.00,2.6071
2348.00,2.6019
2347.00,2.5952
2346.00,2.5865
2345.00,2.5760
2344.00,2.5641
2343.00,2.5510
2342.00,2.5372
2341.00,2.5234
2340.00,2.5097
2339.00,2.4956
2338.00,2.4812
2337.00,2.4651
2336.00,2.4488
2335.00,2.4287
2334.00,2.4116
2333.00,2.3847
2332.00,2.3045
2331.00,2.2791
2330.00,2.2486
2329.00,2.2208
2328.00,2.2071
2327.00,2.2078
2326.00,2.2069
2325.00,2.2003
2324.00,2.1801
2323.00,2.1518
2322.00,2.1166
2321.00,2.0734
2320.00,2.0325
2319.00,1.9950
2318.00,1.9758
2317.00,1.9623
2316.00,1.9571
2315.00,1.9400
2314.00,1.9192
2313.00,1.8856
2312.00,1.8536
2311.00,1.8180
2310.00,1.7888
2309.00,1.7615
2308.00,1.7444
2307.00,1.7354
2306.00,1.7418
2305.00,1.7597
2304.00,1.7930
2303.00,1.8343
2302.00,1.8866
2301.00,1.9437
2300.00,2.0091
2299.00,2.0760
2298.00,2.1458
2297.00,2.2120
2296.00,2.2733
2295.00,2.3227
2294.00,2.3547
2293.00,2.3627
2292.00,2.3440
2291.00,2.3017
2290.00,2.2428
2289.00,2.1775
2288.00,2.1141
2287.00,2.0603
2286.00,2.0200
2285.00,1.9956
2284.00,1.9859
2283.00,1.9892
2282.00,2.0030
2281.00,2.0260
2280.00,2.0568
2279.00,2.0935
2278.00,2.1347
2277.00,2.1786
2276.00,2.2245
2275.00,2.2710
2274.00,2.3175
2273.00,2.3629
2272.00,2.4067
2271.00,2.4488
2270.00,2.4894
2269.00,2.5288
2268.00,2.5667
2267.00,2.6031
2266.00,2.6390
2265.00,2.6756
2264.00,2.7128
2263.00,2.7501
2262.00,2.7864
2261.00,2.8235
2260.00,2.8651
2259.00,2.9185
2258.00,2.9923
2257.00,3.0936
2256.00,3.2250
2255.00,3.3812
2254.00,3.5404
2253.00,3.6403
2252.00,3.6020
2251.00,3.4434
2250.00,3.2488
2249.00,3.0614
2248.00,2.8914
2247.00,2.7408
2246.00,2.6131
2245.00,2.5113
2244.00,2.4362
2243.00,2.3862
2242.00,2.3586
2241.00,2.3504
2240.00,2.3585
2239.00,2.3789
2238.00,2.4076
2237.00,2.4409
2236.00,2.4761
2235.00,2.5108
2234.00,2.5435
2233.00,2.5729
2232.00,2.5985
2231.00,2.6211
2230.00,2.6413
2229.00,2.6595
2228.00,2.6759
2227.00,2.6906
2226.00,2.7036
2225.00,2.7144
2224.00,2.7233
2223.00,2.7314
2222.00,2.7398
2221.00,2.7486
2220.00,2.7571
2219.00,2.7651
2218.00,2.7726
2217.00,2.7791
2216.00,2.7839
2215.00,2.7872
2214.00,2.7896
2213.00,2.7912
2212.00,2.7909
2211.00,2.7887
2210.00,2.7860
2209.00,2.7846
2208.00,2.7843
2207.00,2.7839
2206.00,2.7827
2205.00,2.7808
2204.00,2.7779
2203.00,2.7737
2202.00,2.7685
2201.00,2.7634
2200.00,2.7587
2199.00,2.7536
2198.00,2.7470
2197.00,2.7382
2196.00,2.7281
2195.00,2.7184
2194.00,2.7102
2193.00,2.7033
2192.00,2.6960
2191.00,2.6868
2190.00,2.6753
2189.00,2.6619
2188.00,2.6470
2187.00,2.6314
2186.00,2.6161
2185.00,2.6014
2184.00,2.5861
2183.00,2.5687
2182.00,2.5492
2181.00,2.5293
2180.00,2.5104
2179.00,2.4923
2178.00,2.4735
2177.00,2.4521
2176.00,2.4277
2175.00,2.4014
2174.00,2.3744
2173.00,2.3470
2172.00,2.3184
2171.00,2.2875
2170.00,2.2540
2169.00,2.2186
2168.00,2.1817
2167.00,2.1432
2166.00,2.1028
2165.00,2.0599
2164.00,2.0142
2163.00,1.9657
2162.00,1.9146
2161.00,1.8614
2160.00,1.8066
2159.00,1.7507
2158.00,1.6944
2157.00,1.6384
2156.00,1.5839
2155.00,1.5317
2154.00,1.4831
2153.00,1.4391
2152.00,1.4006
2151.00,1.3684
2150.00,1.3432
2149.00,1.3259
2148.00,1.3168
2147.00,1.3160
2146.00,1.3233
2145.00,1.3385
2144.00,1.3610
2143.00,1.3898
2142.00,1.4239
2141.00,1.4625
2140.00,1.5046
2139.00,1.5494
2138.00,1.5963
2137.00,1.6445
2136.00,1.6937
2135.00,1.7433
2134.00,1.7930
2133.00,1.8424
2132.00,1.8912
2131.00,1.9396
2130.00,1.9875
2129.00,2.0348
2128.00,2.0812
2127.00,2.1258
2126.00,2.1682
2125.00,2.2086
2124.00,2.2471
2123.00,2.2837
2122.00,2.3183
2121.00,2.3507
2120.00,2.3815
2119.00,2.4114
2118.00,2.4403
2117.00,2.4675
2116.00,2.4921
2115.00,2.5140
2114.00,2.5339
2113.00,2.5531
2112.00,2.5720
2111.00,2.5908
2110.00,2.6090
2109.00,2.6270
2108.00,2.6454
2107.00,2.6645
2106.00,2.6831
2105.00,2.6992
2104.00,2.7121
2103.00,2.7229
2102.00,2.7335
2101.00,2.7445
2100.00,2.7557
2099.00,2.7664
2098.00,2.7762
2097.00,2.7847
2096.00,2.7924
2095.00,2.8003
2094.00,2.8094
2093.00,2.8193
2092.00,2.8287
2091.00,2.8369
2090.00,2.8440
2089.00,2.8502
2088.00,2.8556
2087.00,2.8604
2086.00,2.8646
2085.00,2.8679
2084.00,2.8705
2083.00,2.8737
2082.00,2.8788
2081.00,2.8856
2080.00,2.8925
2079.00,2.8973
2078.00,2.8992
2077.00,2.8978
2076.00,2.8944
2075.00,2.8907
2074.00,2.8882
2073.00,2.8864
2072.00,2.8841
2071.00,2.8812
2070.00,2.8789
2069.00,2.8778
2068.00,2.8777
2067.00,2.8772
2066.00,2.8747
2065.00,2.8691
2064.00,2.8613
2063.00,2.8541
2062.00,2.8494
2061.00,2.8460
2060.00,2.8418
2059.00,2.8356
2058.00,2.8281
2057.00,2.8198
2056.00,2.8108
2055.00,2.8013
2054.00,2.7919
2053.00,2.7825
2052.00,2.7728
2051.00,2.7623
2050.00,2.7513
2049.00,2.7388
2048.00,2.7240
2047.00,2.7068
2046.00,2.6886
2045.00,2.6711
2044.00,2.6550
2043.00,2.6393
2042.00,2.6227
2041.00,2.6039
2040.00,2.5822
2039.00,2.5581
2038.00,2.5325
2037.00,2.5064
2036.00,2.4805
2035.00,2.4549
2034.00,2.4289
2033.00,2.4012
2032.00,2.3707
2031.00,2.3374
2030.00,2.3020
2029.00,2.2652
2028.00,2.2268
2027.00,2.1864
2026.00,2.1435
2025.00,2.0978
2024.00,2.0496
2023.00,1.9989
2022.00,1.9461
2021.00,1.8919
2020.00,1.8372
2019.00,1.7824
2018.00,1.7275
2017.00,1.6724
2016.00,1.6183
2015.00,1.5672
2014.00,1.5213
2013.00,1.4816
2012.00,1.4488
2011.00,1.4233
2010.00,1.4057
2009.00,1.3965
2008.00,1.3956
2007.00,1.4030
2006.00,1.4183
2005.00,1.4410
2004.00,1.4704
2003.00,1.5055
2002.00,1.5453
2001.00,1.5888
2000.00,1.6351
1999.00,1.6835
1998.00,1.7331
1997.00,1.7834
1996.00,1.8348
1995.00,1.8876
1994.00,1.9417
1993.00,1.9957
1992.00,2.0473
1991.00,2.0957
1990.00,2.1418
1989.00,2.1870
1988.00,2.2314
1987.00,2.2741
1986.00,2.3144
1985.00,2.3521
1984.00,2.3874
1983.00,2.4207
1982.00,2.4521
1981.00,2.4818
1980.00,2.5098
1979.00,2.5368
1978.00,2.5634
1977.00,2.5894
1976.00,2.6135
1975.00,2.6352
1974.00,2.6549
1973.00,2.6740
1972.00,2.6935
1971.00,2.7135
1970.00,2.7332
1969.00,2.7517
1968.00,2.7685
1967.00,2.7835
1966.00,2.7970
1965.00,2.8096
1964.00,2.8221
1963.00,2.8351
1962.00,2.8491
1961.00,2.8636
1960.00,2.8777
1959.00,2.8905
1958.00,2.9020
1957.00,2.9124
1956.00,2.9215
1955.00,2.9288
1954.00,2.9348
1953.00,2.9409
1952.00,2.9480
1951.00,2.9555
1950.00,2.9625
1949.00,2.9689
1948.00,2.9747
1947.00,2.9786
1946.00,2.9798
1945.00,2.9796
1944.00,2.9807
1943.00,2.9841
1942.00,2.9883
1941.00,2.9919
1940.00,2.9945
1939.00,2.9955
1938.00,2.9945
1937.00,2.9917
1936.00,2.9897
1935.00,2.9909
1934.00,2.9941
1933.00,2.9950
1932.00,2.9911
1931.00,2.9848
1930.00,2.9808
1929.00,2.9805
1928.00,2.9816
1927.00,2.9816
1926.00,2.9811
1925.00,2.9820
1924.00,2.9830
1923.00,2.9798
1922.00,2.9713
1921.00,2.9607
1920.00,2.9521
1919.00,2.9453
1918.00,2.9369
1917.00,2.9250
1916.00,2.9119
1915.00,2.9006
1914.00,2.8918
1913.00,2.8840
1912.00,2.8749
1911.00,2.8623
1910.00,2.8462
1909.00,2.8289
1908.00,2.8132
1907.00,2.8000
1906.00,2.7865
1905.00,2.7703
1904.00,2.7515
1903.00,2.7316
1902.00,2.7119
1901.00,2.6925
1900.00,2.6726
1899.00,2.6521
1898.00,2.6310
1897.00,2.6092
1896.00,2.5855
1895.00,2.5580
1894.00,2.5266
1893.00,2.4938
1892.00,2.4621
1891.00,2.4307
1890.00,2.3960
1889.00,2.3559
1888.00,2.3124
1887.00,2.2683
1886.00,2.2236
1885.00,2.1766
1884.00,2.1263
1883.00,2.0731
1882.00,2.0181
1881.00,1.9624
1880.00,1.9064
1879.00,1.8508
1878.00,1.7961
1877.00,1.7435
1876.00,1.6945
1875.00,1.6497
1874.00,1.6092
1873.00,1.5742
1872.00,1.5470
1871.00,1.5300
1870.00,1.5233
1869.00,1.5239
1868.00,1.5293
1867.00,1.5404
1866.00,1.5593
1865.00,1.5871
1864.00,1.6229
1863.00,1.6650
1862.00,1.7116
1861.00,1.7614
1860.00,1.8132
1859.00,1.8661
1858.00,1.9195
1857.00,1.9733
1856.00,2.0275
1855.00,2.0815
1854.00,2.1352
1853.00,2.1881
1852.00,2.2392
1851.00,2.2884
1850.00,2.3355
1849.00,2.3795
1848.00,2.4192
1847.00,2.4555
1846.00,2.4918
1845.00,2.5299
1844.00,2.5662
1843.00,2.5967
1842.00,2.6228
1841.00,2.6482
1840.00,2.6746
1839.00,2.7009
1838.00,2.7264
1837.00,2.7513
1836.00,2.7752
1835.00,2.7958
1834.00,2.8122
1833.00,2.8265
1832.00,2.8424
1831.00,2.8616
1830.00,2.8799
1829.00,2.8934
1828.00,2.9045
1827.00,2.9187
1826.00,2.9379
1825.00,2.9578
1824.00,2.9725
1823.00,2.9817
1822.00,2.9897
1821.00,2.9993
1820.00,3.0098
1819.00,3.0199
1818.00,3.0303
1817.00,3.0415
1816.00,3.0511
1815.00,3.0577
1814.00,3.0643
1813.00,3.0746
1812.00,3.0877
1811.00,3.0982
1810.00,3.1025
1809.00,3.1014
1808.00,3.0975
1807.00,3.0943
1806.00,3.0956
1805.00,3.1032
1804.00,3.1133
1803.00,3.1207
1802.00,3.1237
1801.00,3.1241
1800.00,3.1254
1799.00,3.1289
1798.00,3.1336
1797.00,3.1362
1796.00,3.1335
1795.00,3.1267
1794.00,3.1210
1793.00,3.1200
1792.00,3.1202
1791.00,3.1159
1790.00,3.1071
1789.00,3.0973
1788.00,3.0890
1787.00,3.0836
1786.00,3.0809
1785.00,3.0790
1784.00,3.0745
1783.00,3.0671
1782.00,3.0582
1781.00,3.0473
1780.00,3.0340
1779.00,3.0193
1778.00,3.0046
1777.00,2.9886
1776.00,2.9706
1775.00,2.9538
1774.00,2.9420
1773.00,2.9319
1772.00,2.9169
1771.00,2.8980
1770.00,2.8829
1769.00,2.8723
1768.00,2.8580
1767.00,2.8343
1766.00,2.8039
1765.00,2.7739
1764.00,2.7480
1763.00,2.7248
1762.00,2.6992
1761.00,2.6677
1760.00,2.6331
1759.00,2.5999
1758.00,2.5693
1757.00,2.5359
1756.00,2.4958
1755.00,2.4534
1754.00,2.4158
1753.00,2.3841
1752.00,2.3540
1751.00,2.3206
1750.00,2.2840
1749.00,2.2480
1748.00,2.2153
1747.00,2.1885
1746.00,2.1700
1745.00,2.1592
1744.00,2.1530
1743.00,2.1489
1742.00,2.1489
1741.00,2.1579
1740.00,2.1757
1739.00,2.1954
1738.00,2.2131
1737.00,2.2333
1736.00,2.2647
1735.00,2.3118
1734.00,2.3665
1733.00,2.4173
1732.00,2.4640
1731.00,2.5111
1730.00,2.5621
1729.00,2.6169
1728.00,2.6739
1727.00,2.7332
1726.00,2.7937
1725.00,2.8543
1724.00,2.9134
1723.00,2.9693
1722.00,3.0229
1721.00,3.0786
1720.00,3.1430
1719.00,3.2209
1718.00,3.3039
1717.00,3.3743
1716.00,3.4261
1715.00,3.4742
1714.00,3.5340
1713.00,3.6046
1712.00,3.6766
1711.00,3.7516
1710.00,3.8355
1709.00,3.8990
1708.00,3.8790
1707.00,3.7782
1706.00,3.6562
1705.00,3.5388
1704.00,3.4282
1703.00,3.3237
1702.00,3.2150
1701.00,3.0848
1700.00,2.9369
1699.00,2.8016
1698.00,2.6985
1697.00,2.6199
1696.00,2.5490
1695.00,2.4840
1694.00,2.4387
1693.00,2.4217
1692.00,2.4304
1691.00,2.4567
1690.00,2.4918
1689.00,2.5279
1688.00,2.5628
1687.00,2.5993
1686.00,2.6434
1685.00,2.6984
1684.00,2.7509
1683.00,2.7920
1682.00,2.8278
1681.00,2.8607
1680.00,2.8880
1679.00,2.9085
1678.00,2.9252
1677.00,2.9438
1676.00,2.9659
1675.00,2.9885
1674.00,3.0095
1673.00,3.0315
1672.00,3.0575
1671.00,3.0856
1670.00,3.1082
1669.00,3.1188
1668.00,3.1220
1667.00,3.1278
1666.00,3.1423
1665.00,3.1650
1664.00,3.1883
1663.00,3.2009
1662.00,3.2011
1661.00,3.1990
1660.00,3.2018
1659.00,3.2078
1658.00,3.2120
1657.00,3.2133
1656.00,3.2145
1655.00,3.2206
1654.00,3.2329
1653.00,3.2402
1652.00,3.2409
1651.00,3.2411
1650.00,3.2413
1649.00,3.2457
1648.00,3.2526
1647.00,3.2522
1646.00,3.2423
1645.00,3.2348
1644.00,3.2353
1643.00,3.2398
1642.00,3.2436
1641.00,3.2443
1640.00,3.2433
1639.00,3.2418
1638.00,3.2388
1637.00,3.2324
1636.00,3.2211
1635.00,3.2087
1634.00,3.2022
1633.00,3.2017
1632.00,3.2028
1631.00,3.2029
1630.00,3.2004
1629.00,3.1942
1628.00,3.1848
1627.00,3.1751
1626.00,3.1679
1625.00,3.1629
1624.00,3.1569
1623.00,3.1462
1622.00,3.1300
1621.00,3.1095
1620.00,3.0878
1619.00,3.0696
1618.00,3.0576
1617.00,3.0464
1616.00,3.0273
1615.00,3.0019
1614.00,2.9788
1613.00,2.9613
1612.00,2.9453
1611.00,2.9266
1610.00,2.9059
1609.00,2.8857
1608.00,2.8648
1607.00,2.8405
1606.00,2.8122
1605.00,2.7806
1604.00,2.7467
1603.00,2.7104
1602.00,2.6711
1601.00,2.6291
1600.00,2.5857
1599.00,2.5423
1598.00,2.4988
1597.00,2.4540
1596.00,2.4071
1595.00,2.3585
1594.00,2.3094
1593.00,2.2611
1592.00,2.2144
1591.00,2.1701
1590.00,2.1286
1589.00,2.0906
1588.00,2.0572
1587.00,2.0301
1586.00,2.0112
1585.00,2.0011
1584.00,1.9998
1583.00,2.0077
1582.00,2.0241
1581.00,2.0461
1580.00,2.0716
1579.00,2.1020
1578.00,2.1403
1577.00,2.1865
1576.00,2.2336
1575.00,2.2755
1574.00,2.3124
1573.00,2.3477
1572.00,2.3859
1571.00,2.4306
1570.00,2.4809
1569.00,2.5307
1568.00,2.5762
1567.00,2.6187
1566.00,2.6597
1565.00,2.6980
1564.00,2.7299
1563.00,2.7543
1562.00,2.7755
1561.00,2.8008
1560.00,2.8432
1559.00,2.8873
1558.00,2.9130
1557.00,2.9383
1556.00,2.9692
1555.00,2.9991
1554.00,3.0252
1553.00,3.0504
1552.00,3.0805
1551.00,3.1124
1550.00,3.1362
1549.00,3.1460
1548.00,3.1459
1547.00,3.1447
1546.00,3.1489
1545.00,3.1586
1544.00,3.1687
1543.00,3.1755
1542.00,3.1828
1541.00,3.1982
1540.00,3.2180
1539.00,3.2341
1538.00,3.2454
1537.00,3.2535
1536.00,3.2637
1535.00,3.2815
1534.00,3.3041
1533.00,3.3202
1532.00,3.3238
1531.00,3.3196
1530.00,3.3181
1529.00,3.3305
1528.00,3.3595
1527.00,3.3937
1526.00,3.4147
1525.00,3.4146
1524.00,3.4031
1523.00,3.3944
1522.00,3.3924
1521.00,3.3920
1520.00,3.3935
1519.00,3.4006
1518.00,3.4114
1517.00,3.4197
1516.00,3.4211
1515.00,3.4194
1514.00,3.4196
1513.00,3.4216
1512.00,3.4224
1511.00,3.4172
1510.00,3.4050
1509.00,3.3901
1508.00,3.3804
1507.00,3.3737
1506.00,3.3726
1505.00,3.3827
1504.00,3.3901
1503.00,3.3863
1502.00,3.3772
1501.00,3.3684
1500.00,3.3634
1499.00,3.3655
1498.00,3.3756
1497.00,3.3878
1496.00,3.3878
1495.00,3.3651
1494.00,3.3279
1493.00,3.2971
1492.00,3.2871
1491.00,3.2982
1490.00,3.3188
1489.00,3.3363
1488.00,3.3429
1487.00,3.3322
1486.00,3.3052
1485.00,3.2730
1484.00,3.2469
1483.00,3.2302
1482.00,3.2174
1481.00,3.2024
1480.00,3.1856
1479.00,3.1713
1478.00,3.1595
1477.00,3.1463
1476.00,3.1294
1475.00,3.1119
1474.00,3.0986
1473.00,3.0885
1472.00,3.0783
1471.00,3.0713
1470.00,3.0717
1469.00,3.0780
1468.00,3.0859
1467.00,3.0947
1466.00,3.1083
1465.00,3.1294
1464.00,3.1550
1463.00,3.1787
1462.00,3.1948
1461.00,3.2049
1460.00,3.2165
1459.00,3.2396
1458.00,3.2795
1457.00,3.3310
1456.00,3.3842
1455.00,3.4298
1454.00,3.4644
1453.00,3.4980
1452.00,3.5411
1451.00,3.5932
1450.00,3.6397
1449.00,3.6600
1448.00,3.6484
1447.00,3.6225
1446.00,3.6029
1445.00,3.5928
1444.00,3.5855
1443.00,3.5775
1442.00,3.5704
1441.00,3.5637
1440.00,3.5531
1439.00,3.5370
1438.00,3.5205
1437.00,3.5081
1436.00,3.4970
1435.00,3.4853
1434.00,3.4767
1433.00,3.4736
1432.00,3.4761
1431.00,3.4819
1430.00,3.4853
1429.00,3.4780
1428.00,3.4569
1427.00,3.4351
1426.00,3.4313
1425.00,3.4494
1424.00,3.4726
1423.00,3.4787
1422.00,3.4646
1421.00,3.4456
1420.00,3.4352
1419.00,3.4330
1418.00,3.4329
1417.00,3.4363
1416.00,3.4444
1415.00,3.4505
1414.00,3.4460
1413.00,3.4271
1412.00,3.3975
1411.00,3.3640
1410.00,3.3322
1409.00,3.3069
1408.00,3.2911
1407.00,3.2867
1406.00,3.2932
1405.00,3.3067
1404.00,3.3210
1403.00,3.3317
1402.00,3.3389
1401.00,3.3446
1400.00,3.3489
1399.00,3.3485
1398.00,3.3428
1397.00,3.3358
1396.00,3.3308
1395.00,3.3283
1394.00,3.3299
1393.00,3.3389
1392.00,3.3566
1391.00,3.3830
1390.00,3.4205
1389.00,3.4729
1388.00,3.5367
1387.00,3.5954
1386.00,3.6299
1385.00,3.6417
1384.00,3.6511
1383.00,3.6729
1382.00,3.7041
1381.00,3.7295
1380.00,3.7400
1379.00,3.7521
1378.00,3.7956
1377.00,3.8817
1376.00,3.9701
1375.00,3.9736
1374.00,3.8764
1373.00,3.7514
1372.00,3.6429
1371.00,3.5603
1370.00,3.5058
1369.00,3.4794
1368.00,3.4752
1367.00,3.4831
1366.00,3.4954
1365.00,3.5096
1364.00,3.5226
1363.00,3.5302
1362.00,3.5317
1361.00,3.5318
1360.00,3.5344
1359.00,3.5384
1358.00,3.5418
1357.00,3.5467
1356.00,3.5569
1355.00,3.5739
1354.00,3.5982
1353.00,3.6301
1352.00,3.6618
1351.00,3.6776
1350.00,3.6712
1349.00,3.6555
1348.00,3.6475
1347.00,3.6501
1346.00,3.6532
1345.00,3.6476
1344.00,3.6361
1343.00,3.6274
1342.00,3.6267
1341.00,3.6332
1340.00,3.6410
1339.00,3.6430
1338.00,3.6392
1337.00,3.6347
1336.00,3.6296
1335.00,3.6211
1334.00,3.6087
1333.00,3.5939
1332.00,3.5772
1331.00,3.5594
1330.00,3.5440
1329.00,3.5349
1328.00,3.5309
1327.00,3.5254
1326.00,3.5125
1325.00,3.4935
1324.00,3.4758
1323.00,3.4661
1322.00,3.4664
1321.00,3.4735
1320.00,3.4810
1319.00,3.4815
1318.00,3.4721
1317.00,3.4572
1316.00,3.4441
1315.00,3.4373
1314.00,3.4375
1313.00,3.4412
1312.00,3.4416
1311.00,3.4315
1310.00,3.4101
1309.00,3.3834
1308.00,3.3588
1307.00,3.3394
1306.00,3.3215
1305.00,3.2964
1304.00,3.2585
1303.00,3.2118
1302.00,3.1671
1301.00,3.1300
1300.00,3.0961
1299.00,3.0579
1298.00,3.0143
1297.00,2.9702
1296.00,2.9280
1295.00,2.8835
1294.00,2.8324
1293.00,2.7758
1292.00,2.7183
1291.00,2.6623
1290.00,2.6068
1289.00,2.5503
1288.00,2.4936
1287.00,2.4399
1286.00,2.3925
1285.00,2.3542
1284.00,2.3273
1283.00,2.3135
1282.00,2.3131
1281.00,2.3254
1280.00,2.3489
1279.00,2.3818
1278.00,2.4215
1277.00,2.4640
1276.00,2.5055
1275.00,2.5442
1274.00,2.5806
1273.00,2.6162
1272.00,2.6519
1271.00,2.6893
1270.00,2.7299
1269.00,2.7728
1268.00,2.8154
1267.00,2.8559
1266.00,2.8967
1265.00,2.9419
1264.00,2.9920
1263.00,3.0422
1262.00,3.0866
1261.00,3.1221
1260.00,3.1504
1259.00,3.1758
1258.00,3.2030
1257.00,3.2339
1256.00,3.2652
1255.00,3.2929
1254.00,3.3167
1253.00,3.3391
1252.00,3.3592
1251.00,3.3724
1250.00,3.3787
1249.00,3.3856
1248.00,3.3990
1247.00,3.4194
1246.00,3.4441
1245.00,3.4703
1244.00,3.4954
1243.00,3.5170
1242.00,3.5366
1241.00,3.5586
1240.00,3.5822
1239.00,3.6020
1238.00,3.6180
1237.00,3.6365
1236.00,3.6575
1235.00,3.6682
1234.00,3.6596
1233.00,3.6447
1232.00,3.6450
1231.00,3.6683
1230.00,3.7035
1229.00,3.7292
1228.00,3.7304
1227.00,3.7158
1226.00,3.7094
1225.00,3.7212
1224.00,3.7405
1223.00,3.7550
1222.00,3.7634
1221.00,3.7702
1220.00,3.7783
1219.00,3.7915
1218.00,3.8153
1217.00,3.8548
1216.00,3.9121
1215.00,3.9748
1214.00,3.9954
1213.00,3.9362
1212.00,3.8452
1211.00,3.7784
1210.00,3.7450
1209.00,3.7300
1208.00,3.7267
1207.00,3.7459
1206.00,3.8008
1205.00,3.8815
1204.00,3.9178
1203.00,3.8635
1202.00,3.7834
1201.00,3.7347
1200.00,3.7244
1199.00,3.7302
1198.00,3.7408
1197.00,3.7604
1196.00,3.7772
1195.00,3.7767
1194.00,3.7669
1193.00,3.7693
1192.00,3.7966
1191.00,3.8385
1190.00,3.8602
1189.00,3.8319
1188.00,3.7692
1187.00,3.7108
1186.00,3.6769
1185.00,3.6615
1184.00,3.6461
1183.00,3.6259
1182.00,3.6105
1181.00,3.6042
1180.00,3.6059
1179.00,3.6083
1178.00,3.5962
1177.00,3.5693
1176.00,3.5449
1175.00,3.5345
1174.00,3.5345
1173.00,3.5308
1172.00,3.5112
1171.00,3.4776
1170.00,3.4448
1169.00,3.4250
1168.00,3.4126
1167.00,3.3860
1166.00,3.3336
1165.00,3.2693
1164.00,3.2136
1163.00,3.1758
1162.00,3.1546
1161.00,3.1422
1160.00,3.1257
1159.00,3.0921
1158.00,3.0377
1157.00,2.9716
1156.00,2.9064
1155.00,2.8487
1154.00,2.7976
1153.00,2.7503
1152.00,2.7058
1151.00,2.6652
1150.00,2.6294
1149.00,2.5991
1148.00,2.5763
1147.00,2.5648
1146.00,2.5674
1145.00,2.5838
1144.00,2.6112
1143.00,2.6459
1142.00,2.6865
1141.00,2.7327
1140.00,2.7838
1139.00,2.8382
1138.00,2.8936
1137.00,2.9482
1136.00,3.0008
1135.00,3.0509
1134.00,3.0984
1133.00,3.1427
1132.00,3.1825
1131.00,3.2196
1130.00,3.2610
1129.00,3.3115
1128.00,3.3666
1127.00,3.4174
1126.00,3.4602
1125.00,3.4959
1124.00,3.5206
1123.00,3.5271
1122.00,3.5240
1121.00,3.5303
1120.00,3.5490
1119.00,3.5680
1118.00,3.5788
1117.00,3.5851
1116.00,3.5958
1115.00,3.6171
1114.00,3.6451
1113.00,3.6620
1112.00,3.6526
1111.00,3.6256
1110.00,3.5996
1109.00,3.5879
1108.00,3.5934
1107.00,3.6096
1106.00,3.6343
1105.00,3.6693
1104.00,3.7065
1103.00,3.7332
1102.00,3.7522
1101.00,3.7921
1100.00,3.8608
1099.00,3.9216
1098.00,3.9593
1097.00,4.0253
1096.00,4.0995
1095.00,4.1154
1094.00,4.1021
1093.00,3.9812
1092.00,3.8444
1091.00,3.8151
1090.00,3.8843
1089.00,3.9709
1088.00,3.9126
1087.00,3.7630
1086.00,3.6684
1085.00,3.6605
1084.00,3.7285
1083.00,3.8377
1082.00,3.9658
1081.00,4.1050
1080.00,4.1586
1079.00,4.1175
1078.00,4.0832
1077.00,4.0453
1076.00,3.9777
1075.00,3.9126
1074.00,3.8799
1073.00,3.9232
1072.00,4.0648
1071.00,4.3517
1070.00,4.9091
1069.00,4.7504
1068.00,4.6437
1067.00,4.6310
1066.00,4.2448
1065.00,4.0400
1064.00,3.9687
1063.00,3.9611
1062.00,3.9773
1061.00,3.9741
1060.00,3.9548
1059.00,3.9210
1058.00,3.8854
1057.00,3.8662
1056.00,3.8533
1055.00,3.8291
1054.00,3.8145
1053.00,3.8294
1052.00,3.8670
1051.00,3.9143
1050.00,3.9712
1049.00,4.0415
1048.00,4.1379
1047.00,4.2546
1046.00,4.3032
1045.00,4.2828
1044.00,4.2313
1043.00,4.1799
1042.00,4.1974
1041.00,4.3746
1040.00,4.5191
1039.00,4.2563
1038.00,4.0768
1037.00,4.0190
1036.00,4.0204
1035.00,4.0615
1034.00,4.1314
1033.00,4.2170
1032.00,4.2198
1031.00,4.2379
1030.00,4.3833
1029.00,4.3598
1028.00,4.1675
1027.00,4.0985
1026.00,4.0925
1025.00,4.0328
1024.00,3.9540
1023.00,3.9364
1022.00,3.9640
1021.00,3.9577
1020.00,3.9084
1019.00,3.8639
1018.00,3.8333
1017.00,3.8081
1016.00,3.7953
1015.00,3.8122
1014.00,3.8565
1013.00,3.8923
1012.00,3.8868
1011.00,3.8327
1010.00,3.7490
1009.00,3.6623
1008.00,3.5890
1007.00,3.5414
1006.00,3.5170
1005.00,3.4988
1004.00,3.4773
1003.00,3.4548
1002.00,3.4330
1001.00,3.4067
1000.00,3.3742
999.00,3.3421
998.00,3.3165
997.00,3.2972
996.00,3.2835
995.00,3.2791
994.00,3.2879
993.00,3.3060
992.00,3.3280
991.00,3.3543
990.00,3.3856
989.00,3.4184
988.00,3.4476
987.00,3.4708
986.00,3.4926
985.00,3.5203
984.00,3.5503
983.00,3.5707
982.00,3.5840
981.00,3.6038
980.00,3.6341
979.00,3.6673
978.00,3.6913
977.00,3.7061
976.00,3.7250
975.00,3.7496
974.00,3.7707
973.00,3.7941
972.00,3.8276
971.00,3.8663
970.00,3.9090
969.00,3.9552
968.00,4.0034
967.00,4.0717
966.00,4.1728
965.00,4.2650
964.00,4.2992
963.00,4.2359
962.00,4.0566
961.00,3.8732
960.00,3.7581
959.00,3.7169
958.00,3.7406
957.00,3.8114
956.00,3.9003
955.00,3.9963
954.00,4.1203
953.00,4.2372
952.00,4.2120
951.00,4.0809
950.00,3.9768
949.00,3.9163
948.00,3.8661
947.00,3.8250
946.00,3.8411
945.00,3.9584
944.00,4.2120
943.00,4.5664
942.00,4.8238
941.00,5.1190
940.00,5.4322
939.00,4.9359
938.00,4.4850
937.00,4.3039
936.00,4.3195
935.00,4.4486
934.00,4.5807
933.00,4.6424
932.00,4.6998
931.00,4.6335
930.00,4.3711
929.00,4.1184
928.00,3.9717
927.00,3.9186
926.00,3.9080
925.00,3.8983
924.00,3.9075
923.00,3.9703
922.00,4.0897
921.00,4.1455
920.00,4.2247
919.00,4.5378
918.00,4.4305
917.00,4.1365
916.00,4.0465
915.00,4.0414
914.00,4.1021
913.00,4.2068
912.00,4.3406
911.00,4.4353
910.00,4.3371
909.00,4.1402
908.00,4.1740
907.00,4.4335
906.00,4.2428
905.00,4.0442
904.00,4.1435
903.00,4.6255
902.00,4.6682
901.00,4.2525
900.00,4.0711
899.00,3.9205
898.00,3.8360
897.00,3.8174
896.00,3.8446
895.00,3.9099
894.00,3.9909
893.00,4.0099
892.00,3.9415
891.00,3.8554
890.00,3.8152
889.00,3.8443
888.00,4.0132
887.00,4.4902
886.00,4.5055
885.00,4.1264
884.00,4.1267
883.00,4.3657
882.00,4.3312
881.00,4.0845
880.00,3.9739
879.00,3.9303
878.00,3.9311
877.00,3.9636
876.00,3.9842
875.00,4.0071
874.00,4.0711
873.00,4.1689
872.00,4.2346
871.00,4.2299
870.00,4.1976
869.00,4.1633
868.00,4.0797
867.00,3.9383
866.00,3.8005
865.00,3.7017
864.00,3.6396
863.00,3.6041
862.00,3.5939
861.00,3.6105
860.00,3.6424
859.00,3.6681
858.00,3.6893
857.00,3.7193
856.00,3.7300
855.00,3.6850
854.00,3.6158
853.00,3.5857
852.00,3.6319
851.00,3.7505
850.00,3.8650
849.00,3.8884
848.00,3.8780
847.00,3.8961
846.00,3.9368
845.00,3.9685
844.00,3.9776
843.00,3.9934
842.00,4.0336
841.00,4.1190
840.00,4.2308
839.00,4.2057
838.00,4.1033
837.00,4.0463
836.00,3.9834
835.00,3.8792
834.00,3.7690
833.00,3.6961
832.00,3.6655
831.00,3.6558
830.00,3.6514
829.00,3.6588
828.00,3.6946
827.00,3.7651
826.00,3.8480
825.00,3.8875
824.00,3.8416
823.00,3.7387
822.00,3.6397
821.00,3.5825
820.00,3.5802
819.00,3.6334
818.00,3.7222
817.00,3.7850
816.00,3.7941
815.00,3.8142
814.00,3.8939
813.00,4.0264
812.00,4.1443
811.00,4.1536
810.00,4.0608
809.00,3.9753
808.00,3.9760
807.00,4.1082
806.00,4.3928
805.00,4.6613
804.00,4.5643
803.00,4.3468
802.00,4.2016
801.00,4.1156
800.00,4.0360
799.00,3.9181
798.00,3.8072
797.00,3.7571
796.00,3.7620
795.00,3.7909
794.00,3.8094
793.00,3.7947
792.00,3.7605
791.00,3.7476
790.00,3.7849
789.00,3.8675
788.00,3.9713
787.00,4.0713
786.00,4.1029
785.00,4.0493
784.00,3.9965
783.00,4.0473
782.00,4.2896
781.00,4.3464
780.00,4.1050
779.00,4.0516
778.00,4.1466
777.00,4.2431
776.00,4.2235
775.00,4.1475
774.00,4.3829
773.00,4.5658
772.00,4.0548
771.00,3.9724
770.00,4.0837
769.00,4.2072
768.00,4.1348
767.00,3.9743
766.00,3.9890
765.00,4.2036
764.00,4.4997
763.00,4.3195
762.00,4.1476
761.00,4.1380
760.00,4.3196
759.00,4.5902
758.00,4.3037
757.00,4.1087
756.00,4.0568
755.00,4.2457
754.00,4.6459
753.00,4.2176
752.00,4.0446
751.00,4.0303
750.00,3.9716
749.00,3.8944
748.00,3.8584
747.00,3.8606
746.00,3.8564
745.00,3.8876
744.00,3.9703
743.00,4.0023
742.00,3.9000
741.00,3.7495
740.00,3.6222
739.00,3.5468
738.00,3.5319
737.00,3.5750
736.00,3.6599
735.00,3.7292
734.00,3.7367
733.00,3.7452
732.00,3.8481
731.00,3.9987
730.00,4.0068
729.00,3.8927
728.00,3.7302
727.00,3.6184
726.00,3.5850
725.00,3.5908
724.00,3.6023
723.00,3.5983
722.00,3.5785
721.00,3.5534
720.00,3.5278
719.00,3.5059
718.00,3.5005
717.00,3.5208
716.00,3.5606
715.00,3.6134
714.00,3.6852
713.00,3.7646
712.00,3.8152
711.00,3.8295
710.00,3.8168
709.00,3.7843
708.00,3.7554
707.00,3.7509
706.00,3.7665
705.00,3.7911
704.00,3.8214
703.00,3.8404
702.00,3.8079
701.00,3.7109
700.00,3.5991
