Created as New Dataset,Sample 042 By Administrator Date Wednesday, November 24 2021
cm-1,A
7502.00,0.7715
7501.00,0.7643
7500.00,0.7572
7499.00,0.7502
7498.00,0.7434
7497.00,0.7366
7496.00,0.7299
7495.00,0.7234
7494.00,0.7169
7493.00,0.7104
7492.00,0.7045
7491.00,0.6997
7490.00,0.6956
7489.00,0.6909
7488.00,0.6845
7487.00,0.6763
7486.00,0.6669
7485.00,0.6569
7484.00,0.6463
7483.00,0.6354
7482.00,0.6248
7481.00,0.6158
7480.00,0.6087
7479.00,0.6029
7478.00,0.5976
7477.00,0.5923
7476.00,0.5872
7475.00,0.5828
7474.00,0.5789
7473.00,0.5754
7472.00,0.5718
7471.00,0.5678
7470.00,0.5634
7469.00,0.5588
7468.00,0.5545
7467.00,0.5506
7466.00,0.5469
7465.00,0.5429
7464.00,0.5385
7463.00,0.5338
7462.00,0.5294
7461.00,0.5254
7460.00,0.5219
7459.00,0.5186
7458.00,0.5156
7457.00,0.5133
7456.00,0.5120
7455.00,0.5115
7454.00,0.5116
7453.00,0.5117
7452.00,0.5117
7451.00,0.5118
7450.00,0.5123
7449.00,0.5131
7448.00,0.5143
7447.00,0.5158
7446.00,0.5177
7445.00,0.5205
7444.00,0.5237
7443.00,0.5272
7442.00,0.5307
7441.00,0.5347
7440.00,0.5392
7439.00,0.5440
7438.00,0.5489
7437.00,0.5538
7436.00,0.5591
7435.00,0.5649
7434.00,0.5715
7433.00,0.5784
7432.00,0.5854
7431.00,0.5923
7430.00,0.5996
7429.00,0.6076
7428.00,0.6163
7427.00,0.6253
7426.00,0.6340
7425.00,0.6424
7424.00,0.6505
7423.00,0.6587
7422.00,0.6670
7421.00,0.6754
7420.00,0.6839
7419.00,0.6926
7418.00,0.7020
7417.00,0.7118
7416.00,0.7216
7415.00,0.7308
7414.00,0.7397
7413.00,0.7485
7412.00,0.7575
7411.00,0.7665
7410.00,0.7753
7409.00,0.7841
7408.00,0.7934
7407.00,0.8029
7406.00,0.8122
7405.00,0.8213
7404.00,0.8302
7403.00,0.8388
7402.00,0.8470
7401.00,0.8548
7400.00,0.8621
7399.00,0.8690
7398.00,0.8758
7397.00,0.8828
7396.00,0.8904
7395.00,0.8986
7394.00,0.9068
7393.00,0.9142
7392.00,0.9204
7391.00,0.9258
7390.00,0.9305
7389.00,0.9345
7388.00,0.9379
7387.00,0.9415
7386.00,0.9460
7385.00,0.9517
7384.00,0.9578
7383.00,0.9634
7382.00,0.9683
7381.00,0.9726
7380.00,0.9764
7379.00,0.9798
7378.00,0.9828
7377.00,0.9850
7376.00,0.9858
7375.00,0.9851
7374.00,0.9837
7373.00,0.9827
7372.00,0.9822
7371.00,0.9815
7370.00,0.9803
7369.00,0.9787
7368.00,0.9773
7367.00,0.9765
7366.00,0.9760
7365.00,0.9753
7364.00,0.9742
7363.00,0.9722
7362.00,0.9698
7361.00,0.9671
7360.00,0.9641
7359.00,0.9604
7358.00,0.9555
7357.00,0.9496
7356.00,0.9432
7355.00,0.9375
7354.00,0.9327
7353.00,0.9285
7352.00,0.9240
7351.00,0.9188
7350.00,0.9130
7349.00,0.9069
7348.00,0.9002
7347.00,0.8927
7346.00,0.8848
7345.00,0.8774
7344.00,0.8707
7343.00,0.8643
7342.00,0.8577
7341.00,0.8506
7340.00,0.8433
7339.00,0.8354
7338.00,0.8272
7337.00,0.8187
7336.00,0.8102
7335.00,0.8016
7334.00,0.7932
7333.00,0.7851
7332.00,0.7776
7331.00,0.7708
7330.00,0.7643
7329.00,0.7576
7328.00,0.7507
7327.00,0.7435
7326.00,0.7363
7325.00,0.7291
7324.00,0.7218
7323.00,0.7142
7322.00,0.7067
7321.00,0.6998
7320.00,0.6938
7319.00,0.6887
7318.00,0.6840
7317.00,0.6796
7316.00,0.6753
7315.00,0.6712
7314.00,0.6673
7313.00,0.6637
7312.00,0.6603
7311.00,0.6574
7310.00,0.6552
7309.00,0.6537
7308.00,0.6529
7307.00,0.6522
7306.00,0.6518
7305.00,0.6517
7304.00,0.6518
7303.00,0.6520
7302.00,0.6524
7301.00,0.6534
7300.00,0.6552
7299.00,0.6578
7298.00,0.6611
7297.00,0.6649
7296.00,0.6690
7295.00,0.6734
7294.00,0.6782
7293.00,0.6834
7292.00,0.6892
7291.00,0.6953
7290.00,0.7015
7289.00,0.7081
7288.00,0.7149
7287.00,0.7220
7286.00,0.7289
7285.00,0.7358
7284.00,0.7431
7283.00,0.7508
7282.00,0.7587
7281.00,0.7667
7280.00,0.7747
7279.00,0.7830
7278.00,0.7916
7277.00,0.8004
7276.00,0.8092
7275.00,0.8180
7274.00,0.8270
7273.00,0.8360
7272.00,0.8448
7271.00,0.8533
7270.00,0.8615
7269.00,0.8695
7268.00,0.8772
7267.00,0.8850
7266.00,0.8930
7265.00,0.9011
7264.00,0.9093
7263.00,0.9172
7262.00,0.9249
7261.00,0.9325
7260.00,0.9403
7259.00,0.9485
7258.00,0.9567
7257.00,0.9644
7256.00,0.9714
7255.00,0.9777
7254.00,0.9835
7253.00,0.9891
7252.00,0.9945
7251.00,0.9995
7250.00,1.0040
7249.00,1.0083
7248.00,1.0128
7247.00,1.0176
7246.00,1.0224
7245.00,1.0264
7244.00,1.0297
7243.00,1.0331
7242.00,1.0370
7241.00,1.0412
7240.00,1.0449
7239.00,1.0480
7238.00,1.0505
7237.00,1.0524
7236.00,1.0535
7235.00,1.0533
7234.00,1.0522
7233.00,1.0508
7232.00,1.0501
7231.00,1.0503
7230.00,1.0509
7229.00,1.0514
7228.00,1.0513
7227.00,1.0508
7226.00,1.0496
7225.00,1.0478
7224.00,1.0452
7223.00,1.0418
7222.00,1.0380
7221.00,1.0338
7220.00,1.0295
7219.00,1.0255
7218.00,1.0214
7217.00,1.0169
7216.00,1.0116
7215.00,1.0059
7214.00,1.0004
7213.00,0.9949
7212.00,0.9888
7211.00,0.9821
7210.00,0.9753
7209.00,0.9686
7208.00,0.9618
7207.00,0.9546
7206.00,0.9472
7205.00,0.9400
7204.00,0.9331
7203.00,0.9262
7202.00,0.9191
7201.00,0.9117
7200.00,0.9040
7199.00,0.8959
7198.00,0.8878
7197.00,0.8799
7196.00,0.8721
7195.00,0.8642
7194.00,0.8563
7193.00,0.8488
7192.00,0.8414
7191.00,0.8337
7190.00,0.8257
7189.00,0.8174
7188.00,0.8089
7187.00,0.8005
7186.00,0.7923
7185.00,0.7848
7184.00,0.7777
7183.00,0.7709
7182.00,0.7639
7181.00,0.7571
7180.00,0.7507
7179.00,0.7451
7178.00,0.7399
7177.00,0.7348
7176.00,0.7297
7175.00,0.7249
7174.00,0.7205
7173.00,0.7161
7172.00,0.7118
7171.00,0.7075
7170.00,0.7037
7169.00,0.7004
7168.00,0.6976
7167.00,0.6953
7166.00,0.6935
7165.00,0.6923
7164.00,0.6916
7163.00,0.6913
7162.00,0.6914
7161.00,0.6920
7160.00,0.6931
7159.00,0.6944
7158.00,0.6958
7157.00,0.6975
7156.00,0.6996
7155.00,0.7024
7154.00,0.7059
7153.00,0.7100
7152.00,0.7146
7151.00,0.7197
7150.00,0.7250
7149.00,0.7304
7148.00,0.7360
7147.00,0.7418
7146.00,0.7479
7145.00,0.7545
7144.00,0.7613
7143.00,0.7686
7142.00,0.7763
7141.00,0.7842
7140.00,0.7920
7139.00,0.7999
7138.00,0.8081
7137.00,0.8167
7136.00,0.8256
7135.00,0.8348
7134.00,0.8441
7133.00,0.8532
7132.00,0.8619
7131.00,0.8703
7130.00,0.8787
7129.00,0.8872
7128.00,0.8955
7127.00,0.9036
7126.00,0.9116
7125.00,0.9199
7124.00,0.9286
7123.00,0.9376
7122.00,0.9465
7121.00,0.9551
7120.00,0.9635
7119.00,0.9721
7118.00,0.9811
7117.00,0.9900
7116.00,0.9981
7115.00,1.0053
7114.00,1.0121
7113.00,1.0193
7112.00,1.0265
7111.00,1.0334
7110.00,1.0398
7109.00,1.0462
7108.00,1.0527
7107.00,1.0592
7106.00,1.0651
7105.00,1.0706
7104.00,1.0759
7103.00,1.0813
7102.00,1.0868
7101.00,1.0920
7100.00,1.0969
7099.00,1.1011
7098.00,1.1049
7097.00,1.1080
7096.00,1.1105
7095.00,1.1125
7094.00,1.1143
7093.00,1.1160
7092.00,1.1176
7091.00,1.1192
7090.00,1.1205
7089.00,1.1214
7088.00,1.1217
7087.00,1.1216
7086.00,1.1215
7085.00,1.1213
7084.00,1.1208
7083.00,1.1198
7082.00,1.1185
7081.00,1.1172
7080.00,1.1158
7079.00,1.1138
7078.00,1.1113
7077.00,1.1083
7076.00,1.1048
7075.00,1.1007
7074.00,1.0961
7073.00,1.0914
7072.00,1.0866
7071.00,1.0818
7070.00,1.0768
7069.00,1.0716
7068.00,1.0662
7067.00,1.0608
7066.00,1.0553
7065.00,1.0494
7064.00,1.0426
7063.00,1.0353
7062.00,1.0279
7061.00,1.0207
7060.00,1.0133
7059.00,1.0054
7058.00,0.9972
7057.00,0.9892
7056.00,0.9814
7055.00,0.9733
7054.00,0.9649
7053.00,0.9563
7052.00,0.9478
7051.00,0.9393
7050.00,0.9309
7049.00,0.9225
7048.00,0.9139
7047.00,0.9051
7046.00,0.8958
7045.00,0.8864
7044.00,0.8774
7043.00,0.8685
7042.00,0.8597
7041.00,0.8511
7040.00,0.8429
7039.00,0.8351
7038.00,0.8276
7037.00,0.8202
7036.00,0.8130
7035.00,0.8061
7034.00,0.7997
7033.00,0.7936
7032.00,0.7877
7031.00,0.7820
7030.00,0.7765
7029.00,0.7713
7028.00,0.7664
7027.00,0.7618
7026.00,0.7577
7025.00,0.7543
7024.00,0.7514
7023.00,0.7490
7022.00,0.7470
7021.00,0.7454
7020.00,0.7442
7019.00,0.7435
7018.00,0.7431
7017.00,0.7430
7016.00,0.7434
7015.00,0.7446
7014.00,0.7466
7013.00,0.7492
7012.00,0.7522
7011.00,0.7554
7010.00,0.7590
7009.00,0.7632
7008.00,0.7678
7007.00,0.7725
7006.00,0.7773
7005.00,0.7825
7004.00,0.7881
7003.00,0.7941
7002.00,0.8005
7001.00,0.8072
7000.00,0.8143
6999.00,0.8219
6998.00,0.8298
6997.00,0.8380
6996.00,0.8464
6995.00,0.8547
6994.00,0.8630
6993.00,0.8712
6992.00,0.8795
6991.00,0.8875
6990.00,0.8956
6989.00,0.9039
6988.00,0.9125
6987.00,0.9213
6986.00,0.9301
6985.00,0.9390
6984.00,0.9482
6983.00,0.9574
6982.00,0.9666
6981.00,0.9755
6980.00,0.9839
6979.00,0.9920
6978.00,0.9998
6977.00,1.0075
6976.00,1.0150
6975.00,1.0226
6974.00,1.0300
6973.00,1.0370
6972.00,1.0438
6971.00,1.0506
6970.00,1.0577
6969.00,1.0648
6968.00,1.0715
6967.00,1.0777
6966.00,1.0836
6965.00,1.0894
6964.00,1.0949
6963.00,1.1000
6962.00,1.1047
6961.00,1.1093
6960.00,1.1138
6959.00,1.1180
6958.00,1.1220
6957.00,1.1258
6956.00,1.1292
6955.00,1.1320
6954.00,1.1342
6953.00,1.1360
6952.00,1.1373
6951.00,1.1382
6950.00,1.1387
6949.00,1.1389
6948.00,1.1389
6947.00,1.1389
6946.00,1.1390
6945.00,1.1389
6944.00,1.1386
6943.00,1.1376
6942.00,1.1360
6941.00,1.1340
6940.00,1.1317
6939.00,1.1290
6938.00,1.1261
6937.00,1.1229
6936.00,1.1196
6935.00,1.1162
6934.00,1.1126
6933.00,1.1088
6932.00,1.1048
6931.00,1.1005
6930.00,1.0961
6929.00,1.0912
6928.00,1.0856
6927.00,1.0792
6926.00,1.0724
6925.00,1.0655
6924.00,1.0586
6923.00,1.0515
6922.00,1.0441
6921.00,1.0365
6920.00,1.0286
6919.00,1.0206
6918.00,1.0123
6917.00,1.0038
6916.00,0.9954
6915.00,0.9870
6914.00,0.9787
6913.00,0.9705
6912.00,0.9619
6911.00,0.9528
6910.00,0.9433
6909.00,0.9338
6908.00,0.9244
6907.00,0.9151
6906.00,0.9061
6905.00,0.8972
6904.00,0.8885
6903.00,0.8800
6902.00,0.8715
6901.00,0.8630
6900.00,0.8545
6899.00,0.8460
6898.00,0.8379
6897.00,0.8302
6896.00,0.8228
6895.00,0.8156
6894.00,0.8085
6893.00,0.8015
6892.00,0.7949
6891.00,0.7884
6890.00,0.7823
6889.00,0.7764
6888.00,0.7710
6887.00,0.7662
6886.00,0.7618
6885.00,0.7580
6884.00,0.7544
6883.00,0.7511
6882.00,0.7481
6881.00,0.7455
6880.00,0.7433
6879.00,0.7416
6878.00,0.7402
6877.00,0.7394
6876.00,0.7393
6875.00,0.7397
6874.00,0.7405
6873.00,0.7417
6872.00,0.7432
6871.00,0.7452
6870.00,0.7477
6869.00,0.7508
6868.00,0.7542
6867.00,0.7580
6866.00,0.7622
6865.00,0.7667
6864.00,0.7717
6863.00,0.7769
6862.00,0.7823
6861.00,0.7882
6860.00,0.7945
6859.00,0.8012
6858.00,0.8084
6857.00,0.8158
6856.00,0.8235
6855.00,0.8315
6854.00,0.8398
6853.00,0.8484
6852.00,0.8571
6851.00,0.8657
6850.00,0.8743
6849.00,0.8828
6848.00,0.8915
6847.00,0.9004
6846.00,0.9096
6845.00,0.9188
6844.00,0.9281
6843.00,0.9376
6842.00,0.9473
6841.00,0.9569
6840.00,0.9662
6839.00,0.9753
6838.00,0.9843
6837.00,0.9930
6836.00,1.0016
6835.00,1.0099
6834.00,1.0181
6833.00,1.0262
6832.00,1.0344
6831.00,1.0427
6830.00,1.0509
6829.00,1.0589
6828.00,1.0668
6827.00,1.0744
6826.00,1.0818
6825.00,1.0892
6824.00,1.0966
6823.00,1.1040
6822.00,1.1112
6821.00,1.1178
6820.00,1.1237
6819.00,1.1290
6818.00,1.1339
6817.00,1.1385
6816.00,1.1428
6815.00,1.1470
6814.00,1.1517
6813.00,1.1567
6812.00,1.1611
6811.00,1.1647
6810.00,1.1676
6809.00,1.1703
6808.00,1.1726
6807.00,1.1741
6806.00,1.1751
6805.00,1.1758
6804.00,1.1766
6803.00,1.1775
6802.00,1.1784
6801.00,1.1790
6800.00,1.1789
6799.00,1.1783
6798.00,1.1775
6797.00,1.1768
6796.00,1.1760
6795.00,1.1746
6794.00,1.1725
6793.00,1.1700
6792.00,1.1673
6791.00,1.1645
6790.00,1.1614
6789.00,1.1579
6788.00,1.1541
6787.00,1.1501
6786.00,1.1458
6785.00,1.1411
6784.00,1.1357
6783.00,1.1296
6782.00,1.1229
6781.00,1.1160
6780.00,1.1090
6779.00,1.1020
6778.00,1.0953
6777.00,1.0886
6776.00,1.0818
6775.00,1.0744
6774.00,1.0664
6773.00,1.0581
6772.00,1.0498
6771.00,1.0413
6770.00,1.0324
6769.00,1.0232
6768.00,1.0138
6767.00,1.0047
6766.00,0.9958
6765.00,0.9865
6764.00,0.9769
6763.00,0.9672
6762.00,0.9576
6761.00,0.9481
6760.00,0.9385
6759.00,0.9288
6758.00,0.9193
6757.00,0.9101
6756.00,0.9012
6755.00,0.8924
6754.00,0.8837
6753.00,0.8750
6752.00,0.8663
6751.00,0.8577
6750.00,0.8495
6749.00,0.8416
6748.00,0.8340
6747.00,0.8266
6746.00,0.8198
6745.00,0.8137
6744.00,0.8079
6743.00,0.8022
6742.00,0.7967
6741.00,0.7917
6740.00,0.7873
6739.00,0.7832
6738.00,0.7796
6737.00,0.7765
6736.00,0.7740
6735.00,0.7719
6734.00,0.7703
6733.00,0.7691
6732.00,0.7684
6731.00,0.7682
6730.00,0.7686
6729.00,0.7694
6728.00,0.7707
6727.00,0.7727
6726.00,0.7753
6725.00,0.7785
6724.00,0.7821
6723.00,0.7860
6722.00,0.7904
6721.00,0.7953
6720.00,0.8006
6719.00,0.8062
6718.00,0.8121
6717.00,0.8184
6716.00,0.8251
6715.00,0.8321
6714.00,0.8394
6713.00,0.8470
6712.00,0.8549
6711.00,0.8628
6710.00,0.8709
6709.00,0.8794
6708.00,0.8880
6707.00,0.8967
6706.00,0.9053
6705.00,0.9141
6704.00,0.9230
6703.00,0.9320
6702.00,0.9411
6701.00,0.9502
6700.00,0.9592
6699.00,0.9682
6698.00,0.9771
6697.00,0.9859
6696.00,0.9947
6695.00,1.0035
6694.00,1.0123
6693.00,1.0210
6692.00,1.0294
6691.00,1.0376
6690.00,1.0458
6689.00,1.0540
6688.00,1.0621
6687.00,1.0701
6686.00,1.0780
6685.00,1.0858
6684.00,1.0933
6683.00,1.1003
6682.00,1.1069
6681.00,1.1129
6680.00,1.1187
6679.00,1.1243
6678.00,1.1301
6677.00,1.1360
6676.00,1.1414
6675.00,1.1462
6674.00,1.1505
6673.00,1.1546
6672.00,1.1584
6671.00,1.1617
6670.00,1.1647
6669.00,1.1677
6668.00,1.1708
6667.00,1.1739
6666.00,1.1767
6665.00,1.1791
6664.00,1.1808
6663.00,1.1817
6662.00,1.1822
6661.00,1.1822
6660.00,1.1819
6659.00,1.1810
6658.00,1.1797
6657.00,1.1783
6656.00,1.1770
6655.00,1.1755
6654.00,1.1737
6653.00,1.1715
6652.00,1.1688
6651.00,1.1659
6650.00,1.1626
6649.00,1.1590
6648.00,1.1550
6647.00,1.1505
6646.00,1.1456
6645.00,1.1403
6644.00,1.1348
6643.00,1.1290
6642.00,1.1229
6641.00,1.1167
6640.00,1.1103
6639.00,1.1035
6638.00,1.0965
6637.00,1.0890
6636.00,1.0812
6635.00,1.0731
6634.00,1.0650
6633.00,1.0571
6632.00,1.0492
6631.00,1.0409
6630.00,1.0320
6629.00,1.0229
6628.00,1.0137
6627.00,1.0043
6626.00,0.9947
6625.00,0.9852
6624.00,0.9759
6623.00,0.9668
6622.00,0.9576
6621.00,0.9482
6620.00,0.9385
6619.00,0.9287
6618.00,0.9189
6617.00,0.9094
6616.00,0.8999
6615.00,0.8906
6614.00,0.8815
6613.00,0.8728
6612.00,0.8643
6611.00,0.8560
6610.00,0.8478
6609.00,0.8398
6608.00,0.8320
6607.00,0.8243
6606.00,0.8168
6605.00,0.8096
6604.00,0.8027
6603.00,0.7963
6602.00,0.7902
6601.00,0.7847
6600.00,0.7795
6599.00,0.7748
6598.00,0.7705
6597.00,0.7665
6596.00,0.7628
6595.00,0.7594
6594.00,0.7564
6593.00,0.7541
6592.00,0.7523
6591.00,0.7511
6590.00,0.7505
6589.00,0.7504
6588.00,0.7508
6587.00,0.7516
6586.00,0.7529
6585.00,0.7547
6584.00,0.7570
6583.00,0.7596
6582.00,0.7628
6581.00,0.7665
6580.00,0.7707
6579.00,0.7755
6578.00,0.7806
6577.00,0.7861
6576.00,0.7920
6575.00,0.7983
6574.00,0.8049
6573.00,0.8119
6572.00,0.8192
6571.00,0.8267
6570.00,0.8345
6569.00,0.8425
6568.00,0.8508
6567.00,0.8593
6566.00,0.8681
6565.00,0.8771
6564.00,0.8861
6563.00,0.8954
6562.00,0.9049
6561.00,0.9146
6560.00,0.9242
6559.00,0.9336
6558.00,0.9429
6557.00,0.9523
6556.00,0.9616
6555.00,0.9709
6554.00,0.9803
6553.00,0.9898
6552.00,0.9995
6551.00,1.0092
6550.00,1.0187
6549.00,1.0280
6548.00,1.0371
6547.00,1.0459
6546.00,1.0546
6545.00,1.0633
6544.00,1.0720
6543.00,1.0802
6542.00,1.0881
6541.00,1.0956
6540.00,1.1028
6539.00,1.1099
6538.00,1.1170
6537.00,1.1242
6536.00,1.1314
6535.00,1.1383
6534.00,1.1447
6533.00,1.1507
6532.00,1.1563
6531.00,1.1613
6530.00,1.1660
6529.00,1.1704
6528.00,1.1747
6527.00,1.1788
6526.00,1.1825
6525.00,1.1859
6524.00,1.1892
6523.00,1.1923
6522.00,1.1951
6521.00,1.1975
6520.00,1.1999
6519.00,1.2019
6518.00,1.2034
6517.00,1.2041
6516.00,1.2044
6515.00,1.2045
6514.00,1.2042
6513.00,1.2035
6512.00,1.2025
6511.00,1.2015
6510.00,1.2001
6509.00,1.1983
6508.00,1.1959
6507.00,1.1932
6506.00,1.1901
6505.00,1.1864
6504.00,1.1823
6503.00,1.1783
6502.00,1.1747
6501.00,1.1709
6500.00,1.1665
6499.00,1.1614
6498.00,1.1560
6497.00,1.1501
6496.00,1.1437
6495.00,1.1366
6494.00,1.1294
6493.00,1.1223
6492.00,1.1152
6491.00,1.1079
6490.00,1.1002
6489.00,1.0921
6488.00,1.0836
6487.00,1.0749
6486.00,1.0659
6485.00,1.0568
6484.00,1.0474
6483.00,1.0378
6482.00,1.0281
6481.00,1.0184
6480.00,1.0085
6479.00,0.9985
6478.00,0.9884
6477.00,0.9783
6476.00,0.9679
6475.00,0.9575
6474.00,0.9471
6473.00,0.9369
6472.00,0.9267
6471.00,0.9167
6470.00,0.9069
6469.00,0.8974
6468.00,0.8880
6467.00,0.8785
6466.00,0.8691
6465.00,0.8598
6464.00,0.8509
6463.00,0.8421
6462.00,0.8335
6461.00,0.8252
6460.00,0.8174
6459.00,0.8102
6458.00,0.8034
6457.00,0.7971
6456.00,0.7911
6455.00,0.7855
6454.00,0.7806
6453.00,0.7762
6452.00,0.7722
6451.00,0.7686
6450.00,0.7655
6449.00,0.7630
6448.00,0.7610
6447.00,0.7595
6446.00,0.7585
6445.00,0.7581
6444.00,0.7584
6443.00,0.7594
6442.00,0.7610
6441.00,0.7630
6440.00,0.7654
6439.00,0.7683
6438.00,0.7718
6437.00,0.7758
6436.00,0.7803
6435.00,0.7851
6434.00,0.7906
6433.00,0.7966
6432.00,0.8030
6431.00,0.8096
6430.00,0.8165
6429.00,0.8237
6428.00,0.8313
6427.00,0.8392
6426.00,0.8473
6425.00,0.8557
6424.00,0.8643
6423.00,0.8731
6422.00,0.8820
6421.00,0.8913
6420.00,0.9006
6419.00,0.9098
6418.00,0.9192
6417.00,0.9287
6416.00,0.9384
6415.00,0.9482
6414.00,0.9582
6413.00,0.9681
6412.00,0.9780
6411.00,0.9876
6410.00,0.9970
6409.00,1.0061
6408.00,1.0151
6407.00,1.0241
6406.00,1.0332
6405.00,1.0426
6404.00,1.0518
6403.00,1.0607
6402.00,1.0691
6401.00,1.0772
6400.00,1.0848
6399.00,1.0921
6398.00,1.0991
6397.00,1.1060
6396.00,1.1129
6395.00,1.1198
6394.00,1.1266
6393.00,1.1335
6392.00,1.1402
6391.00,1.1465
6390.00,1.1522
6389.00,1.1574
6388.00,1.1622
6387.00,1.1666
6386.00,1.1706
6385.00,1.1743
6384.00,1.1778
6383.00,1.1810
6382.00,1.1838
6381.00,1.1859
6380.00,1.1876
6379.00,1.1893
6378.00,1.1912
6377.00,1.1929
6376.00,1.1940
6375.00,1.1944
6374.00,1.1944
6373.00,1.1939
6372.00,1.1928
6371.00,1.1912
6370.00,1.1893
6369.00,1.1874
6368.00,1.1852
6367.00,1.1827
6366.00,1.1797
6365.00,1.1765
6364.00,1.1732
6363.00,1.1698
6362.00,1.1662
6361.00,1.1624
6360.00,1.1580
6359.00,1.1529
6358.00,1.1472
6357.00,1.1412
6356.00,1.1351
6355.00,1.1289
6354.00,1.1227
6353.00,1.1163
6352.00,1.1096
6351.00,1.1028
6350.00,1.0958
6349.00,1.0885
6348.00,1.0806
6347.00,1.0724
6346.00,1.0643
6345.00,1.0563
6344.00,1.0480
6343.00,1.0393
6342.00,1.0303
6341.00,1.0216
6340.00,1.0131
6339.00,1.0045
6338.00,0.9956
6337.00,0.9868
6336.00,0.9781
6335.00,0.9692
6334.00,0.9600
6333.00,0.9504
6332.00,0.9407
6331.00,0.9309
6330.00,0.9210
6329.00,0.9112
6328.00,0.9013
6327.00,0.8912
6326.00,0.8810
6325.00,0.8709
6324.00,0.8609
6323.00,0.8510
6322.00,0.8411
6321.00,0.8315
6320.00,0.8220
6319.00,0.8127
6318.00,0.8038
6317.00,0.7952
6316.00,0.7872
6315.00,0.7795
6314.00,0.7725
6313.00,0.7660
6312.00,0.7601
6311.00,0.7548
6310.00,0.7500
6309.00,0.7458
6308.00,0.7422
6307.00,0.7394
6306.00,0.7372
6305.00,0.7355
6304.00,0.7343
6303.00,0.7336
6302.00,0.7334
6301.00,0.7339
6300.00,0.7349
6299.00,0.7364
6298.00,0.7384
6297.00,0.7411
6296.00,0.7444
6295.00,0.7481
6294.00,0.7523
6293.00,0.7571
6292.00,0.7624
6291.00,0.7681
6290.00,0.7744
6289.00,0.7810
6288.00,0.7881
6287.00,0.7954
6286.00,0.8030
6285.00,0.8110
6284.00,0.8192
6283.00,0.8277
6282.00,0.8365
6281.00,0.8456
6280.00,0.8549
6279.00,0.8643
6278.00,0.8740
6277.00,0.8838
6276.00,0.8938
6275.00,0.9039
6274.00,0.9140
6273.00,0.9243
6272.00,0.9346
6271.00,0.9449
6270.00,0.9550
6269.00,0.9651
6268.00,0.9752
6267.00,0.9852
6266.00,0.9950
6265.00,1.0050
6264.00,1.0149
6263.00,1.0247
6262.00,1.0343
6261.00,1.0436
6260.00,1.0528
6259.00,1.0618
6258.00,1.0705
6257.00,1.0789
6256.00,1.0873
6255.00,1.0955
6254.00,1.1034
6253.00,1.1110
6252.00,1.1184
6251.00,1.1255
6250.00,1.1325
6249.00,1.1392
6248.00,1.1454
6247.00,1.1512
6246.00,1.1571
6245.00,1.1629
6244.00,1.1683
6243.00,1.1731
6242.00,1.1775
6241.00,1.1816
6240.00,1.1855
6239.00,1.1890
6238.00,1.1922
6237.00,1.1949
6236.00,1.1975
6235.00,1.1998
6234.00,1.2018
6233.00,1.2034
6232.00,1.2045
6231.00,1.2052
6230.00,1.2056
6229.00,1.2057
6228.00,1.2054
6227.00,1.2047
6226.00,1.2036
6225.00,1.2025
6224.00,1.2014
6223.00,1.2002
6222.00,1.1984
6221.00,1.1959
6220.00,1.1926
6219.00,1.1886
6218.00,1.1842
6217.00,1.1795
6216.00,1.1748
6215.00,1.1702
6214.00,1.1655
6213.00,1.1608
6212.00,1.1557
6211.00,1.1500
6210.00,1.1438
6209.00,1.1371
6208.00,1.1298
6207.00,1.1221
6206.00,1.1143
6205.00,1.1064
6204.00,1.0980
6203.00,1.0891
6202.00,1.0799
6201.00,1.0706
6200.00,1.0612
6199.00,1.0517
6198.00,1.0422
6197.00,1.0326
6196.00,1.0229
6195.00,1.0128
6194.00,1.0023
6193.00,0.9916
6192.00,0.9807
6191.00,0.9695
6190.00,0.9584
6189.00,0.9474
6188.00,0.9365
6187.00,0.9255
6186.00,0.9144
6185.00,0.9033
6184.00,0.8923
6183.00,0.8815
6182.00,0.8710
6181.00,0.8608
6180.00,0.8509
6179.00,0.8412
6178.00,0.8316
6177.00,0.8221
6176.00,0.8128
6175.00,0.8037
6174.00,0.7950
6173.00,0.7867
6172.00,0.7789
6171.00,0.7716
6170.00,0.7648
6169.00,0.7585
6168.00,0.7526
6167.00,0.7472
6166.00,0.7425
6165.00,0.7386
6164.00,0.7353
6163.00,0.7324
6162.00,0.7301
6161.00,0.7285
6160.00,0.7274
6159.00,0.7270
6158.00,0.7271
6157.00,0.7279
6156.00,0.7293
6155.00,0.7312
6154.00,0.7338
6153.00,0.7370
6152.00,0.7409
6151.00,0.7452
6150.00,0.7501
6149.00,0.7555
6148.00,0.7614
6147.00,0.7676
6146.00,0.7741
6145.00,0.7811
6144.00,0.7886
6143.00,0.7965
6142.00,0.8046
6141.00,0.8130
6140.00,0.8218
6139.00,0.8308
6138.00,0.8402
6137.00,0.8498
6136.00,0.8597
6135.00,0.8696
6134.00,0.8795
6133.00,0.8895
6132.00,0.8996
6131.00,0.9098
6130.00,0.9201
6129.00,0.9304
6128.00,0.9406
6127.00,0.9509
6126.00,0.9610
6125.00,0.9711
6124.00,0.9810
6123.00,0.9909
6122.00,1.0008
6121.00,1.0107
6120.00,1.0203
6119.00,1.0296
6118.00,1.0389
6117.00,1.0482
6116.00,1.0573
6115.00,1.0662
6114.00,1.0748
6113.00,1.0830
6112.00,1.0908
6111.00,1.0981
6110.00,1.1052
6109.00,1.1121
6108.00,1.1190
6107.00,1.1258
6106.00,1.1324
6105.00,1.1388
6104.00,1.1448
6103.00,1.1503
6102.00,1.1554
6101.00,1.1601
6100.00,1.1647
6099.00,1.1691
6098.00,1.1731
6097.00,1.1767
6096.00,1.1799
6095.00,1.1826
6094.00,1.1848
6093.00,1.1866
6092.00,1.1882
6091.00,1.1894
6090.00,1.1904
6089.00,1.1911
6088.00,1.1914
6087.00,1.1914
6086.00,1.1910
6085.00,1.1904
6084.00,1.1894
6083.00,1.1880
6082.00,1.1864
6081.00,1.1843
6080.00,1.1818
6079.00,1.1788
6078.00,1.1757
6077.00,1.1723
6076.00,1.1688
6075.00,1.1651
6074.00,1.1610
6073.00,1.1565
6072.00,1.1515
6071.00,1.1459
6070.00,1.1399
6069.00,1.1333
6068.00,1.1264
6067.00,1.1191
6066.00,1.1117
6065.00,1.1045
6064.00,1.0975
6063.00,1.0903
6062.00,1.0828
6061.00,1.0749
6060.00,1.0664
6059.00,1.0573
6058.00,1.0477
6057.00,1.0380
6056.00,1.0283
6055.00,1.0188
6054.00,1.0093
6053.00,0.9997
6052.00,0.9897
6051.00,0.9795
6050.00,0.9691
6049.00,0.9584
6048.00,0.9474
6047.00,0.9362
6046.00,0.9250
6045.00,0.9141
6044.00,0.9032
6043.00,0.8924
6042.00,0.8819
6041.00,0.8717
6040.00,0.8615
6039.00,0.8511
6038.00,0.8407
6037.00,0.8304
6036.00,0.8204
6035.00,0.8106
6034.00,0.8011
6033.00,0.7919
6032.00,0.7832
6031.00,0.7747
6030.00,0.7667
6029.00,0.7591
6028.00,0.7518
6027.00,0.7450
6026.00,0.7386
6025.00,0.7328
6024.00,0.7275
6023.00,0.7227
6022.00,0.7185
6021.00,0.7150
6020.00,0.7123
6019.00,0.7101
6018.00,0.7087
6017.00,0.7079
6016.00,0.7077
6015.00,0.7081
6014.00,0.7091
6013.00,0.7107
6012.00,0.7131
6011.00,0.7161
6010.00,0.7197
6009.00,0.7239
6008.00,0.7287
6007.00,0.7340
6006.00,0.7397
6005.00,0.7461
6004.00,0.7529
6003.00,0.7601
6002.00,0.7676
6001.00,0.7756
6000.00,0.7839
5999.00,0.7924
5998.00,0.8014
5997.00,0.8106
5996.00,0.8202
5995.00,0.8299
5994.00,0.8399
5993.00,0.8500
5992.00,0.8602
5991.00,0.8705
5990.00,0.8810
5989.00,0.8916
5988.00,0.9022
5987.00,0.9128
5986.00,0.9235
5985.00,0.9343
5984.00,0.9451
5983.00,0.9557
5982.00,0.9663
5981.00,0.9768
5980.00,0.9874
5979.00,0.9978
5978.00,1.0080
5977.00,1.0181
5976.00,1.0281
5975.00,1.0381
5974.00,1.0479
5973.00,1.0576
5972.00,1.0670
5971.00,1.0762
5970.00,1.0850
5969.00,1.0937
5968.00,1.1022
5967.00,1.1106
5966.00,1.1189
5965.00,1.1271
5964.00,1.1351
5963.00,1.1427
5962.00,1.1498
5961.00,1.1565
5960.00,1.1628
5959.00,1.1686
5958.00,1.1739
5957.00,1.1790
5956.00,1.1837
5955.00,1.1878
5954.00,1.1913
5953.00,1.1945
5952.00,1.1978
5951.00,1.2012
5950.00,1.2044
5949.00,1.2072
5948.00,1.2095
5947.00,1.2111
5946.00,1.2120
5945.00,1.2122
5944.00,1.2121
5943.00,1.2117
5942.00,1.2113
5941.00,1.2108
5940.00,1.2100
5939.00,1.2087
5938.00,1.2068
5937.00,1.2046
5936.00,1.2023
5935.00,1.1997
5934.00,1.1965
5933.00,1.1929
5932.00,1.1892
5931.00,1.1852
5930.00,1.1810
5929.00,1.1762
5928.00,1.1709
5927.00,1.1651
5926.00,1.1590
5925.00,1.1524
5924.00,1.1455
5923.00,1.1383
5922.00,1.1309
5921.00,1.1234
5920.00,1.1155
5919.00,1.1071
5918.00,1.0984
5917.00,1.0896
5916.00,1.0806
5915.00,1.0711
5914.00,1.0611
5913.00,1.0508
5912.00,1.0403
5911.00,1.0296
5910.00,1.0187
5909.00,1.0077
5908.00,0.9967
5907.00,0.9856
5906.00,0.9742
5905.00,0.9627
5904.00,0.9510
5903.00,0.9393
5902.00,0.9275
5901.00,0.9157
5900.00,0.9038
5899.00,0.8920
5898.00,0.8804
5897.00,0.8691
5896.00,0.8578
5895.00,0.8466
5894.00,0.8354
5893.00,0.8245
5892.00,0.8138
5891.00,0.8034
5890.00,0.7933
5889.00,0.7837
5888.00,0.7746
5887.00,0.7660
5886.00,0.7578
5885.00,0.7500
5884.00,0.7427
5883.00,0.7358
5882.00,0.7294
5881.00,0.7235
5880.00,0.7183
5879.00,0.7137
5878.00,0.7098
5877.00,0.7068
5876.00,0.7045
5875.00,0.7028
5874.00,0.7019
5873.00,0.7016
5872.00,0.7019
5871.00,0.7027
5870.00,0.7041
5869.00,0.7063
5868.00,0.7091
5867.00,0.7127
5866.00,0.7170
5865.00,0.7220
5864.00,0.7276
5863.00,0.7338
5862.00,0.7404
5861.00,0.7475
5860.00,0.7551
5859.00,0.7631
5858.00,0.7713
5857.00,0.7800
5856.00,0.7892
5855.00,0.7987
5854.00,0.8084
5853.00,0.8185
5852.00,0.8286
5851.00,0.8389
5850.00,0.8494
5849.00,0.8601
5848.00,0.8711
5847.00,0.8824
5846.00,0.8939
5845.00,0.9055
5844.00,0.9170
5843.00,0.9283
5842.00,0.9395
5841.00,0.9505
5840.00,0.9615
5839.00,0.9723
5838.00,0.9832
5837.00,0.9941
5836.00,1.0049
5835.00,1.0156
5834.00,1.0262
5833.00,1.0368
5832.00,1.0471
5831.00,1.0571
5830.00,1.0667
5829.00,1.0757
5828.00,1.0846
5827.00,1.0932
5826.00,1.1016
5825.00,1.1099
5824.00,1.1181
5823.00,1.1259
5822.00,1.1333
5821.00,1.1403
5820.00,1.1469
5819.00,1.1535
5818.00,1.1600
5817.00,1.1664
5816.00,1.1725
5815.00,1.1781
5814.00,1.1833
5813.00,1.1879
5812.00,1.1918
5811.00,1.1953
5810.00,1.1986
5809.00,1.2018
5808.00,1.2047
5807.00,1.2072
5806.00,1.2096
5805.00,1.2119
5804.00,1.2140
5803.00,1.2155
5802.00,1.2165
5801.00,1.2171
5800.00,1.2172
5799.00,1.2169
5798.00,1.2162
5797.00,1.2154
5796.00,1.2144
5795.00,1.2130
5794.00,1.2110
5793.00,1.2084
5792.00,1.2053
5791.00,1.2019
5790.00,1.1984
5789.00,1.1948
5788.00,1.1911
5787.00,1.1870
5786.00,1.1824
5785.00,1.1771
5784.00,1.1714
5783.00,1.1654
5782.00,1.1589
5781.00,1.1521
5780.00,1.1450
5779.00,1.1377
5778.00,1.1302
5777.00,1.1222
5776.00,1.1138
5775.00,1.1049
5774.00,1.0957
5773.00,1.0861
5772.00,1.0762
5771.00,1.0661
5770.00,1.0559
5769.00,1.0457
5768.00,1.0354
5767.00,1.0247
5766.00,1.0137
5765.00,1.0024
5764.00,0.9908
5763.00,0.9790
5762.00,0.9670
5761.00,0.9549
5760.00,0.9427
5759.00,0.9305
5758.00,0.9183
5757.00,0.9062
5756.00,0.8942
5755.00,0.8821
5754.00,0.8701
5753.00,0.8583
5752.00,0.8467
5751.00,0.8351
5750.00,0.8237
5749.00,0.8126
5748.00,0.8017
5747.00,0.7911
5746.00,0.7809
5745.00,0.7712
5744.00,0.7619
5743.00,0.7531
5742.00,0.7446
5741.00,0.7367
5740.00,0.7292
5739.00,0.7222
5738.00,0.7158
5737.00,0.7100
5736.00,0.7049
5735.00,0.7004
5734.00,0.6965
5733.00,0.6934
5732.00,0.6910
5731.00,0.6893
5730.00,0.6883
5729.00,0.6882
5728.00,0.6888
5727.00,0.6902
5726.00,0.6922
5725.00,0.6948
5724.00,0.6979
5723.00,0.7015
5722.00,0.7059
5721.00,0.7110
5720.00,0.7167
5719.00,0.7231
5718.00,0.7302
5717.00,0.7378
5716.00,0.7457
5715.00,0.7539
5714.00,0.7625
5713.00,0.7714
5712.00,0.7807
5711.00,0.7902
5710.00,0.8000
5709.00,0.8101
5708.00,0.8205
5707.00,0.8313
5706.00,0.8423
5705.00,0.8533
5704.00,0.8645
5703.00,0.8757
5702.00,0.8870
5701.00,0.8985
5700.00,0.9101
5699.00,0.9217
5698.00,0.9334
5697.00,0.9450
5696.00,0.9564
5695.00,0.9676
5694.00,0.9786
5693.00,0.9897
5692.00,1.0008
5691.00,1.0119
5690.00,1.0228
5689.00,1.0337
5688.00,1.0444
5687.00,1.0547
5686.00,1.0647
5685.00,1.0746
5684.00,1.0843
5683.00,1.0938
5682.00,1.1030
5681.00,1.1118
5680.00,1.1204
5679.00,1.1285
5678.00,1.1363
5677.00,1.1437
5676.00,1.1510
5675.00,1.1582
5674.00,1.1652
5673.00,1.1720
5672.00,1.1787
5671.00,1.1851
5670.00,1.1911
5669.00,1.1964
5668.00,1.2011
5667.00,1.2052
5666.00,1.2087
5665.00,1.2119
5664.00,1.2149
5663.00,1.2176
5662.00,1.2200
5661.00,1.2221
5660.00,1.2238
5659.00,1.2253
5658.00,1.2264
5657.00,1.2271
5656.00,1.2274
5655.00,1.2273
5654.00,1.2267
5653.00,1.2256
5652.00,1.2243
5651.00,1.2228
5650.00,1.2209
5649.00,1.2185
5648.00,1.2154
5647.00,1.2120
5646.00,1.2083
5645.00,1.2045
5644.00,1.2008
5643.00,1.1970
5642.00,1.1929
5641.00,1.1881
5640.00,1.1825
5639.00,1.1762
5638.00,1.1692
5637.00,1.1617
5636.00,1.1539
5635.00,1.1459
5634.00,1.1379
5633.00,1.1296
5632.00,1.1211
5631.00,1.1122
5630.00,1.1030
5629.00,1.0935
5628.00,1.0835
5627.00,1.0733
5626.00,1.0629
5625.00,1.0524
5624.00,1.0416
5623.00,1.0303
5622.00,1.0185
5621.00,1.0063
5620.00,0.9937
5619.00,0.9808
5618.00,0.9679
5617.00,0.9551
5616.00,0.9422
5615.00,0.9294
5614.00,0.9166
5613.00,0.9039
5612.00,0.8913
5611.00,0.8789
5610.00,0.8665
5609.00,0.8543
5608.00,0.8421
5607.00,0.8300
5606.00,0.8182
5605.00,0.8067
5604.00,0.7955
5603.00,0.7846
5602.00,0.7741
5601.00,0.7640
5600.00,0.7543
5599.00,0.7450
5598.00,0.7363
5597.00,0.7283
5596.00,0.7208
5595.00,0.7139
5594.00,0.7076
5593.00,0.7020
5592.00,0.6972
5591.00,0.6931
5590.00,0.6898
5589.00,0.6873
5588.00,0.6857
5587.00,0.6847
5586.00,0.6845
5585.00,0.6850
5584.00,0.6863
5583.00,0.6883
5582.00,0.6910
5581.00,0.6946
5580.00,0.6989
5579.00,0.7039
5578.00,0.7095
5577.00,0.7158
5576.00,0.7226
5575.00,0.7300
5574.00,0.7381
5573.00,0.7468
5572.00,0.7560
5571.00,0.7656
5570.00,0.7755
5569.00,0.7856
5568.00,0.7961
5567.00,0.8068
5566.00,0.8179
5565.00,0.8294
5564.00,0.8412
5563.00,0.8533
5562.00,0.8656
5561.00,0.8778
5560.00,0.8899
5559.00,0.9020
5558.00,0.9141
5557.00,0.9264
5556.00,0.9389
5555.00,0.9514
5554.00,0.9640
5553.00,0.9766
5552.00,0.9889
5551.00,1.0010
5550.00,1.0128
5549.00,1.0243
5548.00,1.0356
5547.00,1.0467
5546.00,1.0577
5545.00,1.0686
5544.00,1.0794
5543.00,1.0899
5542.00,1.1003
5541.00,1.1105
5540.00,1.1204
5539.00,1.1299
5538.00,1.1391
5537.00,1.1480
5536.00,1.1567
5535.00,1.1649
5534.00,1.1728
5533.00,1.1803
5532.00,1.1875
5531.00,1.1941
5530.00,1.2002
5529.00,1.2059
5528.00,1.2114
5527.00,1.2167
5526.00,1.2216
5525.00,1.2262
5524.00,1.2303
5523.00,1.2341
5522.00,1.2374
5521.00,1.2405
5520.00,1.2433
5519.00,1.2458
5518.00,1.2479
5517.00,1.2494
5516.00,1.2503
5515.00,1.2510
5514.00,1.2515
5513.00,1.2520
5512.00,1.2522
5511.00,1.2517
5510.00,1.2503
5509.00,1.2483
5508.00,1.2458
5507.00,1.2430
5506.00,1.2400
5505.00,1.2369
5504.00,1.2335
5503.00,1.2298
5502.00,1.2256
5501.00,1.2212
5500.00,1.2166
5499.00,1.2116
5498.00,1.2062
5497.00,1.2002
5496.00,1.1937
5495.00,1.1866
5494.00,1.1791
5493.00,1.1713
5492.00,1.1633
5491.00,1.1551
5490.00,1.1464
5489.00,1.1372
5488.00,1.1276
5487.00,1.1174
5486.00,1.1070
5485.00,1.0964
5484.00,1.0856
5483.00,1.0747
5482.00,1.0634
5481.00,1.0518
5480.00,1.0398
5479.00,1.0275
5478.00,1.0149
5477.00,1.0021
5476.00,0.9889
5475.00,0.9755
5474.00,0.9619
5473.00,0.9482
5472.00,0.9345
5471.00,0.9209
5470.00,0.9074
5469.00,0.8938
5468.00,0.8804
5467.00,0.8670
5466.00,0.8539
5465.00,0.8409
5464.00,0.8280
5463.00,0.8153
5462.00,0.8029
5461.00,0.7908
5460.00,0.7792
5459.00,0.7679
5458.00,0.7571
5457.00,0.7468
5456.00,0.7371
5455.00,0.7279
5454.00,0.7194
5453.00,0.7117
5452.00,0.7046
5451.00,0.6983
5450.00,0.6926
5449.00,0.6876
5448.00,0.6834
5447.00,0.6800
5446.00,0.6774
5445.00,0.6757
5444.00,0.6748
5443.00,0.6747
5442.00,0.6755
5441.00,0.6771
5440.00,0.6796
5439.00,0.6830
5438.00,0.6871
5437.00,0.6918
5436.00,0.6973
5435.00,0.7035
5434.00,0.7103
5433.00,0.7177
5432.00,0.7256
5431.00,0.7339
5430.00,0.7429
5429.00,0.7526
5428.00,0.7630
5427.00,0.7740
5426.00,0.7852
5425.00,0.7966
5424.00,0.8080
5423.00,0.8196
5422.00,0.8316
5421.00,0.8440
5420.00,0.8566
5419.00,0.8695
5418.00,0.8824
5417.00,0.8953
5416.00,0.9081
5415.00,0.9209
5414.00,0.9339
5413.00,0.9470
5412.00,0.9601
5411.00,0.9732
5410.00,0.9863
5409.00,0.9994
5408.00,1.0124
5407.00,1.0254
5406.00,1.0382
5405.00,1.0508
5404.00,1.0630
5403.00,1.0749
5402.00,1.0864
5401.00,1.0977
5400.00,1.1087
5399.00,1.1193
5398.00,1.1295
5397.00,1.1391
5396.00,1.1484
5395.00,1.1577
5394.00,1.1671
5393.00,1.1765
5392.00,1.1858
5391.00,1.1947
5390.00,1.2029
5389.00,1.2103
5388.00,1.2171
5387.00,1.2236
5386.00,1.2299
5385.00,1.2360
5384.00,1.2419
5383.00,1.2473
5382.00,1.2525
5381.00,1.2572
5380.00,1.2614
5379.00,1.2651
5378.00,1.2684
5377.00,1.2713
5376.00,1.2740
5375.00,1.2763
5374.00,1.2782
5373.00,1.2796
5372.00,1.2803
5371.00,1.2805
5370.00,1.2804
5369.00,1.2800
5368.00,1.2795
5367.00,1.2790
5366.00,1.2782
5365.00,1.2768
5364.00,1.2750
5363.00,1.2727
5362.00,1.2700
5361.00,1.2670
5360.00,1.2635
5359.00,1.2595
5358.00,1.2550
5357.00,1.2501
5356.00,1.2449
5355.00,1.2393
5354.00,1.2335
5353.00,1.2272
5352.00,1.2205
5351.00,1.2133
5350.00,1.2056
5349.00,1.1976
5348.00,1.1893
5347.00,1.1806
5346.00,1.1714
5345.00,1.1617
5344.00,1.1515
5343.00,1.1411
5342.00,1.1304
5341.00,1.1193
5340.00,1.1078
5339.00,1.0960
5338.00,1.0838
5337.00,1.0714
5336.00,1.0587
5335.00,1.0460
5334.00,1.0330
5333.00,1.0198
5332.00,1.0064
5331.00,0.9929
5330.00,0.9794
5329.00,0.9657
5328.00,0.9518
5327.00,0.9377
5326.00,0.9236
5325.00,0.9096
5324.00,0.8957
5323.00,0.8819
5322.00,0.8683
5321.00,0.8550
5320.00,0.8418
5319.00,0.8289
5318.00,0.8164
5317.00,0.8044
5316.00,0.7928
5315.00,0.7815
5314.00,0.7708
5313.00,0.7605
5312.00,0.7507
5311.00,0.7416
5310.00,0.7332
5309.00,0.7256
5308.00,0.7187
5307.00,0.7126
5306.00,0.7072
5305.00,0.7027
5304.00,0.6990
5303.00,0.6962
5302.00,0.6944
5301.00,0.6936
5300.00,0.6936
5299.00,0.6945
5298.00,0.6962
5297.00,0.6987
5296.00,0.7021
5295.00,0.7063
5294.00,0.7112
5293.00,0.7170
5292.00,0.7236
5291.00,0.7309
5290.00,0.7389
5289.00,0.7476
5288.00,0.7568
5287.00,0.7665
5286.00,0.7767
5285.00,0.7873
5284.00,0.7986
5283.00,0.8102
5282.00,0.8222
5281.00,0.8345
5280.00,0.8471
5279.00,0.8599
5278.00,0.8730
5277.00,0.8863
5276.00,0.8996
5275.00,0.9130
5274.00,0.9264
5273.00,0.9398
5272.00,0.9533
5271.00,0.9667
5270.00,0.9802
5269.00,0.9938
5268.00,1.0074
5267.00,1.0208
5266.00,1.0340
5265.00,1.0471
5264.00,1.0600
5263.00,1.0728
5262.00,1.0854
5261.00,1.0978
5260.00,1.1099
5259.00,1.1217
5258.00,1.1332
5257.00,1.1445
5256.00,1.1555
5255.00,1.1664
5254.00,1.1770
5253.00,1.1871
5252.00,1.1965
5251.00,1.2053
5250.00,1.2136
5249.00,1.2217
5248.00,1.2295
5247.00,1.2370
5246.00,1.2443
5245.00,1.2514
5244.00,1.2583
5243.00,1.2649
5242.00,1.2711
5241.00,1.2768
5240.00,1.2818
5239.00,1.2863
5238.00,1.2904
5237.00,1.2943
5236.00,1.2981
5235.00,1.3014
5234.00,1.3041
5233.00,1.3062
5232.00,1.3077
5231.00,1.3089
5230.00,1.3099
5229.00,1.3108
5228.00,1.3115
5227.00,1.3119
5226.00,1.3119
5225.00,1.3114
5224.00,1.3104
5223.00,1.3090
5222.00,1.3070
5221.00,1.3047
5220.00,1.3021
5219.00,1.2989
5218.00,1.2952
5217.00,1.2911
5216.00,1.2866
5215.00,1.2819
5214.00,1.2771
5213.00,1.2722
5212.00,1.2669
5211.00,1.2612
5210.00,1.2548
5209.00,1.2477
5208.00,1.2399
5207.00,1.2316
5206.00,1.2230
5205.00,1.2141
5204.00,1.2050
5203.00,1.1955
5202.00,1.1857
5201.00,1.1755
5200.00,1.1650
5199.00,1.1543
5198.00,1.1434
5197.00,1.1324
5196.00,1.1212
5195.00,1.1097
5194.00,1.0976
5193.00,1.0849
5192.00,1.0716
5191.00,1.0578
5190.00,1.0436
5189.00,1.0292
5188.00,1.0147
5187.00,0.9999
5186.00,0.9848
5185.00,0.9696
5184.00,0.9543
5183.00,0.9390
5182.00,0.9239
5181.00,0.9088
5180.00,0.8937
5179.00,0.8788
5178.00,0.8641
5177.00,0.8498
5176.00,0.8358
5175.00,0.8222
5174.00,0.8091
5173.00,0.7964
5172.00,0.7843
5171.00,0.7726
5170.00,0.7615
5169.00,0.7510
5168.00,0.7412
5167.00,0.7321
5166.00,0.7238
5165.00,0.7164
5164.00,0.7098
5163.00,0.7040
5162.00,0.6991
5161.00,0.6951
5160.00,0.6919
5159.00,0.6896
5158.00,0.6883
5157.00,0.6880
5156.00,0.6886
5155.00,0.6901
5154.00,0.6925
5153.00,0.6958
5152.00,0.7001
5151.00,0.7052
5150.00,0.7113
5149.00,0.7181
5148.00,0.7257
5147.00,0.7339
5146.00,0.7429
5145.00,0.7527
5144.00,0.7630
5143.00,0.7739
5142.00,0.7852
5141.00,0.7970
5140.00,0.8092
5139.00,0.8217
5138.00,0.8346
5137.00,0.8477
5136.00,0.8610
5135.00,0.8746
5134.00,0.8884
5133.00,0.9025
5132.00,0.9168
5131.00,0.9313
5130.00,0.9459
5129.00,0.9605
5128.00,0.9751
5127.00,0.9897
5126.00,1.0041
5125.00,1.0185
5124.00,1.0327
5123.00,1.0468
5122.00,1.0607
5121.00,1.0745
5120.00,1.0880
5119.00,1.1013
5118.00,1.1144
5117.00,1.1273
5116.00,1.1398
5115.00,1.1519
5114.00,1.1637
5113.00,1.1753
5112.00,1.1866
5111.00,1.1977
5110.00,1.2086
5109.00,1.2192
5108.00,1.2293
5107.00,1.2387
5106.00,1.2475
5105.00,1.2559
5104.00,1.2639
5103.00,1.2716
5102.00,1.2791
5101.00,1.2862
5100.00,1.2929
5099.00,1.2992
5098.00,1.3051
5097.00,1.3106
5096.00,1.3158
5095.00,1.3206
5094.00,1.3252
5093.00,1.3293
5092.00,1.3329
5091.00,1.3361
5090.00,1.3387
5089.00,1.3407
5088.00,1.3422
5087.00,1.3433
5086.00,1.3443
5085.00,1.3450
5084.00,1.3455
5083.00,1.3454
5082.00,1.3450
5081.00,1.3441
5080.00,1.3429
5079.00,1.3414
5078.00,1.3395
5077.00,1.3371
5076.00,1.3342
5075.00,1.3311
5074.00,1.3277
5073.00,1.3240
5072.00,1.3199
5071.00,1.3152
5070.00,1.3099
5069.00,1.3040
5068.00,1.2977
5067.00,1.2911
5066.00,1.2843
5065.00,1.2772
5064.00,1.2695
5063.00,1.2614
5062.00,1.2527
5061.00,1.2437
5060.00,1.2341
5059.00,1.2241
5058.00,1.2136
5057.00,1.2027
5056.00,1.1914
5055.00,1.1797
5054.00,1.1676
5053.00,1.1551
5052.00,1.1423
5051.00,1.1292
5050.00,1.1157
5049.00,1.1021
5048.00,1.0883
5047.00,1.0741
5046.00,1.0596
5045.00,1.0446
5044.00,1.0294
5043.00,1.0140
5042.00,0.9985
5041.00,0.9830
5040.00,0.9674
5039.00,0.9518
5038.00,0.9361
5037.00,0.9206
5036.00,0.9052
5035.00,0.8900
5034.00,0.8751
5033.00,0.8604
5032.00,0.8460
5031.00,0.8320
5030.00,0.8184
5029.00,0.8054
5028.00,0.7930
5027.00,0.7811
5026.00,0.7699
5025.00,0.7593
5024.00,0.7495
5023.00,0.7404
5022.00,0.7322
5021.00,0.7249
5020.00,0.7185
5019.00,0.7130
5018.00,0.7086
5017.00,0.7051
5016.00,0.7026
5015.00,0.7011
5014.00,0.7006
5013.00,0.7012
5012.00,0.7029
5011.00,0.7056
5010.00,0.7093
5009.00,0.7140
5008.00,0.7197
5007.00,0.7262
5006.00,0.7336
5005.00,0.7418
5004.00,0.7508
5003.00,0.7606
5002.00,0.7711
5001.00,0.7822
5000.00,0.7937
4999.00,0.8058
4998.00,0.8183
4997.00,0.8313
4996.00,0.8448
4995.00,0.8586
4994.00,0.8728
4993.00,0.8872
4992.00,0.9016
4991.00,0.9161
4990.00,0.9308
4989.00,0.9455
4988.00,0.9603
4987.00,0.9753
4986.00,0.9903
4985.00,1.0053
4984.00,1.0203
4983.00,1.0351
4982.00,1.0498
4981.00,1.0644
4980.00,1.0788
4979.00,1.0929
4978.00,1.1069
4977.00,1.1206
4976.00,1.1340
4975.00,1.1470
4974.00,1.1599
4973.00,1.1728
4972.00,1.1856
4971.00,1.1980
4970.00,1.2102
4969.00,1.2219
4968.00,1.2333
4967.00,1.2442
4966.00,1.2545
4965.00,1.2644
4964.00,1.2737
4963.00,1.2827
4962.00,1.2913
4961.00,1.2996
4960.00,1.3077
4959.00,1.3153
4958.00,1.3224
4957.00,1.3289
4956.00,1.3350
4955.00,1.3409
4954.00,1.3466
4953.00,1.3519
4952.00,1.3567
4951.00,1.3609
4950.00,1.3645
4949.00,1.3677
4948.00,1.3705
4947.00,1.3729
4946.00,1.3749
4945.00,1.3765
4944.00,1.3775
4943.00,1.3782
4942.00,1.3786
4941.00,1.3788
4940.00,1.3788
4939.00,1.3784
4938.00,1.3775
4937.00,1.3761
4936.00,1.3741
4935.00,1.3716
4934.00,1.3688
4933.00,1.3659
4932.00,1.3627
4931.00,1.3591
4930.00,1.3549
4929.00,1.3501
4928.00,1.3448
4927.00,1.3390
4926.00,1.3330
4925.00,1.3267
4924.00,1.3200
4923.00,1.3128
4922.00,1.3050
4921.00,1.2966
4920.00,1.2877
4919.00,1.2781
4918.00,1.2682
4917.00,1.2581
4916.00,1.2476
4915.00,1.2369
4914.00,1.2257
4913.00,1.2140
4912.00,1.2018
4911.00,1.1890
4910.00,1.1759
4909.00,1.1624
4908.00,1.1485
4907.00,1.1342
4906.00,1.1196
4905.00,1.1046
4904.00,1.0893
4903.00,1.0737
4902.00,1.0578
4901.00,1.0419
4900.00,1.0257
4899.00,1.0095
4898.00,0.9931
4897.00,0.9767
4896.00,0.9603
4895.00,0.9440
4894.00,0.9277
4893.00,0.9117
4892.00,0.8958
4891.00,0.8801
4890.00,0.8647
4889.00,0.8497
4888.00,0.8351
4887.00,0.8210
4886.00,0.8075
4885.00,0.7946
4884.00,0.7822
4883.00,0.7705
4882.00,0.7594
4881.00,0.7492
4880.00,0.7398
4879.00,0.7313
4878.00,0.7237
4877.00,0.7171
4876.00,0.7115
4875.00,0.7070
4874.00,0.7035
4873.00,0.7010
4872.00,0.6997
4871.00,0.6994
4870.00,0.7003
4869.00,0.7023
4868.00,0.7053
4867.00,0.7094
4866.00,0.7145
4865.00,0.7207
4864.00,0.7279
4863.00,0.7360
4862.00,0.7449
4861.00,0.7547
4860.00,0.7652
4859.00,0.7765
4858.00,0.7884
4857.00,0.8010
4856.00,0.8141
4855.00,0.8277
4854.00,0.8417
4853.00,0.8560
4852.00,0.8707
4851.00,0.8856
4850.00,0.9008
4849.00,0.9163
4848.00,0.9321
4847.00,0.9481
4846.00,0.9642
4845.00,0.9804
4844.00,0.9966
4843.00,1.0127
4842.00,1.0287
4841.00,1.0445
4840.00,1.0602
4839.00,1.0758
4838.00,1.0912
4837.00,1.1065
4836.00,1.1217
4835.00,1.1367
4834.00,1.1514
4833.00,1.1658
4832.00,1.1799
4831.00,1.1937
4830.00,1.2071
4829.00,1.2202
4828.00,1.2328
4827.00,1.2451
4826.00,1.2569
4825.00,1.2684
4824.00,1.2794
4823.00,1.2901
4822.00,1.3003
4821.00,1.3103
4820.00,1.3198
4819.00,1.3290
4818.00,1.3378
4817.00,1.3462
4816.00,1.3542
4815.00,1.3617
4814.00,1.3686
4813.00,1.3749
4812.00,1.3806
4811.00,1.3857
4810.00,1.3903
4809.00,1.3946
4808.00,1.3987
4807.00,1.4027
4806.00,1.4064
4805.00,1.4096
4804.00,1.4123
4803.00,1.4145
4802.00,1.4163
4801.00,1.4178
4800.00,1.4190
4799.00,1.4199
4798.00,1.4204
4797.00,1.4204
4796.00,1.4200
4795.00,1.4191
4794.00,1.4178
4793.00,1.4160
4792.00,1.4137
4791.00,1.4107
4790.00,1.4074
4789.00,1.4040
4788.00,1.4004
4787.00,1.3967
4786.00,1.3925
4785.00,1.3875
4784.00,1.3817
4783.00,1.3751
4782.00,1.3682
4781.00,1.3611
4780.00,1.3539
4779.00,1.3465
4778.00,1.3386
4777.00,1.3302
4776.00,1.3213
4775.00,1.3120
4774.00,1.3020
4773.00,1.2914
4772.00,1.2801
4771.00,1.2682
4770.00,1.2558
4769.00,1.2433
4768.00,1.2307
4767.00,1.2177
4766.00,1.2042
4765.00,1.1900
4764.00,1.1753
4763.00,1.1602
4762.00,1.1447
4761.00,1.1289
4760.00,1.1129
4759.00,1.0965
4758.00,1.0798
4757.00,1.0629
4756.00,1.0456
4755.00,1.0283
4754.00,1.0108
4753.00,0.9933
4752.00,0.9759
4751.00,0.9585
4750.00,0.9412
4749.00,0.9241
4748.00,0.9071
4747.00,0.8905
4746.00,0.8742
4745.00,0.8583
4744.00,0.8428
4743.00,0.8279
4742.00,0.8136
4741.00,0.8000
4740.00,0.7872
4739.00,0.7751
4738.00,0.7639
4737.00,0.7537
4736.00,0.7444
4735.00,0.7362
4734.00,0.7290
4733.00,0.7229
4732.00,0.7180
4731.00,0.7142
4730.00,0.7116
4729.00,0.7102
4728.00,0.7100
4727.00,0.7111
4726.00,0.7135
4725.00,0.7171
4724.00,0.7218
4723.00,0.7276
4722.00,0.7346
4721.00,0.7425
4720.00,0.7515
4719.00,0.7613
4718.00,0.7720
4717.00,0.7835
4716.00,0.7958
4715.00,0.8087
4714.00,0.8222
4713.00,0.8364
4712.00,0.8510
4711.00,0.8660
4710.00,0.8814
4709.00,0.8971
4708.00,0.9131
4707.00,0.9294
4706.00,0.9461
4705.00,0.9630
4704.00,0.9801
4703.00,0.9973
4702.00,1.0143
4701.00,1.0313
4700.00,1.0481
4699.00,1.0648
4698.00,1.0813
4697.00,1.0979
4696.00,1.1144
4695.00,1.1307
4694.00,1.1468
4693.00,1.1625
4692.00,1.1779
4691.00,1.1928
4690.00,1.2075
4689.00,1.2220
4688.00,1.2364
4687.00,1.2503
4686.00,1.2637
4685.00,1.2767
4684.00,1.2891
4683.00,1.3011
4682.00,1.3127
4681.00,1.3238
4680.00,1.3345
4679.00,1.3448
4678.00,1.3547
4677.00,1.3641
4676.00,1.3732
4675.00,1.3816
4674.00,1.3895
4673.00,1.3969
4672.00,1.4040
4671.00,1.4107
4670.00,1.4170
4669.00,1.4229
4668.00,1.4285
4667.00,1.4335
4666.00,1.4381
4665.00,1.4423
4664.00,1.4461
4663.00,1.4494
4662.00,1.4521
4661.00,1.4543
4660.00,1.4561
4659.00,1.4575
4658.00,1.4588
4657.00,1.4599
4656.00,1.4607
4655.00,1.4609
4654.00,1.4604
4653.00,1.4592
4652.00,1.4575
4651.00,1.4554
4650.00,1.4530
4649.00,1.4502
4648.00,1.4470
4647.00,1.4436
4646.00,1.4399
4645.00,1.4359
4644.00,1.4315
4643.00,1.4265
4642.00,1.4210
4641.00,1.4148
4640.00,1.4082
4639.00,1.4011
4638.00,1.3935
4637.00,1.3855
4636.00,1.3771
4635.00,1.3682
4634.00,1.3588
4633.00,1.3490
4632.00,1.3387
4631.00,1.3279
4630.00,1.3167
4629.00,1.3050
4628.00,1.2928
4627.00,1.2802
4626.00,1.2672
4625.00,1.2538
4624.00,1.2401
4623.00,1.2260
4622.00,1.2114
4621.00,1.1965
4620.00,1.1812
4619.00,1.1656
4618.00,1.1497
4617.00,1.1334
4616.00,1.1167
4615.00,1.0999
4614.00,1.0827
4613.00,1.0653
4612.00,1.0476
4611.00,1.0298
4610.00,1.0118
4609.00,0.9939
4608.00,0.9761
4607.00,0.9582
4606.00,0.9404
4605.00,0.9228
4604.00,0.9055
4603.00,0.8885
4602.00,0.8720
4601.00,0.8559
4600.00,0.8403
4599.00,0.8254
4598.00,0.8112
4597.00,0.7978
4596.00,0.7852
4595.00,0.7736
4594.00,0.7630
4593.00,0.7534
4592.00,0.7450
4591.00,0.7377
4590.00,0.7316
4589.00,0.7269
4588.00,0.7234
4587.00,0.7213
4586.00,0.7205
4585.00,0.7210
4584.00,0.7228
4583.00,0.7260
4582.00,0.7304
4581.00,0.7360
4580.00,0.7429
4579.00,0.7509
4578.00,0.7600
4577.00,0.7701
4576.00,0.7812
4575.00,0.7931
4574.00,0.8058
4573.00,0.8192
4572.00,0.8333
4571.00,0.8481
4570.00,0.8635
4569.00,0.8793
4568.00,0.8956
4567.00,0.9124
4566.00,0.9294
4565.00,0.9467
4564.00,0.9642
4563.00,0.9819
4562.00,0.9997
4561.00,1.0176
4560.00,1.0355
4559.00,1.0535
4558.00,1.0715
4557.00,1.0894
4556.00,1.1072
4555.00,1.1247
4554.00,1.1421
4553.00,1.1592
4552.00,1.1761
4551.00,1.1929
4550.00,1.2093
4549.00,1.2253
4548.00,1.2409
4547.00,1.2561
4546.00,1.2710
4545.00,1.2854
4544.00,1.2993
4543.00,1.3129
4542.00,1.3259
4541.00,1.3385
4540.00,1.3506
4539.00,1.3622
4538.00,1.3735
4537.00,1.3844
4536.00,1.3950
4535.00,1.4051
4534.00,1.4148
4533.00,1.4239
4532.00,1.4325
4531.00,1.4406
4530.00,1.4482
4529.00,1.4555
4528.00,1.4623
4527.00,1.4686
4526.00,1.4745
4525.00,1.4797
4524.00,1.4844
4523.00,1.4885
4522.00,1.4922
4521.00,1.4956
4520.00,1.4987
4519.00,1.5015
4518.00,1.5040
4517.00,1.5060
4516.00,1.5077
4515.00,1.5090
4514.00,1.5098
4513.00,1.5103
4512.00,1.5103
4511.00,1.5099
4510.00,1.5090
4509.00,1.5076
4508.00,1.5058
4507.00,1.5036
4506.00,1.5010
4505.00,1.4981
4504.00,1.4948
4503.00,1.4909
4502.00,1.4864
4501.00,1.4814
4500.00,1.4759
4499.00,1.4698
4498.00,1.4633
4497.00,1.4563
4496.00,1.4489
4495.00,1.4410
4494.00,1.4328
4493.00,1.4242
4492.00,1.4151
4491.00,1.4055
4490.00,1.3955
4489.00,1.3849
4488.00,1.3739
4487.00,1.3623
4486.00,1.3504
4485.00,1.3379
4484.00,1.3249
4483.00,1.3116
4482.00,1.2979
4481.00,1.2838
4480.00,1.2692
4479.00,1.2541
4478.00,1.2385
4477.00,1.2225
4476.00,1.2060
4475.00,1.1889
4474.00,1.1715
4473.00,1.1538
4472.00,1.1360
4471.00,1.1179
4470.00,1.0998
4469.00,1.0815
4468.00,1.0632
4467.00,1.0449
4466.00,1.0269
4465.00,1.0092
4464.00,0.9918
4463.00,0.9749
4462.00,0.9583
4461.00,0.9423
4460.00,0.9269
4459.00,0.9123
4458.00,0.8987
4457.00,0.8860
4456.00,0.8743
4455.00,0.8638
4454.00,0.8543
4453.00,0.8462
4452.00,0.8393
4451.00,0.8338
4450.00,0.8297
4449.00,0.8270
4448.00,0.8257
4447.00,0.8257
4446.00,0.8269
4445.00,0.8293
4444.00,0.8326
4443.00,0.8368
4442.00,0.8416
4441.00,0.8469
4440.00,0.8525
4439.00,0.8583
4438.00,0.8643
4437.00,0.8704
4436.00,0.8765
4435.00,0.8827
4434.00,0.8889
4433.00,0.8954
4432.00,0.9024
4431.00,0.9101
4430.00,0.9185
4429.00,0.9278
4428.00,0.9379
4427.00,0.9490
4426.00,0.9611
4425.00,0.9740
4424.00,0.9878
4423.00,1.0022
4422.00,1.0174
4421.00,1.0332
4420.00,1.0496
4419.00,1.0665
4418.00,1.0838
4417.00,1.1015
4416.00,1.1193
4415.00,1.1371
4414.00,1.1551
4413.00,1.1729
4412.00,1.1908
4411.00,1.2086
4410.00,1.2264
4409.00,1.2441
4408.00,1.2614
4407.00,1.2784
4406.00,1.2950
4405.00,1.3112
4404.00,1.3271
4403.00,1.3425
4402.00,1.3573
4401.00,1.3713
4400.00,1.3846
4399.00,1.3973
4398.00,1.4094
4397.00,1.4209
4396.00,1.4316
4395.00,1.4417
4394.00,1.4514
4393.00,1.4609
4392.00,1.4703
4391.00,1.4795
4390.00,1.4882
4389.00,1.4964
4388.00,1.5039
4387.00,1.5109
4386.00,1.5174
4385.00,1.5238
4384.00,1.5301
4383.00,1.5361
4382.00,1.5417
4381.00,1.5468
4380.00,1.5514
4379.00,1.5554
4378.00,1.5590
4377.00,1.5626
4376.00,1.5661
4375.00,1.5692
4374.00,1.5717
4373.00,1.5735
4372.00,1.5747
4371.00,1.5757
4370.00,1.5767
4369.00,1.5776
4368.00,1.5782
4367.00,1.5783
4366.00,1.5777
4365.00,1.5767
4364.00,1.5752
4363.00,1.5733
4362.00,1.5708
4361.00,1.5678
4360.00,1.5645
4359.00,1.5609
4358.00,1.5569
4357.00,1.5525
4356.00,1.5477
4355.00,1.5423
4354.00,1.5364
4353.00,1.5300
4352.00,1.5232
4351.00,1.5158
4350.00,1.5079
4349.00,1.4994
4348.00,1.4904
4347.00,1.4809
4346.00,1.4711
4345.00,1.4608
4344.00,1.4500
4343.00,1.4386
4342.00,1.4266
4341.00,1.4142
4340.00,1.4014
4339.00,1.3883
4338.00,1.3746
4337.00,1.3602
4336.00,1.3450
4335.00,1.3292
4334.00,1.3128
4333.00,1.2961
4332.00,1.2790
4331.00,1.2616
4330.00,1.2437
4329.00,1.2255
4328.00,1.2070
4327.00,1.1881
4326.00,1.1691
4325.00,1.1499
4324.00,1.1307
4323.00,1.1115
4322.00,1.0923
4321.00,1.0731
4320.00,1.0538
4319.00,1.0342
4318.00,1.0145
4317.00,0.9946
4316.00,0.9748
4315.00,0.9551
4314.00,0.9357
4313.00,0.9166
4312.00,0.8981
4311.00,0.8803
4310.00,0.8634
4309.00,0.8473
4308.00,0.8324
4307.00,0.8186
4306.00,0.8061
4305.00,0.7950
4304.00,0.7852
4303.00,0.7770
4302.00,0.7703
4301.00,0.7652
4300.00,0.7616
4299.00,0.7597
4298.00,0.7595
4297.00,0.7608
4296.00,0.7637
4295.00,0.7681
4294.00,0.7741
4293.00,0.7815
4292.00,0.7903
4291.00,0.8004
4290.00,0.8117
4289.00,0.8240
4288.00,0.8373
4287.00,0.8514
4286.00,0.8665
4285.00,0.8823
4284.00,0.8988
4283.00,0.9158
4282.00,0.9334
4281.00,0.9515
4280.00,0.9700
4279.00,0.9889
4278.00,1.0080
4277.00,1.0275
4276.00,1.0471
4275.00,1.0669
4274.00,1.0867
4273.00,1.1065
4272.00,1.1262
4271.00,1.1458
4270.00,1.1653
4269.00,1.1846
4268.00,1.2037
4267.00,1.2224
4266.00,1.2408
4265.00,1.2590
4264.00,1.2769
4263.00,1.2947
4262.00,1.3121
4261.00,1.3290
4260.00,1.3454
4259.00,1.3613
4258.00,1.3767
4257.00,1.3917
4256.00,1.4062
4255.00,1.4201
4254.00,1.4333
4253.00,1.4460
4252.00,1.4582
4251.00,1.4701
4250.00,1.4817
4249.00,1.4927
4248.00,1.5030
4247.00,1.5127
4246.00,1.5218
4245.00,1.5304
4244.00,1.5384
4243.00,1.5460
4242.00,1.5533
4241.00,1.5603
4240.00,1.5670
4239.00,1.5731
4238.00,1.5786
4237.00,1.5836
4236.00,1.5883
4235.00,1.5927
4234.00,1.5968
4233.00,1.6004
4232.00,1.6035
4231.00,1.6061
4230.00,1.6081
4229.00,1.6097
4228.00,1.6107
4227.00,1.6113
4226.00,1.6115
4225.00,1.6116
4224.00,1.6113
4223.00,1.6105
4222.00,1.6091
4221.00,1.6070
4220.00,1.6045
4219.00,1.6017
4218.00,1.5986
4217.00,1.5952
4216.00,1.5913
4215.00,1.5869
4214.00,1.5821
4213.00,1.5770
4212.00,1.5714
4211.00,1.5652
4210.00,1.5584
4209.00,1.5510
4208.00,1.5432
4207.00,1.5351
4206.00,1.5265
4205.00,1.5176
4204.00,1.5081
4203.00,1.4981
4202.00,1.4875
4201.00,1.4765
4200.00,1.4649
4199.00,1.4525
4198.00,1.4395
4197.00,1.4258
4196.00,1.4114
4195.00,1.3965
4194.00,1.3812
4193.00,1.3654
4192.00,1.3491
4191.00,1.3321
4190.00,1.3145
4189.00,1.2963
4188.00,1.2774
4187.00,1.2581
4186.00,1.2383
4185.00,1.2181
4184.00,1.1973
4183.00,1.1761
4182.00,1.1545
4181.00,1.1327
4180.00,1.1108
4179.00,1.0887
4178.00,1.0667
4177.00,1.0447
4176.00,1.0229
4175.00,1.0014
4174.00,0.9801
4173.00,0.9593
4172.00,0.9390
4171.00,0.9194
4170.00,0.9005
4169.00,0.8825
4168.00,0.8654
4167.00,0.8493
4166.00,0.8343
4165.00,0.8205
4164.00,0.8080
4163.00,0.7968
4162.00,0.7871
4161.00,0.7790
4160.00,0.7725
4159.00,0.7678
4158.00,0.7649
4157.00,0.7636
4156.00,0.7642
4155.00,0.7664
4154.00,0.7703
4153.00,0.7758
4152.00,0.7829
4151.00,0.7915
4150.00,0.8015
4149.00,0.8129
4148.00,0.8257
4147.00,0.8396
4146.00,0.8546
4145.00,0.8705
4144.00,0.8873
4143.00,0.9050
4142.00,0.9233
4141.00,0.9423
4140.00,0.9619
4139.00,0.9818
4138.00,1.0021
4137.00,1.0228
4136.00,1.0437
4135.00,1.0648
4134.00,1.0861
4133.00,1.1074
4132.00,1.1287
4131.00,1.1500
4130.00,1.1711
4129.00,1.1922
4128.00,1.2130
4127.00,1.2335
4126.00,1.2538
4125.00,1.2738
4124.00,1.2934
4123.00,1.3126
4122.00,1.3314
4121.00,1.3496
4120.00,1.3675
4119.00,1.3849
4118.00,1.4017
4117.00,1.4180
4116.00,1.4336
4115.00,1.4487
4114.00,1.4633
4113.00,1.4777
4112.00,1.4915
4111.00,1.5048
4110.00,1.5172
4109.00,1.5290
4108.00,1.5401
4107.00,1.5510
4106.00,1.5615
4105.00,1.5715
4104.00,1.5809
4103.00,1.5896
4102.00,1.5978
4101.00,1.6054
4100.00,1.6126
4099.00,1.6193
4098.00,1.6254
4097.00,1.6313
4096.00,1.6369
4095.00,1.6424
4094.00,1.6475
4093.00,1.6520
4092.00,1.6560
4091.00,1.6592
4090.00,1.6619
4089.00,1.6641
4088.00,1.6660
4087.00,1.6675
4086.00,1.6687
4085.00,1.6695
4084.00,1.6697
4083.00,1.6694
4082.00,1.6685
4081.00,1.6675
4080.00,1.6664
4079.00,1.6651
4078.00,1.6632
4077.00,1.6606
4076.00,1.6573
4075.00,1.6533
4074.00,1.6490
4073.00,1.6445
4072.00,1.6396
4071.00,1.6345
4070.00,1.6289
4069.00,1.6230
4068.00,1.6167
4067.00,1.6100
4066.00,1.6027
4065.00,1.5947
4064.00,1.5862
4063.00,1.5770
4062.00,1.5672
4061.00,1.5568
4060.00,1.5459
4059.00,1.5346
4058.00,1.5228
4057.00,1.5105
4056.00,1.4975
4055.00,1.4838
4054.00,1.4692
4053.00,1.4541
4052.00,1.4385
4051.00,1.4225
4050.00,1.4061
4049.00,1.3892
4048.00,1.3715
4047.00,1.3532
4046.00,1.3342
4045.00,1.3148
4044.00,1.2949
4043.00,1.2747
4042.00,1.2541
4041.00,1.2334
4040.00,1.2125
4039.00,1.1916
4038.00,1.1707
4037.00,1.1499
4036.00,1.1294
4035.00,1.1092
4034.00,1.0893
4033.00,1.0698
4032.00,1.0506
4031.00,1.0317
4030.00,1.0132
4029.00,0.9950
4028.00,0.9771
4027.00,0.9594
4026.00,0.9420
4025.00,0.9250
4024.00,0.9085
4023.00,0.8926
4022.00,0.8776
4021.00,0.8636
4020.00,0.8509
4019.00,0.8395
4018.00,0.8297
4017.00,0.8215
4016.00,0.8150
4015.00,0.8103
4014.00,0.8075
4013.00,0.8067
4012.00,0.8077
4011.00,0.8106
4010.00,0.8154
4009.00,0.8220
4008.00,0.8304
4007.00,0.8405
4006.00,0.8521
4005.00,0.8652
4004.00,0.8797
4003.00,0.8956
4002.00,0.9126
4001.00,0.9307
4000.00,0.9496
3999.00,0.9693
3998.00,0.9896
3997.00,1.0104
3996.00,1.0318
3995.00,1.0536
3994.00,1.0759
3993.00,1.0985
3992.00,1.1212
3991.00,1.1442
3990.00,1.1672
3989.00,1.1903
3988.00,1.2133
3987.00,1.2360
3986.00,1.2583
3985.00,1.2800
3984.00,1.3013
3983.00,1.3223
3982.00,1.3429
3981.00,1.3630
3980.00,1.3828
3979.00,1.4022
3978.00,1.4210
3977.00,1.4392
3976.00,1.4565
3975.00,1.4729
3974.00,1.4886
3973.00,1.5035
3972.00,1.5177
3971.00,1.5314
3970.00,1.5447
3969.00,1.5577
3968.00,1.5703
3967.00,1.5823
3966.00,1.5935
3965.00,1.6041
3964.00,1.6143
3963.00,1.6245
3962.00,1.6345
3961.00,1.6442
3960.00,1.6533
3959.00,1.6616
3958.00,1.6691
3957.00,1.6761
3956.00,1.6830
3955.00,1.6896
3954.00,1.6959
3953.00,1.7018
3952.00,1.7071
3951.00,1.7119
3950.00,1.7161
3949.00,1.7197
3948.00,1.7229
3947.00,1.7258
3946.00,1.7285
3945.00,1.7311
3944.00,1.7333
3943.00,1.7350
3942.00,1.7362
3941.00,1.7368
3940.00,1.7367
3939.00,1.7359
3938.00,1.7346
3937.00,1.7329
3936.00,1.7308
3935.00,1.7283
3934.00,1.7255
3933.00,1.7225
3932.00,1.7193
3931.00,1.7159
3930.00,1.7121
3929.00,1.7076
3928.00,1.7022
3927.00,1.6960
3926.00,1.6894
3925.00,1.6823
3924.00,1.6751
3923.00,1.6676
3922.00,1.6596
3921.00,1.6510
3920.00,1.6420
3919.00,1.6324
3918.00,1.6224
3917.00,1.6117
3916.00,1.6005
3915.00,1.5887
3914.00,1.5761
3913.00,1.5625
3912.00,1.5480
3911.00,1.5328
3910.00,1.5173
3909.00,1.5016
3908.00,1.4859
3907.00,1.4698
3906.00,1.4530
3905.00,1.4352
3904.00,1.4162
3903.00,1.3962
3902.00,1.3752
3901.00,1.3534
3900.00,1.3306
3899.00,1.3069
3898.00,1.2825
3897.00,1.2579
3896.00,1.2334
3895.00,1.2091
3894.00,1.1847
3893.00,1.1597
3892.00,1.1337
3891.00,1.1069
3890.00,1.0804
3889.00,1.0554
3888.00,1.0318
3887.00,1.0087
3886.00,0.9851
3885.00,0.9613
3884.00,0.9385
3883.00,0.9175
3882.00,0.8981
3881.00,0.8795
3880.00,0.8617
3879.00,0.8451
3878.00,0.8306
3877.00,0.8187
3876.00,0.8092
3875.00,0.8019
3874.00,0.7962
3873.00,0.7924
3872.00,0.7906
3871.00,0.7911
3870.00,0.7938
3869.00,0.7986
3868.00,0.8049
3867.00,0.8129
3866.00,0.8231
3865.00,0.8360
3864.00,0.8511
3863.00,0.8672
3862.00,0.8839
3861.00,0.9014
3860.00,0.9200
3859.00,0.9397
3858.00,0.9597
3857.00,0.9796
3856.00,0.9996
3855.00,1.0211
3854.00,1.0464
3853.00,1.0759
3852.00,1.1072
3851.00,1.1363
3850.00,1.1611
3849.00,1.1831
3848.00,1.2046
3847.00,1.2260
3846.00,1.2476
3845.00,1.2700
3844.00,1.2931
3843.00,1.3164
3842.00,1.3393
3841.00,1.3612
3840.00,1.3823
3839.00,1.4033
3838.00,1.4247
3837.00,1.4463
3836.00,1.4674
3835.00,1.4872
3834.00,1.5060
3833.00,1.5242
3832.00,1.5419
3831.00,1.5590
3830.00,1.5754
3829.00,1.5909
3828.00,1.6057
3827.00,1.6198
3826.00,1.6333
3825.00,1.6458
3824.00,1.6572
3823.00,1.6677
3822.00,1.6783
3821.00,1.6894
3820.00,1.7002
3819.00,1.7097
3818.00,1.7174
3817.00,1.7247
3816.00,1.7326
3815.00,1.7410
3814.00,1.7487
3813.00,1.7555
3812.00,1.7616
3811.00,1.7676
3810.00,1.7734
3809.00,1.7786
3808.00,1.7830
3807.00,1.7867
3806.00,1.7899
3805.00,1.7924
3804.00,1.7939
3803.00,1.7950
3802.00,1.7961
3801.00,1.7970
3800.00,1.7968
3799.00,1.7954
3798.00,1.7937
3797.00,1.7923
3796.00,1.7914
3795.00,1.7902
3794.00,1.7886
3793.00,1.7866
3792.00,1.7844
3791.00,1.7819
3790.00,1.7792
3789.00,1.7758
3788.00,1.7716
3787.00,1.7666
3786.00,1.7610
3785.00,1.7547
3784.00,1.7479
3783.00,1.7405
3782.00,1.7328
3781.00,1.7244
3780.00,1.7152
3779.00,1.7050
3778.00,1.6942
3777.00,1.6828
3776.00,1.6711
3775.00,1.6594
3774.00,1.6480
3773.00,1.6363
3772.00,1.6236
3771.00,1.6098
3770.00,1.5946
3769.00,1.5782
3768.00,1.5609
3767.00,1.5431
3766.00,1.5247
3765.00,1.5058
3764.00,1.4862
3763.00,1.4664
3762.00,1.4462
3761.00,1.4249
3760.00,1.4021
3759.00,1.3779
3758.00,1.3527
3757.00,1.3270
3756.00,1.3017
3755.00,1.2773
3754.00,1.2534
3753.00,1.2288
3752.00,1.2023
3751.00,1.1735
3750.00,1.1429
3749.00,1.1125
3748.00,1.0845
3747.00,1.0601
3746.00,1.0381
3745.00,1.0156
3744.00,0.9915
3743.00,0.9683
3742.00,0.9486
3741.00,0.9323
3740.00,0.9182
3739.00,0.9053
3738.00,0.8934
3737.00,0.8827
3736.00,0.8733
3735.00,0.8653
3734.00,0.8590
3733.00,0.8545
3732.00,0.8513
3731.00,0.8493
3730.00,0.8493
3729.00,0.8516
3728.00,0.8568
3727.00,0.8649
3726.00,0.8756
3725.00,0.8880
3724.00,0.9015
3723.00,0.9165
3722.00,0.9335
3721.00,0.9522
3720.00,0.9725
3719.00,0.9943
3718.00,1.0174
3717.00,1.0423
3716.00,1.0654
3715.00,1.0882
3714.00,1.1155
3713.00,1.1404
3712.00,1.1729
3711.00,1.1922
3710.00,1.2192
3709.00,1.2640
3708.00,1.2947
3707.00,1.3249
3706.00,1.3506
3705.00,1.3773
3704.00,1.4026
3703.00,1.4282
3702.00,1.4537
3701.00,1.4794
3700.00,1.5047
3699.00,1.5289
3698.00,1.5517
3697.00,1.5737
3696.00,1.5951
3695.00,1.6155
3694.00,1.6347
3693.00,1.6529
3692.00,1.6706
3691.00,1.6878
3690.00,1.7046
3689.00,1.7211
3688.00,1.7373
3687.00,1.7522
3686.00,1.7658
3685.00,1.7786
3684.00,1.7908
3683.00,1.8022
3682.00,1.8124
3681.00,1.8220
3680.00,1.8310
3679.00,1.8395
3678.00,1.8469
3677.00,1.8535
3676.00,1.8599
3675.00,1.8664
3674.00,1.8726
3673.00,1.8780
3672.00,1.8827
3671.00,1.8874
3670.00,1.8919
3669.00,1.8958
3668.00,1.8992
3667.00,1.9023
3666.00,1.9052
3665.00,1.9081
3664.00,1.9108
3663.00,1.9127
3662.00,1.9141
3661.00,1.9151
3660.00,1.9159
3659.00,1.9162
3658.00,1.9162
3657.00,1.9161
3656.00,1.9159
3655.00,1.9154
3654.00,1.9146
3653.00,1.9135
3652.00,1.9121
3651.00,1.9101
3650.00,1.9073
3649.00,1.9035
3648.00,1.8989
3647.00,1.8932
3646.00,1.8871
3645.00,1.8819
3644.00,1.8780
3643.00,1.8748
3642.00,1.8715
3641.00,1.8678
3640.00,1.8634
3639.00,1.8585
3638.00,1.8529
3637.00,1.8470
3636.00,1.8405
3635.00,1.8335
3634.00,1.8258
3633.00,1.8179
3632.00,1.8097
3631.00,1.8012
3630.00,1.7917
3629.00,1.7804
3628.00,1.7677
3627.00,1.7542
3626.00,1.7405
3625.00,1.7267
3624.00,1.7131
3623.00,1.6991
3622.00,1.6848
3621.00,1.6702
3620.00,1.6552
3619.00,1.6395
3618.00,1.6232
3617.00,1.6065
3616.00,1.5895
3615.00,1.5720
3614.00,1.5530
3613.00,1.5310
3612.00,1.5062
3611.00,1.4820
3610.00,1.4621
3609.00,1.4474
3608.00,1.4355
3607.00,1.4224
3606.00,1.4062
3605.00,1.3875
3604.00,1.3682
3603.00,1.3490
3602.00,1.3300
3601.00,1.3115
3600.00,1.2934
3599.00,1.2758
3598.00,1.2588
3597.00,1.2429
3596.00,1.2281
3595.00,1.2146
3594.00,1.2021
3593.00,1.1910
3592.00,1.1812
3591.00,1.1730
3590.00,1.1663
3589.00,1.1611
3588.00,1.1573
3587.00,1.1548
3586.00,1.1537
3585.00,1.1536
3584.00,1.1548
3583.00,1.1573
3582.00,1.1613
3581.00,1.1669
3580.00,1.1744
3579.00,1.1841
3578.00,1.1958
3577.00,1.2091
3576.00,1.2235
3575.00,1.2392
3574.00,1.2559
3573.00,1.2735
3572.00,1.2917
3571.00,1.3103
3570.00,1.3295
3569.00,1.3496
3568.00,1.3709
3567.00,1.3934
3566.00,1.4163
3565.00,1.4386
3564.00,1.4595
3563.00,1.4791
3562.00,1.4981
3561.00,1.5171
3560.00,1.5364
3559.00,1.5559
3558.00,1.5753
3557.00,1.5942
3556.00,1.6127
3555.00,1.6308
3554.00,1.6485
3553.00,1.6660
3552.00,1.6832
3551.00,1.6999
3550.00,1.7158
3549.00,1.7311
3548.00,1.7459
3547.00,1.7604
3546.00,1.7744
3545.00,1.7877
3544.00,1.8003
3543.00,1.8123
3542.00,1.8238
3541.00,1.8346
3540.00,1.8445
3539.00,1.8537
3538.00,1.8627
3537.00,1.8718
3536.00,1.8812
3535.00,1.8901
3534.00,1.8981
3533.00,1.9054
3532.00,1.9124
3531.00,1.9192
3530.00,1.9258
3529.00,1.9319
3528.00,1.9374
3527.00,1.9424
3526.00,1.9471
3525.00,1.9519
3524.00,1.9568
3523.00,1.9616
3522.00,1.9663
3521.00,1.9707
3520.00,1.9741
3519.00,1.9765
3518.00,1.9779
3517.00,1.9789
3516.00,1.9800
3515.00,1.9813
3514.00,1.9826
3513.00,1.9837
3512.00,1.9840
3511.00,1.9835
3510.00,1.9822
3509.00,1.9807
3508.00,1.9791
3507.00,1.9775
3506.00,1.9757
3505.00,1.9738
3504.00,1.9712
3503.00,1.9676
3502.00,1.9631
3501.00,1.9580
3500.00,1.9527
3499.00,1.9474
3498.00,1.9422
3497.00,1.9371
3496.00,1.9316
3495.00,1.9252
3494.00,1.9179
3493.00,1.9102
3492.00,1.9022
3491.00,1.8937
3490.00,1.8846
3489.00,1.8750
3488.00,1.8649
3487.00,1.8544
3486.00,1.8435
3485.00,1.8323
3484.00,1.8206
3483.00,1.8081
3482.00,1.7949
3481.00,1.7811
3480.00,1.7668
3479.00,1.7518
3478.00,1.7359
3477.00,1.7191
3476.00,1.7017
3475.00,1.6835
3474.00,1.6648
3473.00,1.6456
3472.00,1.6258
3471.00,1.6053
3470.00,1.5840
3469.00,1.5622
3468.00,1.5398
3467.00,1.5166
3466.00,1.4926
3465.00,1.4680
3464.00,1.4430
3463.00,1.4179
3462.00,1.3927
3461.00,1.3674
3460.00,1.3421
3459.00,1.3169
3458.00,1.2920
3457.00,1.2675
3456.00,1.2437
3455.00,1.2205
3454.00,1.1981
3453.00,1.1767
3452.00,1.1567
3451.00,1.1381
3450.00,1.1210
3449.00,1.1055
3448.00,1.0916
3447.00,1.0795
3446.00,1.0693
3445.00,1.0611
3444.00,1.0552
3443.00,1.0516
3442.00,1.0505
3441.00,1.0517
3440.00,1.0551
3439.00,1.0607
3438.00,1.0684
3437.00,1.0782
3436.00,1.0901
3435.00,1.1038
3434.00,1.1192
3433.00,1.1360
3432.00,1.1543
3431.00,1.1738
3430.00,1.1944
3429.00,1.2160
3428.00,1.2384
3427.00,1.2614
3426.00,1.2852
3425.00,1.3094
3424.00,1.3341
3423.00,1.3591
3422.00,1.3842
3421.00,1.4092
3420.00,1.4341
3419.00,1.4589
3418.00,1.4837
3417.00,1.5084
3416.00,1.5327
3415.00,1.5565
3414.00,1.5798
3413.00,1.6025
3412.00,1.6246
3411.00,1.6462
3410.00,1.6671
3409.00,1.6875
3408.00,1.7074
3407.00,1.7267
3406.00,1.7451
3405.00,1.7626
3404.00,1.7793
3403.00,1.7952
3402.00,1.8104
3401.00,1.8250
3400.00,1.8390
3399.00,1.8525
3398.00,1.8655
3397.00,1.8781
3396.00,1.8901
3395.00,1.9013
3394.00,1.9118
3393.00,1.9219
3392.00,1.9317
3391.00,1.9412
3390.00,1.9500
3389.00,1.9583
3388.00,1.9661
3387.00,1.9734
3386.00,1.9804
3385.00,1.9868
3384.00,1.9926
3383.00,1.9979
3382.00,2.0033
3381.00,2.0088
3380.00,2.0142
3379.00,2.0188
3378.00,2.0225
3377.00,2.0255
3376.00,2.0280
3375.00,2.0300
3374.00,2.0317
3373.00,2.0334
3372.00,2.0348
3371.00,2.0360
3370.00,2.0369
3369.00,2.0375
3368.00,2.0375
3367.00,2.0365
3366.00,2.0347
3365.00,2.0327
3364.00,2.0305
3363.00,2.0280
3362.00,2.0251
3361.00,2.0217
3360.00,2.0178
3359.00,2.0129
3358.00,2.0072
3357.00,2.0016
3356.00,1.9962
3355.00,1.9906
3354.00,1.9844
3353.00,1.9775
3352.00,1.9701
3351.00,1.9623
3350.00,1.9538
3349.00,1.9445
3348.00,1.9344
3347.00,1.9238
3346.00,1.9128
3345.00,1.9017
3344.00,1.8903
3343.00,1.8784
3342.00,1.8659
3341.00,1.8524
3340.00,1.8380
3339.00,1.8226
3338.00,1.8064
3337.00,1.7897
3336.00,1.7724
3335.00,1.7545
3334.00,1.7360
3333.00,1.7170
3332.00,1.6975
3331.00,1.6775
3330.00,1.6569
3329.00,1.6356
3328.00,1.6135
3327.00,1.5907
3326.00,1.5672
3325.00,1.5432
3324.00,1.5188
3323.00,1.4938
3322.00,1.4682
3321.00,1.4420
3320.00,1.4156
3319.00,1.3892
3318.00,1.3628
3317.00,1.3365
3316.00,1.3104
3315.00,1.2847
3314.00,1.2597
3313.00,1.2355
3312.00,1.2124
3311.00,1.1906
3310.00,1.1701
3309.00,1.1511
3308.00,1.1340
3307.00,1.1188
3306.00,1.1056
3305.00,1.0946
3304.00,1.0860
3303.00,1.0799
3302.00,1.0763
3301.00,1.0752
3300.00,1.0767
3299.00,1.0806
3298.00,1.0868
3297.00,1.0952
3296.00,1.1058
3295.00,1.1183
3294.00,1.1328
3293.00,1.1491
3292.00,1.1669
3291.00,1.1862
3290.00,1.2066
3289.00,1.2281
3288.00,1.2506
3287.00,1.2738
3286.00,1.2978
3285.00,1.3224
3284.00,1.3475
3283.00,1.3729
3282.00,1.3987
3281.00,1.4247
3280.00,1.4508
3279.00,1.4767
3278.00,1.5024
3277.00,1.5280
3276.00,1.5534
3275.00,1.5782
3274.00,1.6025
3273.00,1.6262
3272.00,1.6496
3271.00,1.6727
3270.00,1.6951
3269.00,1.7169
3268.00,1.7380
3267.00,1.7586
3266.00,1.7785
3265.00,1.7977
3264.00,1.8159
3263.00,1.8333
3262.00,1.8501
3261.00,1.8664
3260.00,1.8820
3259.00,1.8970
3258.00,1.9113
3257.00,1.9254
3256.00,1.9390
3255.00,1.9519
3254.00,1.9637
3253.00,1.9749
3252.00,1.9858
3251.00,1.9963
3250.00,2.0060
3249.00,2.0150
3248.00,2.0235
3247.00,2.0316
3246.00,2.0396
3245.00,2.0475
3244.00,2.0551
3243.00,2.0619
3242.00,2.0682
3241.00,2.0738
3240.00,2.0788
3239.00,2.0831
3238.00,2.0867
3237.00,2.0901
3236.00,2.0933
3235.00,2.0962
3234.00,2.0988
3233.00,2.1010
3232.00,2.1028
3231.00,2.1042
3230.00,2.1052
3229.00,2.1057
3228.00,2.1057
3227.00,2.1052
3226.00,2.1044
3225.00,2.1033
3224.00,2.1018
3223.00,2.0996
3222.00,2.0966
3221.00,2.0931
3220.00,2.0892
3219.00,2.0850
3218.00,2.0806
3217.00,2.0761
3216.00,2.0712
3215.00,2.0655
3214.00,2.0591
3213.00,2.0523
3212.00,2.0455
3211.00,2.0386
3210.00,2.0315
3209.00,2.0238
3208.00,2.0154
3207.00,2.0065
3206.00,1.9978
3205.00,1.9896
3204.00,1.9816
3203.00,1.9730
3202.00,1.9634
3201.00,1.9529
3200.00,1.9414
3199.00,1.9290
3198.00,1.9154
3197.00,1.9007
3196.00,1.8848
3195.00,1.8677
3194.00,1.8496
3193.00,1.8307
3192.00,1.8109
3191.00,1.7901
3190.00,1.7685
3189.00,1.7463
3188.00,1.7235
3187.00,1.7001
3186.00,1.6760
3185.00,1.6512
3184.00,1.6256
3183.00,1.5996
3182.00,1.5731
3181.00,1.5466
3180.00,1.5203
3179.00,1.4943
3178.00,1.4688
3177.00,1.4445
3176.00,1.4220
3175.00,1.4021
3174.00,1.3854
3173.00,1.3728
3172.00,1.3653
3171.00,1.3637
3170.00,1.3687
3169.00,1.3805
3168.00,1.3986
3167.00,1.4209
3166.00,1.4438
3165.00,1.4620
3164.00,1.4702
3163.00,1.4644
3162.00,1.4445
3161.00,1.4140
3160.00,1.3782
3159.00,1.3421
3158.00,1.3095
3157.00,1.2827
3156.00,1.2624
3155.00,1.2489
3154.00,1.2417
3153.00,1.2403
3152.00,1.2440
3151.00,1.2519
3150.00,1.2634
3149.00,1.2780
3148.00,1.2950
3147.00,1.3142
3146.00,1.3350
3145.00,1.3572
3144.00,1.3805
3143.00,1.4046
3142.00,1.4294
3141.00,1.4548
3140.00,1.4808
3139.00,1.5072
3138.00,1.5339
3137.00,1.5606
3136.00,1.5869
3135.00,1.6129
3134.00,1.6385
3133.00,1.6640
3132.00,1.6893
3131.00,1.7141
3130.00,1.7384
3129.00,1.7621
3128.00,1.7851
3127.00,1.8073
3126.00,1.8287
3125.00,1.8493
3124.00,1.8689
3123.00,1.8878
3122.00,1.9060
3121.00,1.9240
3120.00,1.9414
3119.00,1.9582
3118.00,1.9742
3117.00,1.9895
3116.00,2.0043
3115.00,2.0182
3114.00,2.0314
3113.00,2.0437
3112.00,2.0557
3111.00,2.0674
3110.00,2.0787
3109.00,2.0893
3108.00,2.0992
3107.00,2.1085
3106.00,2.1174
3105.00,2.1258
3104.00,2.1335
3103.00,2.1404
3102.00,2.1468
3101.00,2.1532
3100.00,2.1593
3099.00,2.1646
3098.00,2.1687
3097.00,2.1719
3096.00,2.1750
3095.00,2.1786
3094.00,2.1827
3093.00,2.1869
3092.00,2.1904
3091.00,2.1928
3090.00,2.1942
3089.00,2.1952
3088.00,2.1962
3087.00,2.1970
3086.00,2.1971
3085.00,2.1967
3084.00,2.1961
3083.00,2.1959
3082.00,2.1957
3081.00,2.1949
3080.00,2.1927
3079.00,2.1893
3078.00,2.1852
3077.00,2.1812
3076.00,2.1770
3075.00,2.1725
3074.00,2.1672
3073.00,2.1613
3072.00,2.1548
3071.00,2.1479
3070.00,2.1406
3069.00,2.1332
3068.00,2.1258
3067.00,2.1181
3066.00,2.1100
3065.00,2.1010
3064.00,2.0909
3063.00,2.0800
3062.00,2.0687
3061.00,2.0572
3060.00,2.0453
3059.00,2.0330
3058.00,2.0202
3057.00,2.0068
3056.00,1.9928
3055.00,1.9781
3054.00,1.9627
3053.00,1.9465
3052.00,1.9295
3051.00,1.9120
3050.00,1.8938
3049.00,1.8752
3048.00,1.8560
3047.00,1.8361
3046.00,1.8159
3045.00,1.7953
3044.00,1.7744
3043.00,1.7529
3042.00,1.7310
3041.00,1.7091
3040.00,1.6876
3039.00,1.6667
3038.00,1.6464
3037.00,1.6266
3036.00,1.6075
3035.00,1.5891
3034.00,1.5716
3033.00,1.5554
3032.00,1.5407
3031.00,1.5278
3030.00,1.5169
3029.00,1.5080
3028.00,1.5013
3027.00,1.4968
3026.00,1.4947
3025.00,1.4948
3024.00,1.4972
3023.00,1.5020
3022.00,1.5092
3021.00,1.5189
3020.00,1.5309
3019.00,1.5450
3018.00,1.5611
3017.00,1.5791
3016.00,1.5989
3015.00,1.6201
3014.00,1.6424
3013.00,1.6653
3012.00,1.6886
3011.00,1.7121
3010.00,1.7354
3009.00,1.7583
3008.00,1.7802
3007.00,1.8007
3006.00,1.8194
3005.00,1.8363
3004.00,1.8513
3003.00,1.8642
3002.00,1.8750
3001.00,1.8838
3000.00,1.8906
2999.00,1.8959
2998.00,1.9001
2997.00,1.9040
2996.00,1.9080
2995.00,1.9123
2994.00,1.9175
2993.00,1.9241
2992.00,1.9323
2991.00,1.9422
2990.00,1.9537
2989.00,1.9667
2988.00,1.9811
2987.00,1.9966
2986.00,2.0129
2985.00,2.0300
2984.00,2.0476
2983.00,2.0656
2982.00,2.0839
2981.00,2.1029
2980.00,2.1224
2979.00,2.1422
2978.00,2.1613
2977.00,2.1795
2976.00,2.1970
2975.00,2.2140
2974.00,2.2306
2973.00,2.2467
2972.00,2.2623
2971.00,2.2779
2970.00,2.2934
2969.00,2.3084
2968.00,2.3223
2967.00,2.3351
2966.00,2.3476
2965.00,2.3601
2964.00,2.3720
2963.00,2.3825
2962.00,2.3913
2961.00,2.3993
2960.00,2.4071
2959.00,2.4152
2958.00,2.4239
2957.00,2.4336
2956.00,2.4443
2955.00,2.4561
2954.00,2.4686
2953.00,2.4814
2952.00,2.4936
2951.00,2.5055
2950.00,2.5182
2949.00,2.5330
2948.00,2.5494
2947.00,2.5647
2946.00,2.5769
2945.00,2.5851
2944.00,2.5892
2943.00,2.5883
2942.00,2.5810
2941.00,2.5674
2940.00,2.5500
2939.00,2.5319
2938.00,2.5153
2937.00,2.5006
2936.00,2.4869
2935.00,2.4741
2934.00,2.4631
2933.00,2.4544
2932.00,2.4474
2931.00,2.4407
2930.00,2.4333
2929.00,2.4254
2928.00,2.4176
2927.00,2.4102
2926.00,2.4033
2925.00,2.3968
2924.00,2.3905
2923.00,2.3839
2922.00,2.3770
2921.00,2.3704
2920.00,2.3646
2919.00,2.3600
2918.00,2.3558
2917.00,2.3510
2916.00,2.3450
2915.00,2.3379
2914.00,2.3300
2913.00,2.3217
2912.00,2.3132
2911.00,2.3044
2910.00,2.2954
2909.00,2.2860
2908.00,2.2758
2907.00,2.2650
2906.00,2.2541
2905.00,2.2434
2904.00,2.2327
2903.00,2.2216
2902.00,2.2097
2901.00,2.1970
2900.00,2.1833
2899.00,2.1685
2898.00,2.1527
2897.00,2.1363
2896.00,2.1196
2895.00,2.1024
2894.00,2.0842
2893.00,2.0647
2892.00,2.0438
2891.00,2.0218
2890.00,1.9995
2889.00,1.9771
2888.00,1.9548
2887.00,1.9327
2886.00,1.9108
2885.00,1.8891
2884.00,1.8677
2883.00,1.8467
2882.00,1.8267
2881.00,1.8082
2880.00,1.7919
2879.00,1.7783
2878.00,1.7677
2877.00,1.7602
2876.00,1.7559
2875.00,1.7546
2874.00,1.7561
2873.00,1.7599
2872.00,1.7648
2871.00,1.7695
2870.00,1.7729
2869.00,1.7741
2868.00,1.7725
2867.00,1.7677
2866.00,1.7597
2865.00,1.7487
2864.00,1.7348
2863.00,1.7179
2862.00,1.6981
2861.00,1.6756
2860.00,1.6505
2859.00,1.6233
2858.00,1.5950
2857.00,1.5666
2856.00,1.5397
2855.00,1.5152
2854.00,1.4941
2853.00,1.4770
2852.00,1.4646
2851.00,1.4571
2850.00,1.4547
2849.00,1.4572
2848.00,1.4642
2847.00,1.4751
2846.00,1.4897
2845.00,1.5075
2844.00,1.5280
2843.00,1.5507
2842.00,1.5752
2841.00,1.6010
2840.00,1.6278
2839.00,1.6553
2838.00,1.6832
2837.00,1.7112
2836.00,1.7393
2835.00,1.7672
2834.00,1.7950
2833.00,1.8226
2832.00,1.8497
2831.00,1.8761
2830.00,1.9018
2829.00,1.9266
2828.00,1.9506
2827.00,1.9737
2826.00,1.9962
2825.00,2.0182
2824.00,2.0395
2823.00,2.0598
2822.00,2.0792
2821.00,2.0981
2820.00,2.1168
2819.00,2.1348
2818.00,2.1519
2817.00,2.1678
2816.00,2.1827
2815.00,2.1966
2814.00,2.2095
2813.00,2.2219
2812.00,2.2340
2811.00,2.2462
2810.00,2.2582
2809.00,2.2695
2808.00,2.2799
2807.00,2.2895
2806.00,2.2984
2805.00,2.3065
2804.00,2.3138
2803.00,2.3206
2802.00,2.3274
2801.00,2.3344
2800.00,2.3414
2799.00,2.3477
2798.00,2.3532
2797.00,2.3578
2796.00,2.3616
2795.00,2.3648
2794.00,2.3676
2793.00,2.3697
2792.00,2.3711
2791.00,2.3718
2790.00,2.3724
2789.00,2.3731
2788.00,2.3735
2787.00,2.3732
2786.00,2.3720
2785.00,2.3703
2784.00,2.3685
2783.00,2.3669
2782.00,2.3651
2781.00,2.3625
2780.00,2.3586
2779.00,2.3537
2778.00,2.3482
2777.00,2.3426
2776.00,2.3373
2775.00,2.3325
2774.00,2.3276
2773.00,2.3219
2772.00,2.3148
2771.00,2.3065
2770.00,2.2978
2769.00,2.2887
2768.00,2.2790
2767.00,2.2685
2766.00,2.2572
2765.00,2.2451
2764.00,2.2323
2763.00,2.2188
2762.00,2.2048
2761.00,2.1903
2760.00,2.1750
2759.00,2.1587
2758.00,2.1418
2757.00,2.1242
2756.00,2.1058
2755.00,2.0865
2754.00,2.0664
2753.00,2.0454
2752.00,2.0233
2751.00,2.0000
2750.00,1.9756
2749.00,1.9502
2748.00,1.9235
2747.00,1.8951
2746.00,1.8652
2745.00,1.8341
2744.00,1.8019
2743.00,1.7684
2742.00,1.7336
2741.00,1.6974
2740.00,1.6599
2739.00,1.6216
2738.00,1.5826
2737.00,1.5432
2736.00,1.5035
2735.00,1.4638
2734.00,1.4246
2733.00,1.3863
2732.00,1.3490
2731.00,1.3131
2730.00,1.2790
2729.00,1.2472
2728.00,1.2181
2727.00,1.1920
2726.00,1.1693
2725.00,1.1504
2724.00,1.1358
2723.00,1.1255
2722.00,1.1200
2721.00,1.1192
2720.00,1.1233
2719.00,1.1322
2718.00,1.1455
2717.00,1.1631
2716.00,1.1844
2715.00,1.2091
2714.00,1.2367
2713.00,1.2668
2712.00,1.2991
2711.00,1.3332
2710.00,1.3689
2709.00,1.4058
2708.00,1.4436
2707.00,1.4821
2706.00,1.5210
2705.00,1.5601
2704.00,1.5990
2703.00,1.6376
2702.00,1.6759
2701.00,1.7137
2700.00,1.7508
2699.00,1.7868
2698.00,1.8216
2697.00,1.8552
2696.00,1.8877
2695.00,1.9190
2694.00,1.9493
2693.00,1.9788
2692.00,2.0074
2691.00,2.0347
2690.00,2.0603
2689.00,2.0843
2688.00,2.1068
2687.00,2.1279
2686.00,2.1483
2685.00,2.1684
2684.00,2.1882
2683.00,2.2072
2682.00,2.2251
2681.00,2.2418
2680.00,2.2578
2679.00,2.2729
2678.00,2.2873
2677.00,2.3011
2676.00,2.3143
2675.00,2.3265
2674.00,2.3377
2673.00,2.3479
2672.00,2.3574
2671.00,2.3666
2670.00,2.3755
2669.00,2.3842
2668.00,2.3922
2667.00,2.3993
2666.00,2.4055
2665.00,2.4113
2664.00,2.4170
2663.00,2.4228
2662.00,2.4290
2661.00,2.4357
2660.00,2.4424
2659.00,2.4483
2658.00,2.4531
2657.00,2.4565
2656.00,2.4587
2655.00,2.4600
2654.00,2.4613
2653.00,2.4633
2652.00,2.4659
2651.00,2.4681
2650.00,2.4692
2649.00,2.4694
2648.00,2.4688
2647.00,2.4676
2646.00,2.4659
2645.00,2.4637
2644.00,2.4614
2643.00,2.4587
2642.00,2.4555
2641.00,2.4513
2640.00,2.4457
2639.00,2.4394
2638.00,2.4332
2637.00,2.4279
2636.00,2.4225
2635.00,2.4162
2634.00,2.4089
2633.00,2.4021
2632.00,2.3964
2631.00,2.3916
2630.00,2.3870
2629.00,2.3819
2628.00,2.3757
2627.00,2.3679
2626.00,2.3585
2625.00,2.3480
2624.00,2.3368
2623.00,2.3248
2622.00,2.3120
2621.00,2.2986
2620.00,2.2848
2619.00,2.2699
2618.00,2.2535
2617.00,2.2356
2616.00,2.2165
2615.00,2.1966
2614.00,2.1761
2613.00,2.1551
2612.00,2.1333
2611.00,2.1103
2610.00,2.0857
2609.00,2.0596
2608.00,2.0320
2607.00,2.0033
2606.00,1.9732
2605.00,1.9416
2604.00,1.9084
2603.00,1.8733
2602.00,1.8365
2601.00,1.7980
2600.00,1.7579
2599.00,1.7163
2598.00,1.6731
2597.00,1.6288
2596.00,1.5837
2595.00,1.5384
2594.00,1.4932
2593.00,1.4487
2592.00,1.4053
2591.00,1.3637
2590.00,1.3241
2589.00,1.2872
2588.00,1.2533
2587.00,1.2229
2586.00,1.1965
2585.00,1.1745
2584.00,1.1574
2583.00,1.1455
2582.00,1.1392
2581.00,1.1386
2580.00,1.1437
2579.00,1.1544
2578.00,1.1704
2577.00,1.1911
2576.00,1.2160
2575.00,1.2445
2574.00,1.2761
2573.00,1.3103
2572.00,1.3467
2571.00,1.3848
2570.00,1.4241
2569.00,1.4644
2568.00,1.5052
2567.00,1.5465
2566.00,1.5877
2565.00,1.6288
2564.00,1.6698
2563.00,1.7105
2562.00,1.7508
2561.00,1.7902
2560.00,1.8286
2559.00,1.8660
2558.00,1.9023
2557.00,1.9377
2556.00,1.9719
2555.00,2.0046
2554.00,2.0358
2553.00,2.0653
2552.00,2.0933
2551.00,2.1199
2550.00,2.1457
2549.00,2.1705
2548.00,2.1942
2547.00,2.2169
2546.00,2.2390
2545.00,2.2605
2544.00,2.2808
2543.00,2.2996
2542.00,2.3169
2541.00,2.3335
2540.00,2.3495
2539.00,2.3645
2538.00,2.3786
2537.00,2.3922
2536.00,2.4059
2535.00,2.4193
2534.00,2.4314
2533.00,2.4422
2532.00,2.4522
2531.00,2.4622
2530.00,2.4722
2529.00,2.4819
2528.00,2.4907
2527.00,2.4987
2526.00,2.5061
2525.00,2.5131
2524.00,2.5194
2523.00,2.5246
2522.00,2.5290
2521.00,2.5333
2520.00,2.5381
2519.00,2.5434
2518.00,2.5487
2517.00,2.5535
2516.00,2.5575
2515.00,2.5605
2514.00,2.5625
2513.00,2.5637
2512.00,2.5649
2511.00,2.5664
2510.00,2.5681
2509.00,2.5697
2508.00,2.5707
2507.00,2.5708
2506.00,2.5699
2505.00,2.5676
2504.00,2.5646
2503.00,2.5614
2502.00,2.5586
2501.00,2.5558
2500.00,2.5524
2499.00,2.5484
2498.00,2.5438
2497.00,2.5388
2496.00,2.5337
2495.00,2.5284
2494.00,2.5230
2493.00,2.5168
2492.00,2.5093
2491.00,2.5009
2490.00,2.4922
2489.00,2.4835
2488.00,2.4743
2487.00,2.4641
2486.00,2.4528
2485.00,2.4404
2484.00,2.4272
2483.00,2.4136
2482.00,2.3997
2481.00,2.3854
2480.00,2.3705
2479.00,2.3550
2478.00,2.3392
2477.00,2.3229
2476.00,2.3059
2475.00,2.2877
2474.00,2.2684
2473.00,2.2479
2472.00,2.2261
2471.00,2.2032
2470.00,2.1794
2469.00,2.1544
2468.00,2.1278
2467.00,2.0993
2466.00,2.0690
2465.00,2.0373
2464.00,2.0046
2463.00,1.9709
2462.00,1.9358
2461.00,1.8990
2460.00,1.8604
2459.00,1.8198
2458.00,1.7776
2457.00,1.7343
2456.00,1.6903
2455.00,1.6462
2454.00,1.6021
2453.00,1.5587
2452.00,1.5166
2451.00,1.4764
2450.00,1.4384
2449.00,1.4034
2448.00,1.3717
2447.00,1.3439
2446.00,1.3202
2445.00,1.3011
2444.00,1.2869
2443.00,1.2779
2442.00,1.2743
2441.00,1.2762
2440.00,1.2836
2439.00,1.2962
2438.00,1.3136
2437.00,1.3353
2436.00,1.3609
2435.00,1.3899
2434.00,1.4219
2433.00,1.4565
2432.00,1.4933
2431.00,1.5319
2430.00,1.5718
2429.00,1.6127
2428.00,1.6541
2427.00,1.6956
2426.00,1.7371
2425.00,1.7786
2424.00,1.8199
2423.00,1.8604
2422.00,1.8998
2421.00,1.9380
2420.00,1.9750
2419.00,2.0108
2418.00,2.0451
2417.00,2.0779
2416.00,2.1091
2415.00,2.1391
2414.00,2.1675
2413.00,2.1941
2412.00,2.2188
2411.00,2.2417
2410.00,2.2632
2409.00,2.2833
2408.00,2.3024
2407.00,2.3214
2406.00,2.3405
2405.00,2.3589
2404.00,2.3759
2403.00,2.3916
2402.00,2.4072
2401.00,2.4233
2400.00,2.4392
2399.00,2.4543
2398.00,2.4688
2397.00,2.4829
2396.00,2.4965
2395.00,2.5092
2394.00,2.5212
2393.00,2.5331
2392.00,2.5445
2391.00,2.5568
2390.00,2.5693
2389.00,2.5867
2388.00,2.5922
2387.00,2.5998
2386.00,2.6096
2385.00,2.6160
2384.00,2.6222
2383.00,2.6272
2382.00,2.6321
2381.00,2.6372
2380.00,2.6432
2379.00,2.6507
2378.00,2.6596
2377.00,2.6687
2376.00,2.6763
2375.00,2.6823
2374.00,2.6875
2373.00,2.6926
2372.00,2.6972
2371.00,2.7013
2370.00,2.7058
2369.00,2.7107
2368.00,2.7149
2367.00,2.7169
2366.00,2.7172
2365.00,2.7169
2364.00,2.7158
2363.00,2.7134
2362.00,2.7099
2361.00,2.7059
2360.00,2.7019
2359.00,2.6975
2358.00,2.6920
2357.00,2.6850
2356.00,2.6762
2355.00,2.6660
2354.00,2.6554
2353.00,2.6442
2352.00,2.6319
2351.00,2.6187
2350.00,2.6062
2349.00,2.5959
2348.00,2.5881
2347.00,2.5819
2346.00,2.5753
2345.00,2.5662
2344.00,2.5537
2343.00,2.5393
2342.00,2.5247
2341.00,2.5100
2340.00,2.4936
2339.00,2.4748
2338.00,2.4545
2337.00,2.4335
2336.00,2.4143
2335.00,2.3911
2334.00,2.3732
2333.00,2.3431
2332.00,2.3319
2331.00,2.2319
2330.00,2.2528
2329.00,2.2832
2328.00,2.2761
2327.00,2.2438
2326.00,2.2069
2325.00,2.1766
2324.00,2.1718
2323.00,2.1873
2322.00,2.1971
2321.00,2.1955
2320.00,2.1696
2319.00,2.1348
2318.00,2.0866
2317.00,2.0334
2316.00,1.9831
2315.00,1.9492
2314.00,1.9443
2313.00,1.9593
2312.00,1.9878
2311.00,2.0100
2310.00,2.0277
2309.00,2.0375
2308.00,2.0488
2307.00,2.0620
2306.00,2.0803
2305.00,2.1023
2304.00,2.1292
2303.00,2.1626
2302.00,2.2035
2301.00,2.2521
2300.00,2.3057
2299.00,2.3596
2298.00,2.4117
2297.00,2.4583
2296.00,2.4985
2295.00,2.5256
2294.00,2.5360
2293.00,2.5233
2292.00,2.4881
2291.00,2.4328
2290.00,2.3662
2289.00,2.2967
2288.00,2.2333
2287.00,2.1815
2286.00,2.1436
2285.00,2.1197
2284.00,2.1080
2283.00,2.1080
2282.00,2.1195
2281.00,2.1424
2280.00,2.1740
2279.00,2.2109
2278.00,2.2497
2277.00,2.2893
2276.00,2.3286
2275.00,2.3672
2274.00,2.4058
2273.00,2.4441
2272.00,2.4818
2271.00,2.5176
2270.00,2.5520
2269.00,2.5862
2268.00,2.6214
2267.00,2.6573
2266.00,2.6929
2265.00,2.7266
2264.00,2.7575
2263.00,2.7860
2262.00,2.8153
2261.00,2.8492
2260.00,2.8912
2259.00,2.9457
2258.00,3.0197
2257.00,3.1235
2256.00,3.2665
2255.00,3.4497
2254.00,3.6435
2253.00,3.7495
2252.00,3.6710
2251.00,3.4773
2250.00,3.2694
2249.00,3.0802
2248.00,2.9145
2247.00,2.7715
2246.00,2.6525
2245.00,2.5589
2244.00,2.4913
2243.00,2.4483
2242.00,2.4272
2241.00,2.4244
2240.00,2.4357
2239.00,2.4569
2238.00,2.4837
2237.00,2.5128
2236.00,2.5423
2235.00,2.5715
2234.00,2.5996
2233.00,2.6252
2232.00,2.6465
2231.00,2.6634
2230.00,2.6775
2229.00,2.6909
2228.00,2.7038
2227.00,2.7157
2226.00,2.7264
2225.00,2.7361
2224.00,2.7452
2223.00,2.7541
2222.00,2.7625
2221.00,2.7697
2220.00,2.7749
2219.00,2.7775
2218.00,2.7787
2217.00,2.7796
2216.00,2.7810
2215.00,2.7825
2214.00,2.7840
2213.00,2.7849
2212.00,2.7847
2211.00,2.7831
2210.00,2.7816
2209.00,2.7812
2208.00,2.7820
2207.00,2.7823
2206.00,2.7803
2205.00,2.7759
2204.00,2.7697
2203.00,2.7623
2202.00,2.7545
2201.00,2.7468
2200.00,2.7394
2199.00,2.7318
2198.00,2.7233
2197.00,2.7136
2196.00,2.7033
2195.00,2.6930
2194.00,2.6829
2193.00,2.6723
2192.00,2.6608
2191.00,2.6480
2190.00,2.6336
2189.00,2.6174
2188.00,2.6000
2187.00,2.5821
2186.00,2.5644
2185.00,2.5471
2184.00,2.5291
2183.00,2.5090
2182.00,2.4868
2181.00,2.4635
2180.00,2.4402
2179.00,2.4167
2178.00,2.3918
2177.00,2.3648
2176.00,2.3361
2175.00,2.3065
2174.00,2.2760
2173.00,2.2440
2172.00,2.2098
2171.00,2.1730
2170.00,2.1333
2169.00,2.0912
2168.00,2.0469
2167.00,2.0005
2166.00,1.9518
2165.00,1.9009
2164.00,1.8479
2163.00,1.7933
2162.00,1.7379
2161.00,1.6824
2160.00,1.6277
2159.00,1.5748
2158.00,1.5245
2157.00,1.4779
2156.00,1.4357
2155.00,1.3988
2154.00,1.3680
2153.00,1.3439
2152.00,1.3272
2151.00,1.3182
2150.00,1.3175
2149.00,1.3250
2148.00,1.3406
2147.00,1.3635
2146.00,1.3929
2145.00,1.4278
2144.00,1.4673
2143.00,1.5103
2142.00,1.5562
2141.00,1.6042
2140.00,1.6539
2139.00,1.7048
2138.00,1.7563
2137.00,1.8078
2136.00,1.8590
2135.00,1.9095
2134.00,1.9593
2133.00,2.0078
2132.00,2.0546
2131.00,2.0992
2130.00,2.1417
2129.00,2.1823
2128.00,2.2208
2127.00,2.2574
2126.00,2.2925
2125.00,2.3263
2124.00,2.3582
2123.00,2.3884
2122.00,2.4175
2121.00,2.4460
2120.00,2.4732
2119.00,2.4980
2118.00,2.5201
2117.00,2.5409
2116.00,2.5615
2115.00,2.5822
2114.00,2.6027
2113.00,2.6218
2112.00,2.6387
2111.00,2.6534
2110.00,2.6669
2109.00,2.6801
2108.00,2.6937
2107.00,2.7080
2106.00,2.7226
2105.00,2.7370
2104.00,2.7501
2103.00,2.7618
2102.00,2.7726
2101.00,2.7831
2100.00,2.7933
2099.00,2.8033
2098.00,2.8133
2097.00,2.8227
2096.00,2.8306
2095.00,2.8369
2094.00,2.8426
2093.00,2.8482
2092.00,2.8535
2091.00,2.8582
2090.00,2.8625
2089.00,2.8661
2088.00,2.8687
2087.00,2.8706
2086.00,2.8731
2085.00,2.8764
2084.00,2.8791
2083.00,2.8805
2082.00,2.8815
2081.00,2.8835
2080.00,2.8860
2079.00,2.8886
2078.00,2.8906
2077.00,2.8910
2076.00,2.8882
2075.00,2.8823
2074.00,2.8761
2073.00,2.8728
2072.00,2.8728
2071.00,2.8749
2070.00,2.8768
2069.00,2.8765
2068.00,2.8725
2067.00,2.8650
2066.00,2.8562
2065.00,2.8486
2064.00,2.8428
2063.00,2.8378
2062.00,2.8324
2061.00,2.8259
2060.00,2.8181
2059.00,2.8087
2058.00,2.7981
2057.00,2.7869
2056.00,2.7755
2055.00,2.7641
2054.00,2.7523
2053.00,2.7395
2052.00,2.7255
2051.00,2.7114
2050.00,2.6978
2049.00,2.6841
2048.00,2.6687
2047.00,2.6506
2046.00,2.6310
2045.00,2.6111
2044.00,2.5914
2043.00,2.5710
2042.00,2.5495
2041.00,2.5272
2040.00,2.5040
2039.00,2.4796
2038.00,2.4535
2037.00,2.4256
2036.00,2.3962
2035.00,2.3653
2034.00,2.3324
2033.00,2.2972
2032.00,2.2593
2031.00,2.2190
2030.00,2.1769
2029.00,2.1331
2028.00,2.0875
2027.00,2.0398
2026.00,1.9896
2025.00,1.9371
2024.00,1.8826
2023.00,1.8270
2022.00,1.7712
2021.00,1.7162
2020.00,1.6627
2019.00,1.6116
2018.00,1.5637
2017.00,1.5205
2016.00,1.4830
2015.00,1.4512
2014.00,1.4255
2013.00,1.4068
2012.00,1.3963
2011.00,1.3949
2010.00,1.4022
2009.00,1.4177
2008.00,1.4406
2007.00,1.4700
2006.00,1.5053
2005.00,1.5455
2004.00,1.5896
2003.00,1.6369
2002.00,1.6863
2001.00,1.7373
2000.00,1.7895
1999.00,1.8423
1998.00,1.8956
1997.00,1.9487
1996.00,2.0014
1995.00,2.0526
1994.00,2.1016
1993.00,2.1486
1992.00,2.1943
1991.00,2.2386
1990.00,2.2806
1989.00,2.3196
1988.00,2.3562
1987.00,2.3914
1986.00,2.4254
1985.00,2.4577
1984.00,2.4882
1983.00,2.5174
1982.00,2.5453
1981.00,2.5713
1980.00,2.5947
1979.00,2.6165
1978.00,2.6380
1977.00,2.6598
1976.00,2.6809
1975.00,2.7003
1974.00,2.7179
1973.00,2.7350
1972.00,2.7517
1971.00,2.7671
1970.00,2.7805
1969.00,2.7923
1968.00,2.8046
1967.00,2.8189
1966.00,2.8349
1965.00,2.8504
1964.00,2.8634
1963.00,2.8739
1962.00,2.8835
1961.00,2.8928
1960.00,2.9013
1959.00,2.9089
1958.00,2.9173
1957.00,2.9275
1956.00,2.9380
1955.00,2.9453
1954.00,2.9482
1953.00,2.9491
1952.00,2.9517
1951.00,2.9571
1950.00,2.9641
1949.00,2.9708
1948.00,2.9759
1947.00,2.9799
1946.00,2.9832
1945.00,2.9857
1944.00,2.9869
1943.00,2.9872
1942.00,2.9874
1941.00,2.9881
1940.00,2.9887
1939.00,2.9890
1938.00,2.9893
1937.00,2.9904
1936.00,2.9925
1935.00,2.9953
1934.00,2.9981
1933.00,2.9994
1932.00,2.9971
1931.00,2.9899
1930.00,2.9792
1929.00,2.9681
1928.00,2.9595
1927.00,2.9544
1926.00,2.9509
1925.00,2.9462
1924.00,2.9383
1923.00,2.9286
1922.00,2.9201
1921.00,2.9136
1920.00,2.9066
1919.00,2.8975
1918.00,2.8875
1917.00,2.8780
1916.00,2.8686
1915.00,2.8587
1914.00,2.8494
1913.00,2.8418
1912.00,2.8344
1911.00,2.8234
1910.00,2.8079
1909.00,2.7908
1908.00,2.7745
1907.00,2.7583
1906.00,2.7397
1905.00,2.7194
1904.00,2.6996
1903.00,2.6806
1902.00,2.6607
1901.00,2.6381
1900.00,2.6129
1899.00,2.5862
1898.00,2.5581
1897.00,2.5280
1896.00,2.4961
1895.00,2.4627
1894.00,2.4285
1893.00,2.3933
1892.00,2.3555
1891.00,2.3135
1890.00,2.2672
1889.00,2.2185
1888.00,2.1691
1887.00,2.1189
1886.00,2.0674
1885.00,2.0148
1884.00,1.9618
1883.00,1.9078
1882.00,1.8525
1881.00,1.7973
1880.00,1.7444
1879.00,1.6957
1878.00,1.6518
1877.00,1.6130
1876.00,1.5800
1875.00,1.5533
1874.00,1.5335
1873.00,1.5215
1872.00,1.5172
1871.00,1.5197
1870.00,1.5289
1869.00,1.5456
1868.00,1.5702
1867.00,1.6018
1866.00,1.6396
1865.00,1.6836
1864.00,1.7342
1863.00,1.7898
1862.00,1.8476
1861.00,1.9056
1860.00,1.9632
1859.00,2.0199
1858.00,2.0753
1857.00,2.1291
1856.00,2.1810
1855.00,2.2309
1854.00,2.2791
1853.00,2.3262
1852.00,2.3715
1851.00,2.4140
1850.00,2.4532
1849.00,2.4907
1848.00,2.5274
1847.00,2.5613
1846.00,2.5911
1845.00,2.6182
1844.00,2.6453
1843.00,2.6723
1842.00,2.6976
1841.00,2.7209
1840.00,2.7432
1839.00,2.7661
1838.00,2.7902
1837.00,2.8140
1836.00,2.8349
1835.00,2.8535
1834.00,2.8718
1833.00,2.8887
1832.00,2.9006
1831.00,2.9067
1830.00,2.9112
1829.00,2.9185
1828.00,2.9288
1827.00,2.9395
1826.00,2.9519
1825.00,2.9671
1824.00,2.9815
1823.00,2.9909
1822.00,2.9980
1821.00,3.0084
1820.00,3.0224
1819.00,3.0349
1818.00,3.0428
1817.00,3.0487
1816.00,3.0559
1815.00,3.0655
1814.00,3.0772
1813.00,3.0896
1812.00,3.0988
1811.00,3.1015
1810.00,3.0982
1809.00,3.0930
1808.00,3.0893
1807.00,3.0906
1806.00,3.0982
1805.00,3.1088
1804.00,3.1161
1803.00,3.1175
1802.00,3.1166
1801.00,3.1164
1800.00,3.1160
1799.00,3.1130
1798.00,3.1091
1797.00,3.1078
1796.00,3.1085
1795.00,3.1082
1794.00,3.1052
1793.00,3.0987
1792.00,3.0877
1791.00,3.0732
1790.00,3.0604
1789.00,3.0529
1788.00,3.0489
1787.00,3.0460
1786.00,3.0443
1785.00,3.0444
1784.00,3.0437
1783.00,3.0379
1782.00,3.0256
1781.00,3.0091
1780.00,2.9929
1779.00,2.9773
1778.00,2.9605
1777.00,2.9430
1776.00,2.9262
1775.00,2.9104
1774.00,2.8941
1773.00,2.8774
1772.00,2.8597
1771.00,2.8386
1770.00,2.8122
1769.00,2.7839
1768.00,2.7600
1767.00,2.7440
1766.00,2.7314
1765.00,2.7135
1764.00,2.6858
1763.00,2.6512
1762.00,2.6146
1761.00,2.5778
1760.00,2.5403
1759.00,2.5017
1758.00,2.4623
1757.00,2.4218
1756.00,2.3811
1755.00,2.3412
1754.00,2.3015
1753.00,2.2634
1752.00,2.2304
1751.00,2.2029
1750.00,2.1761
1749.00,2.1453
1748.00,2.1125
1747.00,2.0865
1746.00,2.0744
1745.00,2.0766
1744.00,2.0899
1743.00,2.1093
1742.00,2.1306
1741.00,2.1514
1740.00,2.1724
1739.00,2.1973
1738.00,2.2279
1737.00,2.2612
1736.00,2.2967
1735.00,2.3424
1734.00,2.4042
1733.00,2.4725
1732.00,2.5326
1731.00,2.5803
1730.00,2.6216
1729.00,2.6659
1728.00,2.7186
1727.00,2.7777
1726.00,2.8383
1725.00,2.8996
1724.00,2.9619
1723.00,3.0251
1722.00,3.0893
1721.00,3.1500
1720.00,3.2014
1719.00,3.2485
1718.00,3.3068
1717.00,3.3860
1716.00,3.4763
1715.00,3.5592
1714.00,3.6249
1713.00,3.6720
1712.00,3.7052
1711.00,3.7413
1710.00,3.7959
1709.00,3.8578
1708.00,3.8853
1707.00,3.8464
1706.00,3.7443
1705.00,3.6055
1704.00,3.4633
1703.00,3.3312
1702.00,3.1979
1701.00,3.0495
1700.00,2.8966
1699.00,2.7602
1698.00,2.6528
1697.00,2.5758
1696.00,2.5257
1695.00,2.5041
1694.00,2.5018
1693.00,2.5013
1692.00,2.5010
1691.00,2.5121
1690.00,2.5430
1689.00,2.5890
1688.00,2.6369
1687.00,2.6806
1686.00,2.7250
1685.00,2.7795
1684.00,2.8379
1683.00,2.8806
1682.00,2.8981
1681.00,2.9026
1680.00,2.9165
1679.00,2.9443
1678.00,2.9743
1677.00,2.9987
1676.00,3.0201
1675.00,3.0421
1674.00,3.0596
1673.00,3.0694
1672.00,3.0759
1671.00,3.0818
1670.00,3.0881
1669.00,3.0957
1668.00,3.1049
1667.00,3.1177
1666.00,3.1356
1665.00,3.1582
1664.00,3.1822
1663.00,3.2015
1662.00,3.2087
1661.00,3.2047
1660.00,3.2013
1659.00,3.2077
1658.00,3.2231
1657.00,3.2399
1656.00,3.2480
1655.00,3.2443
1654.00,3.2390
1653.00,3.2431
1652.00,3.2541
1651.00,3.2621
1650.00,3.2619
1649.00,3.2454
1648.00,3.2192
1647.00,3.2073
1646.00,3.2126
1645.00,3.2194
1644.00,3.2226
1643.00,3.2270
1642.00,3.2307
1641.00,3.2302
1640.00,3.2316
1639.00,3.2359
1638.00,3.2357
1637.00,3.2239
1636.00,3.2008
1635.00,3.1756
1634.00,3.1568
1633.00,3.1484
1632.00,3.1505
1631.00,3.1574
1630.00,3.1632
1629.00,3.1627
1628.00,3.1514
1627.00,3.1318
1626.00,3.1103
1625.00,3.0903
1624.00,3.0733
1623.00,3.0613
1622.00,3.0556
1621.00,3.0526
1620.00,3.0458
1619.00,3.0324
1618.00,3.0165
1617.00,3.0039
1616.00,2.9931
1615.00,2.9782
1614.00,2.9558
1613.00,2.9270
1612.00,2.8960
1611.00,2.8666
1610.00,2.8383
1609.00,2.8080
1608.00,2.7766
1607.00,2.7469
1606.00,2.7182
1605.00,2.6872
1604.00,2.6526
1603.00,2.6147
1602.00,2.5743
1601.00,2.5320
1600.00,2.4875
1599.00,2.4409
1598.00,2.3929
1597.00,2.3434
1596.00,2.2930
1595.00,2.2430
1594.00,2.1955
1593.00,2.1512
1592.00,2.1104
1591.00,2.0743
1590.00,2.0441
1589.00,2.0206
1588.00,2.0032
1587.00,1.9926
1586.00,1.9901
1585.00,1.9968
1584.00,2.0129
1583.00,2.0374
1582.00,2.0684
1581.00,2.1051
1580.00,2.1446
1579.00,2.1826
1578.00,2.2207
1577.00,2.2684
1576.00,2.3301
1575.00,2.3945
1574.00,2.4449
1573.00,2.4763
1572.00,2.4983
1571.00,2.5239
1570.00,2.5591
1569.00,2.5987
1568.00,2.6375
1567.00,2.6762
1566.00,2.7163
1565.00,2.7568
1564.00,2.7948
1563.00,2.8284
1562.00,2.8596
1561.00,2.8950
1560.00,2.9377
1559.00,2.9698
1558.00,2.9769
1557.00,2.9737
1556.00,2.9768
1555.00,2.9980
1554.00,3.0308
1553.00,3.0644
1552.00,3.0934
1551.00,3.1134
1550.00,3.1316
1549.00,3.1540
1548.00,3.1775
1547.00,3.1977
1546.00,3.2160
1545.00,3.2316
1544.00,3.2376
1543.00,3.2310
1542.00,3.2230
1541.00,3.2299
1540.00,3.2569
1539.00,3.2906
1538.00,3.3133
1537.00,3.3235
1536.00,3.3272
1535.00,3.3272
1534.00,3.3335
1533.00,3.3500
1532.00,3.3661
1531.00,3.3740
1530.00,3.3781
1529.00,3.3832
1528.00,3.3855
1527.00,3.3836
1526.00,3.3847
1525.00,3.3938
1524.00,3.4024
1523.00,3.3981
1522.00,3.3834
1521.00,3.3755
1520.00,3.3834
1519.00,3.3968
1518.00,3.4038
1517.00,3.4055
1516.00,3.4072
1515.00,3.4092
1514.00,3.4081
1513.00,3.4047
1512.00,3.4006
1511.00,3.3933
1510.00,3.3815
1509.00,3.3680
1508.00,3.3593
1507.00,3.3588
1506.00,3.3649
1505.00,3.3660
1504.00,3.3603
1503.00,3.3596
1502.00,3.3574
1501.00,3.3526
1500.00,3.3513
1499.00,3.3491
1498.00,3.3437
1497.00,3.3382
1496.00,3.3309
1495.00,3.3175
1494.00,3.3002
1493.00,3.2835
1492.00,3.2712
1491.00,3.2658
1490.00,3.2646
1489.00,3.2617
1488.00,3.2516
1487.00,3.2348
1486.00,3.2192
1485.00,3.2093
1484.00,3.2016
1483.00,3.1895
1482.00,3.1717
1481.00,3.1543
1480.00,3.1406
1479.00,3.1278
1478.00,3.1117
1477.00,3.0914
1476.00,3.0686
1475.00,3.0479
1474.00,3.0342
1473.00,3.0282
1472.00,3.0245
1471.00,3.0177
1470.00,3.0129
1469.00,3.0202
1468.00,3.0403
1467.00,3.0637
1466.00,3.0812
1465.00,3.0920
1464.00,3.1036
1463.00,3.1222
1462.00,3.1496
1461.00,3.1823
1460.00,3.2131
1459.00,3.2408
1458.00,3.2759
1457.00,3.3296
1456.00,3.3924
1455.00,3.4410
1454.00,3.4765
1453.00,3.5230
1452.00,3.5969
1451.00,3.6839
1450.00,3.7350
1449.00,3.7174
1448.00,3.6562
1447.00,3.5962
1446.00,3.5616
1445.00,3.5540
1444.00,3.5597
1443.00,3.5597
1442.00,3.5516
1441.00,3.5473
1440.00,3.5516
1439.00,3.5575
1438.00,3.5586
1437.00,3.5560
1436.00,3.5466
1435.00,3.5252
1434.00,3.4973
1433.00,3.4757
1432.00,3.4671
1431.00,3.4681
1430.00,3.4718
1429.00,3.4776
1428.00,3.4871
1427.00,3.4933
1426.00,3.4861
1425.00,3.4709
1424.00,3.4640
1423.00,3.4707
1422.00,3.4821
1421.00,3.4904
1420.00,3.4953
1419.00,3.4959
1418.00,3.4909
1417.00,3.4839
1416.00,3.4780
1415.00,3.4729
1414.00,3.4627
1413.00,3.4425
1412.00,3.4164
1411.00,3.3956
1410.00,3.3872
1409.00,3.3876
1408.00,3.3852
1407.00,3.3717
1406.00,3.3516
1405.00,3.3374
1404.00,3.3381
1403.00,3.3495
1402.00,3.3598
1401.00,3.3621
1400.00,3.3597
1399.00,3.3597
1398.00,3.3638
1397.00,3.3664
1396.00,3.3620
1395.00,3.3546
1394.00,3.3544
1393.00,3.3694
1392.00,3.4003
1391.00,3.4403
1390.00,3.4804
1389.00,3.5177
1388.00,3.5541
1387.00,3.5870
1386.00,3.6080
1385.00,3.6155
1384.00,3.6184
1383.00,3.6251
1382.00,3.6347
1381.00,3.6421
1380.00,3.6490
1379.00,3.6627
1378.00,3.6860
1377.00,3.7124
1376.00,3.7334
1375.00,3.7477
1374.00,3.7520
1373.00,3.7268
1372.00,3.6686
1371.00,3.6063
1370.00,3.5617
1369.00,3.5378
1368.00,3.5290
1367.00,3.5290
1366.00,3.5352
1365.00,3.5436
1364.00,3.5438
1363.00,3.5295
1362.00,3.5125
1361.00,3.5114
1360.00,3.5324
1359.00,3.5671
1358.00,3.6018
1357.00,3.6267
1356.00,3.6372
1355.00,3.6313
1354.00,3.6128
1353.00,3.5926
1352.00,3.5810
1351.00,3.5818
1350.00,3.5932
1349.00,3.6094
1348.00,3.6232
1347.00,3.6318
1346.00,3.6349
1345.00,3.6280
1344.00,3.6104
1343.00,3.5961
1342.00,3.6033
1341.00,3.6375
1340.00,3.6826
1339.00,3.7090
1338.00,3.7060
1337.00,3.6931
1336.00,3.6884
1335.00,3.6899
1334.00,3.6816
1333.00,3.6470
1332.00,3.5989
1331.00,3.5680
1330.00,3.5654
1329.00,3.5791
1328.00,3.5872
1327.00,3.5777
1326.00,3.5590
1325.00,3.5458
1324.00,3.5418
1323.00,3.5367
1322.00,3.5184
1321.00,3.4883
1320.00,3.4585
1319.00,3.4374
1318.00,3.4245
1317.00,3.4124
1316.00,3.3953
1315.00,3.3766
1314.00,3.3661
1313.00,3.3684
1312.00,3.3768
1311.00,3.3786
1310.00,3.3672
1309.00,3.3446
1308.00,3.3147
1307.00,3.2811
1306.00,3.2492
1305.00,3.2226
1304.00,3.1976
1303.00,3.1658
1302.00,3.1244
1301.00,3.0786
1300.00,3.0346
1299.00,2.9928
1298.00,2.9502
1297.00,2.9050
1296.00,2.8573
1295.00,2.8069
1294.00,2.7527
1293.00,2.6943
1292.00,2.6330
1291.00,2.5713
1290.00,2.5122
1289.00,2.4579
1288.00,2.4103
1287.00,2.3703
1286.00,2.3389
1285.00,2.3171
1284.00,2.3065
1283.00,2.3088
1282.00,2.3248
1281.00,2.3538
1280.00,2.3932
1279.00,2.4397
1278.00,2.4895
1277.00,2.5390
1276.00,2.5856
1275.00,2.6285
1274.00,2.6679
1273.00,2.7058
1272.00,2.7440
1271.00,2.7844
1270.00,2.8282
1269.00,2.8746
1268.00,2.9206
1267.00,2.9628
1266.00,3.0005
1265.00,3.0360
1264.00,3.0711
1263.00,3.1058
1262.00,3.1403
1261.00,3.1756
1260.00,3.2118
1259.00,3.2490
1258.00,3.2882
1257.00,3.3264
1256.00,3.3525
1255.00,3.3608
1254.00,3.3645
1253.00,3.3851
1252.00,3.4285
1251.00,3.4742
1250.00,3.4918
1249.00,3.4784
1248.00,3.4587
1247.00,3.4544
1246.00,3.4735
1245.00,3.5152
1244.00,3.5693
1243.00,3.6170
1242.00,3.6456
1241.00,3.6621
1240.00,3.6827
1239.00,3.7137
1238.00,3.7445
1237.00,3.7557
1236.00,3.7376
1235.00,3.7052
1234.00,3.6873
1233.00,3.7023
1232.00,3.7464
1231.00,3.7950
1230.00,3.8225
1229.00,3.8275
1228.00,3.8179
1227.00,3.7899
1226.00,3.7526
1225.00,3.7308
1224.00,3.7337
1223.00,3.7411
1222.00,3.7289
1221.00,3.7040
1220.00,3.6866
1219.00,3.6845
1218.00,3.6962
1217.00,3.7196
1216.00,3.7525
1215.00,3.7872
1214.00,3.8171
1213.00,3.8301
1212.00,3.8049
1211.00,3.7577
1210.00,3.7276
1209.00,3.7283
1208.00,3.7528
1207.00,3.7849
1206.00,3.8061
1205.00,3.8042
1204.00,3.7851
1203.00,3.7740
1202.00,3.7968
1201.00,3.8658
1200.00,3.9732
1199.00,4.0873
1198.00,4.1596
1197.00,4.1233
1196.00,4.0272
1195.00,3.9519
1194.00,3.8939
1193.00,3.8400
1192.00,3.7920
1191.00,3.7494
1190.00,3.7119
1189.00,3.6904
1188.00,3.6880
1187.00,3.6960
1186.00,3.7079
1185.00,3.7081
1184.00,3.6844
1183.00,3.6587
1182.00,3.6516
1181.00,3.6634
1180.00,3.6825
1179.00,3.6860
1178.00,3.6563
1177.00,3.6036
1176.00,3.5521
1175.00,3.5150
1174.00,3.4913
1173.00,3.4724
1172.00,3.4489
1171.00,3.4135
1170.00,3.3665
1169.00,3.3184
1168.00,3.2806
1167.00,3.2568
1166.00,3.2422
1165.00,3.2270
1164.00,3.2026
1163.00,3.1637
1162.00,3.1126
1161.00,3.0576
1160.00,3.0061
1159.00,2.9591
1158.00,2.9141
1157.00,2.8694
1156.00,2.8251
1155.00,2.7817
1154.00,2.7393
1153.00,2.6983
1152.00,2.6601
1151.00,2.6263
1150.00,2.5989
1149.00,2.5810
1148.00,2.5758
1147.00,2.5843
1146.00,2.6040
1145.00,2.6314
1144.00,2.6647
1143.00,2.7051
1142.00,2.7540
1141.00,2.8104
1140.00,2.8702
1139.00,2.9284
1138.00,2.9826
1137.00,3.0347
1136.00,3.0883
1135.00,3.1423
1134.00,3.1908
1133.00,3.2352
1132.00,3.2893
1131.00,3.3615
1130.00,3.4413
1129.00,3.5068
1128.00,3.5424
1127.00,3.5517
1126.00,3.5526
1125.00,3.5627
1124.00,3.5925
1123.00,3.6462
1122.00,3.7248
1121.00,3.8237
1120.00,3.9181
1119.00,3.9702
1118.00,3.9689
1117.00,3.9356
1116.00,3.9124
1115.00,3.9336
1114.00,3.9851
1113.00,4.0099
1112.00,3.9575
1111.00,3.8850
1110.00,3.8731
1109.00,3.9354
1108.00,4.0421
1107.00,4.1180
1106.00,4.0925
1105.00,4.0641
1104.00,4.0957
1103.00,4.1088
1102.00,4.0446
1101.00,3.9722
1100.00,3.9225
1099.00,3.9000
1098.00,3.9167
1097.00,3.9803
1096.00,4.0648
1095.00,4.1244
1094.00,4.1664
1093.00,4.2369
1092.00,4.3157
1091.00,4.2795
1090.00,4.1227
1089.00,3.9861
1088.00,3.9568
1087.00,4.0410
1086.00,4.1127
1085.00,4.1225
1084.00,4.2550
1083.00,4.4990
1082.00,4.4164
1081.00,4.3941
1080.00,4.6929
1079.00,5.0462
1078.00,4.5222
1077.00,4.4095
1076.00,4.3970
1075.00,4.2136
1074.00,3.9496
1073.00,3.8239
1072.00,3.8342
1071.00,3.9735
1070.00,4.2294
1069.00,4.4217
1068.00,4.5969
1067.00,4.5729
1066.00,4.0725
1065.00,3.9264
1064.00,3.9587
1063.00,4.1472
1062.00,4.4603
1061.00,4.4342
1060.00,4.2715
1059.00,4.1696
1058.00,4.0720
1057.00,3.9852
1056.00,3.9328
1055.00,3.9304
1054.00,3.9893
1053.00,4.1279
1052.00,4.3577
1051.00,4.4226
1050.00,4.3941
1049.00,4.5522
1048.00,4.2205
1047.00,3.9914
1046.00,3.9204
1045.00,3.9311
1044.00,3.9857
1043.00,4.0628
1042.00,4.1525
1041.00,4.2504
1040.00,4.3375
1039.00,4.3711
1038.00,4.2973
1037.00,4.1401
1036.00,4.0038
1035.00,3.9263
1034.00,3.8952
1033.00,3.8827
1032.00,3.8764
1031.00,3.8948
1030.00,3.9574
1029.00,4.0629
1028.00,4.2165
1027.00,4.4411
1026.00,4.6927
1025.00,4.7825
1024.00,4.6571
1023.00,4.4547
1022.00,4.2867
1021.00,4.1877
1020.00,4.1147
1019.00,4.0304
1018.00,3.9572
1017.00,3.8992
1016.00,3.8460
1015.00,3.8080
1014.00,3.7950
1013.00,3.8049
1012.00,3.8306
1011.00,3.8519
1010.00,3.8299
1009.00,3.7536
1008.00,3.6644
1007.00,3.6002
1006.00,3.5690
1005.00,3.5552
1004.00,3.5378
1003.00,3.5034
1002.00,3.4474
1001.00,3.3772
1000.00,3.3134
999.00,3.2775
998.00,3.2790
997.00,3.3083
996.00,3.3413
995.00,3.3641
994.00,3.3784
993.00,3.3893
992.00,3.4038
991.00,3.4280
990.00,3.4632
989.00,3.5127
988.00,3.5859
987.00,3.6917
986.00,3.8163
985.00,3.9070
984.00,3.9322
983.00,3.8821
982.00,3.8172
981.00,3.8474
980.00,4.0166
979.00,4.2406
978.00,4.3097
977.00,4.3396
976.00,4.2527
975.00,4.1906
974.00,4.2322
973.00,4.3452
972.00,4.5082
971.00,4.5891
970.00,4.4991
969.00,4.4054
968.00,4.2454
967.00,4.1369
966.00,4.1753
965.00,4.3925
964.00,4.8086
963.00,4.8405
962.00,4.3711
961.00,4.1668
960.00,4.1548
959.00,4.3467
958.00,4.7886
957.00,4.3570
956.00,4.1304
955.00,4.0664
954.00,4.0951
953.00,4.2186
952.00,4.5286
951.00,4.8017
950.00,4.4532
949.00,4.3629
948.00,4.3013
947.00,4.1387
946.00,4.0108
945.00,4.0005
944.00,4.1066
943.00,4.2580
942.00,4.3500
941.00,4.4182
940.00,4.3857
939.00,4.2827
938.00,4.2708
937.00,4.3602
936.00,4.4844
935.00,4.5163
934.00,4.4906
933.00,4.5232
932.00,4.7817
931.00,5.0747
930.00,4.4329
929.00,4.1985
928.00,4.0925
927.00,4.0881
926.00,4.2021
925.00,4.3564
924.00,4.3534
923.00,4.3198
922.00,4.3073
921.00,4.3614
920.00,4.2650
919.00,4.0511
918.00,3.9524
917.00,3.9280
916.00,3.9220
915.00,3.9162
914.00,3.9218
913.00,3.9568
912.00,4.0301
911.00,4.1346
910.00,4.2380
909.00,4.2826
908.00,4.2394
907.00,4.1511
906.00,4.0654
905.00,4.0066
904.00,4.0056
903.00,4.0907
902.00,4.3170
901.00,4.8939
900.00,4.8268
899.00,4.5767
898.00,4.5912
897.00,4.7793
896.00,4.7873
895.00,4.4163
894.00,4.2726
893.00,4.3477
892.00,4.6384
891.00,4.4622
890.00,4.2373
889.00,4.2346
888.00,4.4830
887.00,5.1710
886.00,4.5406
885.00,4.4987
884.00,4.6212
883.00,4.5821
882.00,4.4137
881.00,4.3045
880.00,4.3458
879.00,4.3691
878.00,4.1829
877.00,4.0673
876.00,4.0893
875.00,4.2031
874.00,4.2463
873.00,4.2300
872.00,4.2935
871.00,4.2020
870.00,4.0657
869.00,4.0773
868.00,4.3202
867.00,4.9604
866.00,4.2801
865.00,4.1423
864.00,4.1994
863.00,4.2137
862.00,4.0926
861.00,3.9846
860.00,3.9266
859.00,3.9141
858.00,3.9733
857.00,4.0959
856.00,4.2341
855.00,4.2981
854.00,4.2540
853.00,4.1737
852.00,4.1092
851.00,4.1009
850.00,4.1895
849.00,4.3226
848.00,4.2940
847.00,4.1438
846.00,4.0549
845.00,4.0494
844.00,4.2017
843.00,4.6590
842.00,4.3121
841.00,4.0751
840.00,4.0823
839.00,4.2787
838.00,4.4134
837.00,4.1183
836.00,3.9728
835.00,3.9889
834.00,4.1038
833.00,4.1546
832.00,4.0966
831.00,4.0708
830.00,4.0647
829.00,4.0805
828.00,4.1349
827.00,4.0906
826.00,3.9710
825.00,3.9491
824.00,4.1022
823.00,4.5140
822.00,4.4801
821.00,4.3278
820.00,4.5045
819.00,4.3966
818.00,4.1667
817.00,4.1745
816.00,4.2360
815.00,4.1927
814.00,4.2298
813.00,4.5247
812.00,5.0269
811.00,4.4225
810.00,4.1982
809.00,4.1380
808.00,4.2024
807.00,4.4408
806.00,4.7434
805.00,4.5041
804.00,4.3849
803.00,4.4235
802.00,4.6467
801.00,4.9947
800.00,4.2678
799.00,4.0709
798.00,4.1445
797.00,4.6123
796.00,4.5602
795.00,4.2029
794.00,4.1698
793.00,4.2837
792.00,4.6617
791.00,4.6299
790.00,4.2499
789.00,4.1551
788.00,4.2204
787.00,4.3487
786.00,4.4364
785.00,4.3705
784.00,4.1928
783.00,4.0814
782.00,4.2349
781.00,4.5479
780.00,4.0992
779.00,3.9555
778.00,3.9867
777.00,4.0618
776.00,4.1976
775.00,4.4213
774.00,4.9269
773.00,5.5015
772.00,4.5616
771.00,4.2286
770.00,4.0513
769.00,3.9182
768.00,3.8284
767.00,3.7825
766.00,3.7859
765.00,3.8502
764.00,3.9833
763.00,4.1166
762.00,4.1404
761.00,4.1290
760.00,4.1524
759.00,4.1888
758.00,4.2487
757.00,4.2883
756.00,4.0976
755.00,3.8704
754.00,3.7685
753.00,3.7739
752.00,3.8295
751.00,3.8672
750.00,3.8712
749.00,3.8789
748.00,3.9014
747.00,3.9072
746.00,3.9255
745.00,4.0256
744.00,4.2946
743.00,4.6608
742.00,4.5294
741.00,4.4760
740.00,4.3669
739.00,4.1650
738.00,4.1031
737.00,4.1704
736.00,4.2486
735.00,4.1842
734.00,4.0831
733.00,4.0449
732.00,4.0430
731.00,3.9996
730.00,3.9486
729.00,3.9554
728.00,4.1199
727.00,4.5981
726.00,4.5198
725.00,4.2258
724.00,4.2953
723.00,4.5645
722.00,4.9685
721.00,4.8127
720.00,4.2854
719.00,4.1141
718.00,4.2397
717.00,4.5260
716.00,4.1291
715.00,3.9192
714.00,3.8862
713.00,3.8935
712.00,3.9419
711.00,4.0701
710.00,4.2281
709.00,4.1571
708.00,4.0628
707.00,4.0237
706.00,4.0267
705.00,4.0967
704.00,4.2663
703.00,4.5182
702.00,4.5891
701.00,4.4615
700.00,4.2621
