Created as New Dataset,Sample 043 By Administrator Date Wednesday, November 24 2021
cm-1,A
7502.00,0.6888
7501.00,0.6789
7500.00,0.6692
7499.00,0.6598
7498.00,0.6506
7497.00,0.6415
7496.00,0.6327
7495.00,0.6236
7494.00,0.6142
7493.00,0.6058
7492.00,0.5994
7491.00,0.5948
7490.00,0.5910
7489.00,0.5870
7488.00,0.5820
7487.00,0.5759
7486.00,0.5687
7485.00,0.5608
7484.00,0.5525
7483.00,0.5443
7482.00,0.5367
7481.00,0.5304
7480.00,0.5254
7479.00,0.5213
7478.00,0.5178
7477.00,0.5147
7476.00,0.5121
7475.00,0.5099
7474.00,0.5082
7473.00,0.5069
7472.00,0.5056
7471.00,0.5040
7470.00,0.5022
7469.00,0.5001
7468.00,0.4982
7467.00,0.4968
7466.00,0.4959
7465.00,0.4956
7464.00,0.4958
7463.00,0.4965
7462.00,0.4976
7461.00,0.4990
7460.00,0.5005
7459.00,0.5021
7458.00,0.5040
7457.00,0.5063
7456.00,0.5091
7455.00,0.5122
7454.00,0.5158
7453.00,0.5200
7452.00,0.5248
7451.00,0.5300
7450.00,0.5353
7449.00,0.5409
7448.00,0.5468
7447.00,0.5530
7446.00,0.5593
7445.00,0.5657
7444.00,0.5724
7443.00,0.5794
7442.00,0.5868
7441.00,0.5948
7440.00,0.6030
7439.00,0.6110
7438.00,0.6189
7437.00,0.6269
7436.00,0.6356
7435.00,0.6448
7434.00,0.6539
7433.00,0.6626
7432.00,0.6714
7431.00,0.6806
7430.00,0.6902
7429.00,0.6998
7428.00,0.7090
7427.00,0.7182
7426.00,0.7277
7425.00,0.7375
7424.00,0.7471
7423.00,0.7563
7422.00,0.7653
7421.00,0.7744
7420.00,0.7837
7419.00,0.7926
7418.00,0.8010
7417.00,0.8091
7416.00,0.8172
7415.00,0.8255
7414.00,0.8335
7413.00,0.8409
7412.00,0.8482
7411.00,0.8558
7410.00,0.8641
7409.00,0.8724
7408.00,0.8800
7407.00,0.8868
7406.00,0.8932
7405.00,0.8998
7404.00,0.9064
7403.00,0.9125
7402.00,0.9181
7401.00,0.9233
7400.00,0.9280
7399.00,0.9322
7398.00,0.9360
7397.00,0.9398
7396.00,0.9436
7395.00,0.9477
7394.00,0.9520
7393.00,0.9566
7392.00,0.9610
7391.00,0.9646
7390.00,0.9674
7389.00,0.9696
7388.00,0.9714
7387.00,0.9727
7386.00,0.9733
7385.00,0.9736
7384.00,0.9740
7383.00,0.9748
7382.00,0.9753
7381.00,0.9752
7380.00,0.9743
7379.00,0.9729
7378.00,0.9716
7377.00,0.9701
7376.00,0.9683
7375.00,0.9661
7374.00,0.9632
7373.00,0.9598
7372.00,0.9559
7371.00,0.9518
7370.00,0.9477
7369.00,0.9434
7368.00,0.9387
7367.00,0.9335
7366.00,0.9281
7365.00,0.9229
7364.00,0.9180
7363.00,0.9132
7362.00,0.9082
7361.00,0.9028
7360.00,0.8967
7359.00,0.8901
7358.00,0.8831
7357.00,0.8755
7356.00,0.8676
7355.00,0.8595
7354.00,0.8514
7353.00,0.8434
7352.00,0.8352
7351.00,0.8267
7350.00,0.8180
7349.00,0.8094
7348.00,0.8011
7347.00,0.7929
7346.00,0.7849
7345.00,0.7770
7344.00,0.7692
7343.00,0.7613
7342.00,0.7532
7341.00,0.7451
7340.00,0.7371
7339.00,0.7291
7338.00,0.7215
7337.00,0.7143
7336.00,0.7073
7335.00,0.7007
7334.00,0.6943
7333.00,0.6882
7332.00,0.6825
7331.00,0.6771
7330.00,0.6720
7329.00,0.6672
7328.00,0.6627
7327.00,0.6585
7326.00,0.6549
7325.00,0.6517
7324.00,0.6488
7323.00,0.6461
7322.00,0.6438
7321.00,0.6422
7320.00,0.6412
7319.00,0.6407
7318.00,0.6406
7317.00,0.6409
7316.00,0.6417
7315.00,0.6431
7314.00,0.6450
7313.00,0.6476
7312.00,0.6506
7311.00,0.6537
7310.00,0.6568
7309.00,0.6602
7308.00,0.6643
7307.00,0.6690
7306.00,0.6739
7305.00,0.6789
7304.00,0.6839
7303.00,0.6891
7302.00,0.6948
7301.00,0.7007
7300.00,0.7069
7299.00,0.7132
7298.00,0.7199
7297.00,0.7270
7296.00,0.7346
7295.00,0.7425
7294.00,0.7505
7293.00,0.7585
7292.00,0.7664
7291.00,0.7742
7290.00,0.7822
7289.00,0.7904
7288.00,0.7986
7287.00,0.8067
7286.00,0.8151
7285.00,0.8240
7284.00,0.8332
7283.00,0.8422
7282.00,0.8511
7281.00,0.8599
7280.00,0.8684
7279.00,0.8763
7278.00,0.8838
7277.00,0.8911
7276.00,0.8985
7275.00,0.9062
7274.00,0.9139
7273.00,0.9219
7272.00,0.9298
7271.00,0.9374
7270.00,0.9447
7269.00,0.9517
7268.00,0.9584
7267.00,0.9646
7266.00,0.9704
7265.00,0.9764
7264.00,0.9826
7263.00,0.9889
7262.00,0.9951
7261.00,1.0009
7260.00,1.0064
7259.00,1.0117
7258.00,1.0166
7257.00,1.0208
7256.00,1.0246
7255.00,1.0280
7254.00,1.0310
7253.00,1.0335
7252.00,1.0355
7251.00,1.0372
7250.00,1.0390
7249.00,1.0407
7248.00,1.0420
7247.00,1.0429
7246.00,1.0436
7245.00,1.0445
7244.00,1.0454
7243.00,1.0462
7242.00,1.0463
7241.00,1.0458
7240.00,1.0447
7239.00,1.0433
7238.00,1.0419
7237.00,1.0405
7236.00,1.0391
7235.00,1.0376
7234.00,1.0356
7233.00,1.0330
7232.00,1.0294
7231.00,1.0251
7230.00,1.0204
7229.00,1.0155
7228.00,1.0105
7227.00,1.0056
7226.00,1.0008
7225.00,0.9959
7224.00,0.9903
7223.00,0.9841
7222.00,0.9777
7221.00,0.9715
7220.00,0.9650
7219.00,0.9581
7218.00,0.9510
7217.00,0.9441
7216.00,0.9374
7215.00,0.9303
7214.00,0.9226
7213.00,0.9145
7212.00,0.9061
7211.00,0.8974
7210.00,0.8885
7209.00,0.8796
7208.00,0.8707
7207.00,0.8618
7206.00,0.8531
7205.00,0.8445
7204.00,0.8359
7203.00,0.8274
7202.00,0.8192
7201.00,0.8114
7200.00,0.8037
7199.00,0.7958
7198.00,0.7877
7197.00,0.7798
7196.00,0.7723
7195.00,0.7653
7194.00,0.7584
7193.00,0.7516
7192.00,0.7449
7191.00,0.7384
7190.00,0.7325
7189.00,0.7270
7188.00,0.7216
7187.00,0.7164
7186.00,0.7113
7185.00,0.7069
7184.00,0.7031
7183.00,0.6997
7182.00,0.6964
7181.00,0.6934
7180.00,0.6907
7179.00,0.6883
7178.00,0.6865
7177.00,0.6852
7176.00,0.6847
7175.00,0.6847
7174.00,0.6851
7173.00,0.6860
7172.00,0.6871
7171.00,0.6885
7170.00,0.6902
7169.00,0.6923
7168.00,0.6947
7167.00,0.6975
7166.00,0.7006
7165.00,0.7042
7164.00,0.7085
7163.00,0.7134
7162.00,0.7187
7161.00,0.7244
7160.00,0.7302
7159.00,0.7359
7158.00,0.7417
7157.00,0.7477
7156.00,0.7540
7155.00,0.7607
7154.00,0.7678
7153.00,0.7752
7152.00,0.7829
7151.00,0.7910
7150.00,0.7993
7149.00,0.8079
7148.00,0.8165
7147.00,0.8251
7146.00,0.8338
7145.00,0.8428
7144.00,0.8517
7143.00,0.8603
7142.00,0.8687
7141.00,0.8771
7140.00,0.8857
7139.00,0.8946
7138.00,0.9037
7137.00,0.9128
7136.00,0.9218
7135.00,0.9307
7134.00,0.9393
7133.00,0.9478
7132.00,0.9558
7131.00,0.9636
7130.00,0.9713
7129.00,0.9791
7128.00,0.9868
7127.00,0.9945
7126.00,1.0020
7125.00,1.0094
7124.00,1.0168
7123.00,1.0241
7122.00,1.0313
7121.00,1.0379
7120.00,1.0441
7119.00,1.0503
7118.00,1.0567
7117.00,1.0631
7116.00,1.0691
7115.00,1.0745
7114.00,1.0794
7113.00,1.0836
7112.00,1.0871
7111.00,1.0904
7110.00,1.0939
7109.00,1.0977
7108.00,1.1014
7107.00,1.1047
7106.00,1.1082
7105.00,1.1118
7104.00,1.1151
7103.00,1.1173
7102.00,1.1184
7101.00,1.1192
7100.00,1.1201
7099.00,1.1204
7098.00,1.1199
7097.00,1.1186
7096.00,1.1175
7095.00,1.1167
7094.00,1.1160
7093.00,1.1148
7092.00,1.1127
7091.00,1.1102
7090.00,1.1080
7089.00,1.1061
7088.00,1.1038
7087.00,1.1007
7086.00,1.0969
7085.00,1.0932
7084.00,1.0895
7083.00,1.0855
7082.00,1.0807
7081.00,1.0751
7080.00,1.0693
7079.00,1.0635
7078.00,1.0576
7077.00,1.0515
7076.00,1.0450
7075.00,1.0380
7074.00,1.0308
7073.00,1.0236
7072.00,1.0162
7071.00,1.0083
7070.00,0.9999
7069.00,0.9913
7068.00,0.9828
7067.00,0.9742
7066.00,0.9656
7065.00,0.9566
7064.00,0.9475
7063.00,0.9384
7062.00,0.9296
7061.00,0.9209
7060.00,0.9124
7059.00,0.9039
7058.00,0.8955
7057.00,0.8871
7056.00,0.8787
7055.00,0.8701
7054.00,0.8612
7053.00,0.8522
7052.00,0.8434
7051.00,0.8349
7050.00,0.8268
7049.00,0.8189
7048.00,0.8113
7047.00,0.8040
7046.00,0.7971
7045.00,0.7906
7044.00,0.7843
7043.00,0.7782
7042.00,0.7726
7041.00,0.7674
7040.00,0.7626
7039.00,0.7580
7038.00,0.7537
7037.00,0.7499
7036.00,0.7468
7035.00,0.7444
7034.00,0.7425
7033.00,0.7411
7032.00,0.7402
7031.00,0.7397
7030.00,0.7397
7029.00,0.7401
7028.00,0.7409
7027.00,0.7420
7026.00,0.7435
7025.00,0.7454
7024.00,0.7479
7023.00,0.7509
7022.00,0.7545
7021.00,0.7587
7020.00,0.7632
7019.00,0.7679
7018.00,0.7728
7017.00,0.7780
7016.00,0.7834
7015.00,0.7891
7014.00,0.7953
7013.00,0.8020
7012.00,0.8092
7011.00,0.8165
7010.00,0.8240
7009.00,0.8315
7008.00,0.8391
7007.00,0.8468
7006.00,0.8546
7005.00,0.8628
7004.00,0.8716
7003.00,0.8805
7002.00,0.8894
7001.00,0.8978
7000.00,0.9058
6999.00,0.9139
6998.00,0.9222
6997.00,0.9306
6996.00,0.9390
6995.00,0.9473
6994.00,0.9557
6993.00,0.9643
6992.00,0.9728
6991.00,0.9810
6990.00,0.9890
6989.00,0.9968
6988.00,1.0043
6987.00,1.0116
6986.00,1.0192
6985.00,1.0271
6984.00,1.0353
6983.00,1.0433
6982.00,1.0511
6981.00,1.0585
6980.00,1.0653
6979.00,1.0713
6978.00,1.0765
6977.00,1.0814
6976.00,1.0861
6975.00,1.0910
6974.00,1.0962
6973.00,1.1016
6972.00,1.1065
6971.00,1.1109
6970.00,1.1149
6969.00,1.1188
6968.00,1.1221
6967.00,1.1249
6966.00,1.1273
6965.00,1.1299
6964.00,1.1324
6963.00,1.1345
6962.00,1.1363
6961.00,1.1378
6960.00,1.1390
6959.00,1.1395
6958.00,1.1394
6957.00,1.1389
6956.00,1.1379
6955.00,1.1363
6954.00,1.1347
6953.00,1.1336
6952.00,1.1328
6951.00,1.1313
6950.00,1.1288
6949.00,1.1254
6948.00,1.1216
6947.00,1.1176
6946.00,1.1133
6945.00,1.1089
6944.00,1.1046
6943.00,1.1003
6942.00,1.0958
6941.00,1.0910
6940.00,1.0860
6939.00,1.0805
6938.00,1.0744
6937.00,1.0680
6936.00,1.0617
6935.00,1.0553
6934.00,1.0485
6933.00,1.0408
6932.00,1.0327
6931.00,1.0248
6930.00,1.0172
6929.00,1.0095
6928.00,1.0013
6927.00,0.9926
6926.00,0.9841
6925.00,0.9757
6924.00,0.9670
6923.00,0.9577
6922.00,0.9480
6921.00,0.9383
6920.00,0.9289
6919.00,0.9195
6918.00,0.9103
6917.00,0.9011
6916.00,0.8922
6915.00,0.8835
6914.00,0.8748
6913.00,0.8661
6912.00,0.8575
6911.00,0.8488
6910.00,0.8403
6909.00,0.8320
6908.00,0.8239
6907.00,0.8161
6906.00,0.8085
6905.00,0.8012
6904.00,0.7941
6903.00,0.7871
6902.00,0.7805
6901.00,0.7744
6900.00,0.7690
6899.00,0.7641
6898.00,0.7596
6897.00,0.7553
6896.00,0.7514
6895.00,0.7480
6894.00,0.7451
6893.00,0.7425
6892.00,0.7403
6891.00,0.7385
6890.00,0.7373
6889.00,0.7368
6888.00,0.7366
6887.00,0.7367
6886.00,0.7370
6885.00,0.7377
6884.00,0.7387
6883.00,0.7403
6882.00,0.7424
6881.00,0.7451
6880.00,0.7484
6879.00,0.7521
6878.00,0.7564
6877.00,0.7609
6876.00,0.7656
6875.00,0.7704
6874.00,0.7755
6873.00,0.7812
6872.00,0.7874
6871.00,0.7942
6870.00,0.8013
6869.00,0.8088
6868.00,0.8165
6867.00,0.8240
6866.00,0.8315
6865.00,0.8391
6864.00,0.8468
6863.00,0.8545
6862.00,0.8625
6861.00,0.8709
6860.00,0.8797
6859.00,0.8889
6858.00,0.8983
6857.00,0.9075
6856.00,0.9167
6855.00,0.9258
6854.00,0.9349
6853.00,0.9438
6852.00,0.9526
6851.00,0.9611
6850.00,0.9698
6849.00,0.9787
6848.00,0.9876
6847.00,0.9963
6846.00,1.0049
6845.00,1.0138
6844.00,1.0228
6843.00,1.0316
6842.00,1.0401
6841.00,1.0485
6840.00,1.0566
6839.00,1.0642
6838.00,1.0714
6837.00,1.0782
6836.00,1.0849
6835.00,1.0914
6834.00,1.0979
6833.00,1.1045
6832.00,1.1111
6831.00,1.1176
6830.00,1.1239
6829.00,1.1299
6828.00,1.1354
6827.00,1.1403
6826.00,1.1444
6825.00,1.1480
6824.00,1.1514
6823.00,1.1548
6822.00,1.1581
6821.00,1.1613
6820.00,1.1644
6819.00,1.1673
6818.00,1.1700
6817.00,1.1725
6816.00,1.1743
6815.00,1.1755
6814.00,1.1762
6813.00,1.1767
6812.00,1.1773
6811.00,1.1778
6810.00,1.1777
6809.00,1.1771
6808.00,1.1761
6807.00,1.1750
6806.00,1.1738
6805.00,1.1724
6804.00,1.1705
6803.00,1.1681
6802.00,1.1651
6801.00,1.1618
6800.00,1.1583
6799.00,1.1542
6798.00,1.1497
6797.00,1.1446
6796.00,1.1394
6795.00,1.1340
6794.00,1.1284
6793.00,1.1226
6792.00,1.1165
6791.00,1.1099
6790.00,1.1030
6789.00,1.0960
6788.00,1.0888
6787.00,1.0812
6786.00,1.0730
6785.00,1.0643
6784.00,1.0555
6783.00,1.0469
6782.00,1.0386
6781.00,1.0304
6780.00,1.0218
6779.00,1.0128
6778.00,1.0037
6777.00,0.9943
6776.00,0.9847
6775.00,0.9749
6774.00,0.9650
6773.00,0.9553
6772.00,0.9456
6771.00,0.9361
6770.00,0.9267
6769.00,0.9173
6768.00,0.9079
6767.00,0.8984
6766.00,0.8893
6765.00,0.8805
6764.00,0.8718
6763.00,0.8629
6762.00,0.8541
6761.00,0.8457
6760.00,0.8376
6759.00,0.8299
6758.00,0.8226
6757.00,0.8158
6756.00,0.8095
6755.00,0.8036
6754.00,0.7980
6753.00,0.7926
6752.00,0.7876
6751.00,0.7830
6750.00,0.7791
6749.00,0.7757
6748.00,0.7728
6747.00,0.7703
6746.00,0.7683
6745.00,0.7669
6744.00,0.7660
6743.00,0.7657
6742.00,0.7658
6741.00,0.7665
6740.00,0.7678
6739.00,0.7696
6738.00,0.7718
6737.00,0.7743
6736.00,0.7773
6735.00,0.7807
6734.00,0.7847
6733.00,0.7892
6732.00,0.7943
6731.00,0.7998
6730.00,0.8055
6729.00,0.8115
6728.00,0.8177
6727.00,0.8244
6726.00,0.8315
6725.00,0.8389
6724.00,0.8463
6723.00,0.8537
6722.00,0.8615
6721.00,0.8697
6720.00,0.8779
6719.00,0.8860
6718.00,0.8943
6717.00,0.9028
6716.00,0.9115
6715.00,0.9202
6714.00,0.9289
6713.00,0.9377
6712.00,0.9466
6711.00,0.9553
6710.00,0.9640
6709.00,0.9729
6708.00,0.9818
6707.00,0.9909
6706.00,1.0000
6705.00,1.0093
6704.00,1.0185
6703.00,1.0276
6702.00,1.0364
6701.00,1.0448
6700.00,1.0528
6699.00,1.0604
6698.00,1.0680
6697.00,1.0757
6696.00,1.0831
6695.00,1.0903
6694.00,1.0972
6693.00,1.1039
6692.00,1.1102
6691.00,1.1159
6690.00,1.1212
6689.00,1.1266
6688.00,1.1318
6687.00,1.1367
6686.00,1.1413
6685.00,1.1457
6684.00,1.1501
6683.00,1.1545
6682.00,1.1587
6681.00,1.1624
6680.00,1.1656
6679.00,1.1684
6678.00,1.1708
6677.00,1.1728
6676.00,1.1743
6675.00,1.1752
6674.00,1.1759
6673.00,1.1766
6672.00,1.1772
6671.00,1.1776
6670.00,1.1779
6669.00,1.1781
6668.00,1.1779
6667.00,1.1771
6666.00,1.1754
6665.00,1.1733
6664.00,1.1708
6663.00,1.1678
6662.00,1.1645
6661.00,1.1612
6660.00,1.1578
6659.00,1.1541
6658.00,1.1500
6657.00,1.1453
6656.00,1.1402
6655.00,1.1348
6654.00,1.1292
6653.00,1.1233
6652.00,1.1174
6651.00,1.1115
6650.00,1.1053
6649.00,1.0989
6648.00,1.0920
6647.00,1.0848
6646.00,1.0771
6645.00,1.0690
6644.00,1.0605
6643.00,1.0515
6642.00,1.0423
6641.00,1.0331
6640.00,1.0240
6639.00,1.0148
6638.00,1.0055
6637.00,0.9962
6636.00,0.9869
6635.00,0.9774
6634.00,0.9677
6633.00,0.9579
6632.00,0.9481
6631.00,0.9385
6630.00,0.9292
6629.00,0.9198
6628.00,0.9102
6627.00,0.9004
6626.00,0.8906
6625.00,0.8810
6624.00,0.8714
6623.00,0.8620
6622.00,0.8531
6621.00,0.8448
6620.00,0.8369
6619.00,0.8294
6618.00,0.8219
6617.00,0.8147
6616.00,0.8077
6615.00,0.8010
6614.00,0.7947
6613.00,0.7886
6612.00,0.7829
6611.00,0.7775
6610.00,0.7725
6609.00,0.7680
6608.00,0.7638
6607.00,0.7602
6606.00,0.7570
6605.00,0.7544
6604.00,0.7524
6603.00,0.7507
6602.00,0.7495
6601.00,0.7489
6600.00,0.7486
6599.00,0.7488
6598.00,0.7496
6597.00,0.7509
6596.00,0.7528
6595.00,0.7551
6594.00,0.7578
6593.00,0.7611
6592.00,0.7649
6591.00,0.7690
6590.00,0.7735
6589.00,0.7785
6588.00,0.7839
6587.00,0.7897
6586.00,0.7960
6585.00,0.8028
6584.00,0.8098
6583.00,0.8169
6582.00,0.8243
6581.00,0.8319
6580.00,0.8398
6579.00,0.8477
6578.00,0.8558
6577.00,0.8640
6576.00,0.8726
6575.00,0.8815
6574.00,0.8904
6573.00,0.8995
6572.00,0.9087
6571.00,0.9179
6570.00,0.9273
6569.00,0.9368
6568.00,0.9465
6567.00,0.9560
6566.00,0.9656
6565.00,0.9751
6564.00,0.9847
6563.00,0.9942
6562.00,1.0036
6561.00,1.0129
6560.00,1.0220
6559.00,1.0309
6558.00,1.0396
6557.00,1.0481
6556.00,1.0563
6555.00,1.0642
6554.00,1.0719
6553.00,1.0799
6552.00,1.0883
6551.00,1.0968
6550.00,1.1050
6549.00,1.1127
6548.00,1.1199
6547.00,1.1269
6546.00,1.1336
6545.00,1.1400
6544.00,1.1461
6543.00,1.1520
6542.00,1.1578
6541.00,1.1633
6540.00,1.1683
6539.00,1.1725
6538.00,1.1763
6537.00,1.1798
6536.00,1.1831
6535.00,1.1861
6534.00,1.1890
6533.00,1.1918
6532.00,1.1945
6531.00,1.1966
6530.00,1.1983
6529.00,1.1999
6528.00,1.2016
6527.00,1.2029
6526.00,1.2035
6525.00,1.2033
6524.00,1.2028
6523.00,1.2020
6522.00,1.2010
6521.00,1.1998
6520.00,1.1984
6519.00,1.1967
6518.00,1.1946
6517.00,1.1919
6516.00,1.1885
6515.00,1.1847
6514.00,1.1805
6513.00,1.1761
6512.00,1.1718
6511.00,1.1673
6510.00,1.1626
6509.00,1.1574
6508.00,1.1518
6507.00,1.1458
6506.00,1.1396
6505.00,1.1333
6504.00,1.1267
6503.00,1.1197
6502.00,1.1124
6501.00,1.1047
6500.00,1.0966
6499.00,1.0881
6498.00,1.0795
6497.00,1.0708
6496.00,1.0617
6495.00,1.0522
6494.00,1.0426
6493.00,1.0329
6492.00,1.0229
6491.00,1.0126
6490.00,1.0019
6489.00,0.9913
6488.00,0.9808
6487.00,0.9704
6486.00,0.9600
6485.00,0.9497
6484.00,0.9395
6483.00,0.9293
6482.00,0.9191
6481.00,0.9088
6480.00,0.8988
6479.00,0.8890
6478.00,0.8795
6477.00,0.8703
6476.00,0.8611
6475.00,0.8520
6474.00,0.8430
6473.00,0.8342
6472.00,0.8258
6471.00,0.8179
6470.00,0.8105
6469.00,0.8036
6468.00,0.7973
6467.00,0.7913
6466.00,0.7856
6465.00,0.7804
6464.00,0.7756
6463.00,0.7713
6462.00,0.7675
6461.00,0.7644
6460.00,0.7619
6459.00,0.7600
6458.00,0.7587
6457.00,0.7581
6456.00,0.7578
6455.00,0.7580
6454.00,0.7587
6453.00,0.7600
6452.00,0.7619
6451.00,0.7642
6450.00,0.7671
6449.00,0.7706
6448.00,0.7746
6447.00,0.7791
6446.00,0.7839
6445.00,0.7891
6444.00,0.7947
6443.00,0.8007
6442.00,0.8071
6441.00,0.8139
6440.00,0.8211
6439.00,0.8285
6438.00,0.8362
6437.00,0.8441
6436.00,0.8523
6435.00,0.8606
6434.00,0.8691
6433.00,0.8779
6432.00,0.8868
6431.00,0.8958
6430.00,0.9049
6429.00,0.9139
6428.00,0.9229
6427.00,0.9319
6426.00,0.9413
6425.00,0.9510
6424.00,0.9607
6423.00,0.9703
6422.00,0.9800
6421.00,0.9896
6420.00,0.9989
6419.00,1.0079
6418.00,1.0168
6417.00,1.0258
6416.00,1.0348
6415.00,1.0437
6414.00,1.0525
6413.00,1.0612
6412.00,1.0698
6411.00,1.0781
6410.00,1.0861
6409.00,1.0939
6408.00,1.1012
6407.00,1.1080
6406.00,1.1146
6405.00,1.1213
6404.00,1.1281
6403.00,1.1347
6402.00,1.1409
6401.00,1.1469
6400.00,1.1525
6399.00,1.1577
6398.00,1.1623
6397.00,1.1666
6396.00,1.1705
6395.00,1.1742
6394.00,1.1776
6393.00,1.1807
6392.00,1.1833
6391.00,1.1853
6390.00,1.1870
6389.00,1.1887
6388.00,1.1904
6387.00,1.1917
6386.00,1.1923
6385.00,1.1925
6384.00,1.1925
6383.00,1.1924
6382.00,1.1921
6381.00,1.1912
6380.00,1.1899
6379.00,1.1882
6378.00,1.1863
6377.00,1.1839
6376.00,1.1808
6375.00,1.1771
6374.00,1.1733
6373.00,1.1695
6372.00,1.1657
6371.00,1.1616
6370.00,1.1570
6369.00,1.1522
6368.00,1.1469
6367.00,1.1413
6366.00,1.1350
6365.00,1.1283
6364.00,1.1212
6363.00,1.1139
6362.00,1.1067
6361.00,1.0994
6360.00,1.0921
6359.00,1.0843
6358.00,1.0761
6357.00,1.0678
6356.00,1.0594
6355.00,1.0508
6354.00,1.0419
6353.00,1.0330
6352.00,1.0240
6351.00,1.0148
6350.00,1.0054
6349.00,0.9957
6348.00,0.9857
6347.00,0.9757
6346.00,0.9659
6345.00,0.9564
6344.00,0.9471
6343.00,0.9378
6342.00,0.9283
6341.00,0.9189
6340.00,0.9095
6339.00,0.9000
6338.00,0.8905
6337.00,0.8811
6336.00,0.8718
6335.00,0.8626
6334.00,0.8536
6333.00,0.8447
6332.00,0.8361
6331.00,0.8276
6330.00,0.8193
6329.00,0.8111
6328.00,0.8031
6327.00,0.7954
6326.00,0.7877
6325.00,0.7804
6324.00,0.7734
6323.00,0.7670
6322.00,0.7612
6321.00,0.7559
6320.00,0.7511
6319.00,0.7467
6318.00,0.7429
6317.00,0.7397
6316.00,0.7370
6315.00,0.7350
6314.00,0.7337
6313.00,0.7332
6312.00,0.7332
6311.00,0.7339
6310.00,0.7352
6309.00,0.7371
6308.00,0.7394
6307.00,0.7423
6306.00,0.7457
6305.00,0.7497
6304.00,0.7543
6303.00,0.7592
6302.00,0.7645
6301.00,0.7703
6300.00,0.7765
6299.00,0.7832
6298.00,0.7901
6297.00,0.7975
6296.00,0.8052
6295.00,0.8132
6294.00,0.8216
6293.00,0.8302
6292.00,0.8391
6291.00,0.8480
6290.00,0.8572
6289.00,0.8666
6288.00,0.8761
6287.00,0.8856
6286.00,0.8952
6285.00,0.9049
6284.00,0.9148
6283.00,0.9249
6282.00,0.9350
6281.00,0.9452
6280.00,0.9552
6279.00,0.9650
6278.00,0.9745
6277.00,0.9839
6276.00,0.9933
6275.00,1.0027
6274.00,1.0121
6273.00,1.0215
6272.00,1.0311
6271.00,1.0406
6270.00,1.0498
6269.00,1.0588
6268.00,1.0674
6267.00,1.0760
6266.00,1.0845
6265.00,1.0928
6264.00,1.1011
6263.00,1.1092
6262.00,1.1169
6261.00,1.1243
6260.00,1.1313
6259.00,1.1381
6258.00,1.1447
6257.00,1.1511
6256.00,1.1572
6255.00,1.1630
6254.00,1.1683
6253.00,1.1730
6252.00,1.1771
6251.00,1.1805
6250.00,1.1837
6249.00,1.1869
6248.00,1.1903
6247.00,1.1940
6246.00,1.1974
6245.00,1.2001
6244.00,1.2019
6243.00,1.2032
6242.00,1.2040
6241.00,1.2045
6240.00,1.2047
6239.00,1.2051
6238.00,1.2056
6237.00,1.2060
6236.00,1.2056
6235.00,1.2041
6234.00,1.2020
6233.00,1.1995
6232.00,1.1968
6231.00,1.1939
6230.00,1.1908
6229.00,1.1877
6228.00,1.1846
6227.00,1.1811
6226.00,1.1769
6225.00,1.1724
6224.00,1.1675
6223.00,1.1622
6222.00,1.1565
6221.00,1.1503
6220.00,1.1439
6219.00,1.1372
6218.00,1.1303
6217.00,1.1231
6216.00,1.1156
6215.00,1.1074
6214.00,1.0988
6213.00,1.0898
6212.00,1.0806
6211.00,1.0711
6210.00,1.0614
6209.00,1.0517
6208.00,1.0420
6207.00,1.0322
6206.00,1.0221
6205.00,1.0119
6204.00,1.0015
6203.00,0.9909
6202.00,0.9800
6201.00,0.9689
6200.00,0.9577
6199.00,0.9464
6198.00,0.9349
6197.00,0.9234
6196.00,0.9120
6195.00,0.9007
6194.00,0.8896
6193.00,0.8788
6192.00,0.8682
6191.00,0.8578
6190.00,0.8476
6189.00,0.8376
6188.00,0.8277
6187.00,0.8181
6186.00,0.8088
6185.00,0.7999
6184.00,0.7913
6183.00,0.7833
6182.00,0.7758
6181.00,0.7690
6180.00,0.7626
6179.00,0.7567
6178.00,0.7513
6177.00,0.7464
6176.00,0.7420
6175.00,0.7379
6174.00,0.7344
6173.00,0.7317
6172.00,0.7296
6171.00,0.7281
6170.00,0.7273
6169.00,0.7271
6168.00,0.7275
6167.00,0.7285
6166.00,0.7300
6165.00,0.7321
6164.00,0.7347
6163.00,0.7380
6162.00,0.7418
6161.00,0.7463
6160.00,0.7512
6159.00,0.7566
6158.00,0.7625
6157.00,0.7688
6156.00,0.7756
6155.00,0.7827
6154.00,0.7902
6153.00,0.7980
6152.00,0.8060
6151.00,0.8143
6150.00,0.8229
6149.00,0.8317
6148.00,0.8408
6147.00,0.8501
6146.00,0.8596
6145.00,0.8693
6144.00,0.8790
6143.00,0.8887
6142.00,0.8984
6141.00,0.9082
6140.00,0.9182
6139.00,0.9282
6138.00,0.9382
6137.00,0.9482
6136.00,0.9582
6135.00,0.9683
6134.00,0.9784
6133.00,0.9886
6132.00,0.9986
6131.00,1.0085
6130.00,1.0182
6129.00,1.0279
6128.00,1.0373
6127.00,1.0463
6126.00,1.0550
6125.00,1.0634
6124.00,1.0718
6123.00,1.0802
6122.00,1.0882
6121.00,1.0959
6120.00,1.1033
6119.00,1.1104
6118.00,1.1174
6117.00,1.1243
6116.00,1.1309
6115.00,1.1375
6114.00,1.1438
6113.00,1.1497
6112.00,1.1550
6111.00,1.1595
6110.00,1.1635
6109.00,1.1673
6108.00,1.1710
6107.00,1.1747
6106.00,1.1780
6105.00,1.1809
6104.00,1.1832
6103.00,1.1850
6102.00,1.1865
6101.00,1.1875
6100.00,1.1885
6099.00,1.1893
6098.00,1.1900
6097.00,1.1903
6096.00,1.1900
6095.00,1.1892
6094.00,1.1879
6093.00,1.1863
6092.00,1.1842
6091.00,1.1820
6090.00,1.1797
6089.00,1.1772
6088.00,1.1742
6087.00,1.1708
6086.00,1.1671
6085.00,1.1633
6084.00,1.1592
6083.00,1.1547
6082.00,1.1500
6081.00,1.1449
6080.00,1.1392
6079.00,1.1331
6078.00,1.1267
6077.00,1.1204
6076.00,1.1138
6075.00,1.1068
6074.00,1.0993
6073.00,1.0915
6072.00,1.0833
6071.00,1.0747
6070.00,1.0658
6069.00,1.0568
6068.00,1.0477
6067.00,1.0383
6066.00,1.0287
6065.00,1.0189
6064.00,1.0092
6063.00,0.9994
6062.00,0.9895
6061.00,0.9793
6060.00,0.9687
6059.00,0.9579
6058.00,0.9468
6057.00,0.9356
6056.00,0.9245
6055.00,0.9135
6054.00,0.9026
6053.00,0.8919
6052.00,0.8811
6051.00,0.8701
6050.00,0.8592
6049.00,0.8484
6048.00,0.8377
6047.00,0.8273
6046.00,0.8172
6045.00,0.8074
6044.00,0.7980
6043.00,0.7887
6042.00,0.7798
6041.00,0.7713
6040.00,0.7632
6039.00,0.7554
6038.00,0.7482
6037.00,0.7416
6036.00,0.7354
6035.00,0.7298
6034.00,0.7246
6033.00,0.7201
6032.00,0.7161
6031.00,0.7128
6030.00,0.7100
6029.00,0.7079
6028.00,0.7065
6027.00,0.7057
6026.00,0.7057
6025.00,0.7063
6024.00,0.7075
6023.00,0.7093
6022.00,0.7117
6021.00,0.7147
6020.00,0.7183
6019.00,0.7223
6018.00,0.7269
6017.00,0.7321
6016.00,0.7378
6015.00,0.7439
6014.00,0.7506
6013.00,0.7577
6012.00,0.7653
6011.00,0.7731
6010.00,0.7813
6009.00,0.7899
6008.00,0.7987
6007.00,0.8078
6006.00,0.8171
6005.00,0.8268
6004.00,0.8367
6003.00,0.8467
6002.00,0.8567
6001.00,0.8669
6000.00,0.8771
5999.00,0.8874
5998.00,0.8978
5997.00,0.9082
5996.00,0.9186
5995.00,0.9290
5994.00,0.9394
5993.00,0.9500
5992.00,0.9605
5991.00,0.9711
5990.00,0.9816
5989.00,0.9919
5988.00,1.0020
5987.00,1.0119
5986.00,1.0217
5985.00,1.0314
5984.00,1.0411
5983.00,1.0506
5982.00,1.0599
5981.00,1.0690
5980.00,1.0778
5979.00,1.0864
5978.00,1.0949
5977.00,1.1032
5976.00,1.1113
5975.00,1.1191
5974.00,1.1265
5973.00,1.1337
5972.00,1.1406
5971.00,1.1475
5970.00,1.1543
5969.00,1.1608
5968.00,1.1667
5967.00,1.1719
5966.00,1.1766
5965.00,1.1811
5964.00,1.1853
5963.00,1.1893
5962.00,1.1930
5961.00,1.1967
5960.00,1.2000
5959.00,1.2028
5958.00,1.2052
5957.00,1.2074
5956.00,1.2096
5955.00,1.2116
5954.00,1.2132
5953.00,1.2141
5952.00,1.2143
5951.00,1.2138
5950.00,1.2127
5949.00,1.2112
5948.00,1.2094
5947.00,1.2074
5946.00,1.2051
5945.00,1.2025
5944.00,1.1995
5943.00,1.1960
5942.00,1.1918
5941.00,1.1874
5940.00,1.1827
5939.00,1.1778
5938.00,1.1727
5937.00,1.1674
5936.00,1.1619
5935.00,1.1560
5934.00,1.1496
5933.00,1.1426
5932.00,1.1353
5931.00,1.1277
5930.00,1.1199
5929.00,1.1118
5928.00,1.1035
5927.00,1.0947
5926.00,1.0854
5925.00,1.0758
5924.00,1.0659
5923.00,1.0557
5922.00,1.0454
5921.00,1.0349
5920.00,1.0240
5919.00,1.0130
5918.00,1.0018
5917.00,0.9906
5916.00,0.9791
5915.00,0.9674
5914.00,0.9555
5913.00,0.9435
5912.00,0.9313
5911.00,0.9191
5910.00,0.9069
5909.00,0.8949
5908.00,0.8831
5907.00,0.8714
5906.00,0.8598
5905.00,0.8482
5904.00,0.8368
5903.00,0.8256
5902.00,0.8147
5901.00,0.8042
5900.00,0.7940
5899.00,0.7842
5898.00,0.7748
5897.00,0.7659
5896.00,0.7573
5895.00,0.7492
5894.00,0.7416
5893.00,0.7346
5892.00,0.7281
5891.00,0.7222
5890.00,0.7169
5889.00,0.7123
5888.00,0.7084
5887.00,0.7052
5886.00,0.7027
5885.00,0.7010
5884.00,0.6999
5883.00,0.6995
5882.00,0.6996
5881.00,0.7004
5880.00,0.7019
5879.00,0.7041
5878.00,0.7069
5877.00,0.7103
5876.00,0.7143
5875.00,0.7187
5874.00,0.7237
5873.00,0.7294
5872.00,0.7356
5871.00,0.7423
5870.00,0.7495
5869.00,0.7572
5868.00,0.7653
5867.00,0.7738
5866.00,0.7825
5865.00,0.7916
5864.00,0.8010
5863.00,0.8106
5862.00,0.8203
5861.00,0.8303
5860.00,0.8407
5859.00,0.8514
5858.00,0.8623
5857.00,0.8733
5856.00,0.8843
5855.00,0.8954
5854.00,0.9066
5853.00,0.9178
5852.00,0.9290
5851.00,0.9401
5850.00,0.9511
5849.00,0.9620
5848.00,0.9728
5847.00,0.9836
5846.00,0.9946
5845.00,1.0057
5844.00,1.0168
5843.00,1.0276
5842.00,1.0381
5841.00,1.0481
5840.00,1.0577
5839.00,1.0671
5838.00,1.0763
5837.00,1.0856
5836.00,1.0946
5835.00,1.1034
5834.00,1.1118
5833.00,1.1200
5832.00,1.1278
5831.00,1.1353
5830.00,1.1424
5829.00,1.1493
5828.00,1.1560
5827.00,1.1622
5826.00,1.1679
5825.00,1.1731
5824.00,1.1781
5823.00,1.1830
5822.00,1.1877
5821.00,1.1920
5820.00,1.1958
5819.00,1.1993
5818.00,1.2025
5817.00,1.2054
5816.00,1.2077
5815.00,1.2095
5814.00,1.2113
5813.00,1.2129
5812.00,1.2143
5811.00,1.2151
5810.00,1.2157
5809.00,1.2161
5808.00,1.2163
5807.00,1.2157
5806.00,1.2144
5805.00,1.2127
5804.00,1.2107
5803.00,1.2084
5802.00,1.2058
5801.00,1.2031
5800.00,1.2001
5799.00,1.1968
5798.00,1.1932
5797.00,1.1892
5796.00,1.1848
5795.00,1.1800
5794.00,1.1750
5793.00,1.1697
5792.00,1.1639
5791.00,1.1574
5790.00,1.1503
5789.00,1.1430
5788.00,1.1354
5787.00,1.1276
5786.00,1.1195
5785.00,1.1111
5784.00,1.1025
5783.00,1.0935
5782.00,1.0841
5781.00,1.0743
5780.00,1.0643
5779.00,1.0540
5778.00,1.0433
5777.00,1.0324
5776.00,1.0212
5775.00,1.0097
5774.00,0.9981
5773.00,0.9864
5772.00,0.9746
5771.00,0.9624
5770.00,0.9499
5769.00,0.9375
5768.00,0.9251
5767.00,0.9128
5766.00,0.9005
5765.00,0.8883
5764.00,0.8760
5763.00,0.8637
5762.00,0.8513
5761.00,0.8391
5760.00,0.8271
5759.00,0.8155
5758.00,0.8043
5757.00,0.7936
5756.00,0.7833
5755.00,0.7734
5754.00,0.7638
5753.00,0.7546
5752.00,0.7458
5751.00,0.7375
5750.00,0.7299
5749.00,0.7228
5748.00,0.7163
5747.00,0.7104
5746.00,0.7051
5745.00,0.7005
5744.00,0.6965
5743.00,0.6930
5742.00,0.6904
5741.00,0.6886
5740.00,0.6875
5739.00,0.6871
5738.00,0.6874
5737.00,0.6883
5736.00,0.6899
5735.00,0.6921
5734.00,0.6951
5733.00,0.6988
5732.00,0.7032
5731.00,0.7081
5730.00,0.7137
5729.00,0.7197
5728.00,0.7262
5727.00,0.7332
5726.00,0.7406
5725.00,0.7486
5724.00,0.7569
5723.00,0.7656
5722.00,0.7746
5721.00,0.7840
5720.00,0.7937
5719.00,0.8036
5718.00,0.8137
5717.00,0.8240
5716.00,0.8347
5715.00,0.8455
5714.00,0.8563
5713.00,0.8672
5712.00,0.8783
5711.00,0.8893
5710.00,0.9004
5709.00,0.9114
5708.00,0.9225
5707.00,0.9337
5706.00,0.9449
5705.00,0.9561
5704.00,0.9672
5703.00,0.9782
5702.00,0.9892
5701.00,1.0002
5700.00,1.0112
5699.00,1.0219
5698.00,1.0324
5697.00,1.0427
5696.00,1.0528
5695.00,1.0625
5694.00,1.0720
5693.00,1.0814
5692.00,1.0908
5691.00,1.1000
5690.00,1.1089
5689.00,1.1175
5688.00,1.1258
5687.00,1.1337
5686.00,1.1412
5685.00,1.1483
5684.00,1.1553
5683.00,1.1620
5682.00,1.1685
5681.00,1.1746
5680.00,1.1802
5679.00,1.1853
5678.00,1.1899
5677.00,1.1943
5676.00,1.1986
5675.00,1.2030
5674.00,1.2072
5673.00,1.2110
5672.00,1.2141
5671.00,1.2168
5670.00,1.2189
5669.00,1.2206
5668.00,1.2221
5667.00,1.2232
5666.00,1.2239
5665.00,1.2241
5664.00,1.2239
5663.00,1.2233
5662.00,1.2225
5661.00,1.2214
5660.00,1.2200
5659.00,1.2184
5658.00,1.2162
5657.00,1.2136
5656.00,1.2104
5655.00,1.2067
5654.00,1.2027
5653.00,1.1983
5652.00,1.1938
5651.00,1.1891
5650.00,1.1842
5649.00,1.1789
5648.00,1.1732
5647.00,1.1671
5646.00,1.1606
5645.00,1.1534
5644.00,1.1459
5643.00,1.1382
5642.00,1.1301
5641.00,1.1215
5640.00,1.1124
5639.00,1.1028
5638.00,1.0929
5637.00,1.0826
5636.00,1.0719
5635.00,1.0609
5634.00,1.0497
5633.00,1.0383
5632.00,1.0268
5631.00,1.0151
5630.00,1.0034
5629.00,0.9914
5628.00,0.9793
5627.00,0.9668
5626.00,0.9541
5625.00,0.9411
5624.00,0.9279
5623.00,0.9147
5622.00,0.9016
5621.00,0.8888
5620.00,0.8759
5619.00,0.8632
5618.00,0.8505
5617.00,0.8380
5616.00,0.8255
5615.00,0.8133
5614.00,0.8015
5613.00,0.7901
5612.00,0.7792
5611.00,0.7687
5610.00,0.7587
5609.00,0.7492
5608.00,0.7401
5607.00,0.7316
5606.00,0.7236
5605.00,0.7163
5604.00,0.7097
5603.00,0.7038
5602.00,0.6986
5601.00,0.6941
5600.00,0.6904
5599.00,0.6873
5598.00,0.6849
5597.00,0.6834
5596.00,0.6826
5595.00,0.6826
5594.00,0.6835
5593.00,0.6850
5592.00,0.6873
5591.00,0.6903
5590.00,0.6940
5589.00,0.6985
5588.00,0.7037
5587.00,0.7095
5586.00,0.7160
5585.00,0.7230
5584.00,0.7305
5583.00,0.7385
5582.00,0.7469
5581.00,0.7558
5580.00,0.7651
5579.00,0.7747
5578.00,0.7848
5577.00,0.7952
5576.00,0.8059
5575.00,0.8168
5574.00,0.8281
5573.00,0.8397
5572.00,0.8515
5571.00,0.8634
5570.00,0.8754
5569.00,0.8873
5568.00,0.8992
5567.00,0.9110
5566.00,0.9231
5565.00,0.9353
5564.00,0.9476
5563.00,0.9599
5562.00,0.9721
5561.00,0.9842
5560.00,0.9961
5559.00,1.0080
5558.00,1.0197
5557.00,1.0312
5556.00,1.0424
5555.00,1.0534
5554.00,1.0644
5553.00,1.0753
5552.00,1.0863
5551.00,1.0969
5550.00,1.1073
5549.00,1.1172
5548.00,1.1267
5547.00,1.1356
5546.00,1.1441
5545.00,1.1523
5544.00,1.1604
5543.00,1.1682
5542.00,1.1755
5541.00,1.1825
5540.00,1.1893
5539.00,1.1958
5538.00,1.2021
5537.00,1.2079
5536.00,1.2132
5535.00,1.2182
5534.00,1.2229
5533.00,1.2274
5532.00,1.2315
5531.00,1.2352
5530.00,1.2383
5529.00,1.2408
5528.00,1.2425
5527.00,1.2438
5526.00,1.2449
5525.00,1.2460
5524.00,1.2469
5523.00,1.2475
5522.00,1.2478
5521.00,1.2479
5520.00,1.2476
5519.00,1.2468
5518.00,1.2454
5517.00,1.2435
5516.00,1.2409
5515.00,1.2380
5514.00,1.2348
5513.00,1.2316
5512.00,1.2282
5511.00,1.2245
5510.00,1.2203
5509.00,1.2156
5508.00,1.2103
5507.00,1.2047
5506.00,1.1989
5505.00,1.1927
5504.00,1.1862
5503.00,1.1791
5502.00,1.1715
5501.00,1.1637
5500.00,1.1555
5499.00,1.1470
5498.00,1.1381
5497.00,1.1286
5496.00,1.1187
5495.00,1.1082
5494.00,1.0974
5493.00,1.0865
5492.00,1.0755
5491.00,1.0644
5490.00,1.0530
5489.00,1.0412
5488.00,1.0288
5487.00,1.0160
5486.00,1.0027
5485.00,0.9891
5484.00,0.9756
5483.00,0.9621
5482.00,0.9486
5481.00,0.9351
5480.00,0.9216
5479.00,0.9079
5478.00,0.8940
5477.00,0.8801
5476.00,0.8661
5475.00,0.8521
5474.00,0.8384
5473.00,0.8250
5472.00,0.8121
5471.00,0.7996
5470.00,0.7876
5469.00,0.7760
5468.00,0.7649
5467.00,0.7543
5466.00,0.7441
5465.00,0.7346
5464.00,0.7255
5463.00,0.7169
5462.00,0.7089
5461.00,0.7015
5460.00,0.6949
5459.00,0.6892
5458.00,0.6842
5457.00,0.6802
5456.00,0.6770
5455.00,0.6747
5454.00,0.6732
5453.00,0.6726
5452.00,0.6727
5451.00,0.6737
5450.00,0.6756
5449.00,0.6781
5448.00,0.6812
5447.00,0.6851
5446.00,0.6896
5445.00,0.6949
5444.00,0.7008
5443.00,0.7075
5442.00,0.7148
5441.00,0.7227
5440.00,0.7313
5439.00,0.7402
5438.00,0.7495
5437.00,0.7591
5436.00,0.7694
5435.00,0.7803
5434.00,0.7916
5433.00,0.8031
5432.00,0.8145
5431.00,0.8260
5430.00,0.8380
5429.00,0.8504
5428.00,0.8631
5427.00,0.8760
5426.00,0.8890
5425.00,0.9021
5424.00,0.9152
5423.00,0.9284
5422.00,0.9416
5421.00,0.9546
5420.00,0.9673
5419.00,0.9799
5418.00,0.9922
5417.00,1.0044
5416.00,1.0164
5415.00,1.0283
5414.00,1.0403
5413.00,1.0522
5412.00,1.0639
5411.00,1.0756
5410.00,1.0872
5409.00,1.0987
5408.00,1.1101
5407.00,1.1212
5406.00,1.1319
5405.00,1.1421
5404.00,1.1519
5403.00,1.1614
5402.00,1.1706
5401.00,1.1792
5400.00,1.1874
5399.00,1.1951
5398.00,1.2026
5397.00,1.2098
5396.00,1.2166
5395.00,1.2230
5394.00,1.2292
5393.00,1.2351
5392.00,1.2407
5391.00,1.2457
5390.00,1.2503
5389.00,1.2545
5388.00,1.2584
5387.00,1.2620
5386.00,1.2652
5385.00,1.2682
5384.00,1.2708
5383.00,1.2730
5382.00,1.2747
5381.00,1.2758
5380.00,1.2763
5379.00,1.2765
5378.00,1.2764
5377.00,1.2761
5376.00,1.2756
5375.00,1.2748
5374.00,1.2735
5373.00,1.2716
5372.00,1.2693
5371.00,1.2666
5370.00,1.2637
5369.00,1.2605
5368.00,1.2571
5367.00,1.2534
5366.00,1.2493
5365.00,1.2446
5364.00,1.2393
5363.00,1.2336
5362.00,1.2275
5361.00,1.2212
5360.00,1.2145
5359.00,1.2073
5358.00,1.1997
5357.00,1.1915
5356.00,1.1829
5355.00,1.1738
5354.00,1.1642
5353.00,1.1543
5352.00,1.1439
5351.00,1.1333
5350.00,1.1227
5349.00,1.1120
5348.00,1.1010
5347.00,1.0894
5346.00,1.0772
5345.00,1.0643
5344.00,1.0509
5343.00,1.0373
5342.00,1.0237
5341.00,1.0102
5340.00,0.9968
5339.00,0.9832
5338.00,0.9692
5337.00,0.9547
5336.00,0.9400
5335.00,0.9255
5334.00,0.9113
5333.00,0.8975
5332.00,0.8838
5331.00,0.8700
5330.00,0.8563
5329.00,0.8427
5328.00,0.8294
5327.00,0.8166
5326.00,0.8040
5325.00,0.7919
5324.00,0.7803
5323.00,0.7692
5322.00,0.7588
5321.00,0.7491
5320.00,0.7401
5319.00,0.7316
5318.00,0.7239
5317.00,0.7170
5316.00,0.7109
5315.00,0.7055
5314.00,0.7009
5313.00,0.6972
5312.00,0.6943
5311.00,0.6922
5310.00,0.6910
5309.00,0.6908
5308.00,0.6914
5307.00,0.6928
5306.00,0.6950
5305.00,0.6981
5304.00,0.7019
5303.00,0.7067
5302.00,0.7123
5301.00,0.7188
5300.00,0.7260
5299.00,0.7337
5298.00,0.7420
5297.00,0.7509
5296.00,0.7602
5295.00,0.7701
5294.00,0.7803
5293.00,0.7910
5292.00,0.8021
5291.00,0.8136
5290.00,0.8255
5289.00,0.8377
5288.00,0.8501
5287.00,0.8627
5286.00,0.8757
5285.00,0.8888
5284.00,0.9021
5283.00,0.9154
5282.00,0.9287
5281.00,0.9422
5280.00,0.9558
5279.00,0.9695
5278.00,0.9830
5277.00,0.9964
5276.00,1.0095
5275.00,1.0226
5274.00,1.0357
5273.00,1.0488
5272.00,1.0618
5271.00,1.0744
5270.00,1.0866
5269.00,1.0985
5268.00,1.1099
5267.00,1.1211
5266.00,1.1320
5265.00,1.1429
5264.00,1.1538
5263.00,1.1645
5262.00,1.1750
5261.00,1.1852
5260.00,1.1950
5259.00,1.2043
5258.00,1.2133
5257.00,1.2217
5256.00,1.2297
5255.00,1.2372
5254.00,1.2443
5253.00,1.2510
5252.00,1.2574
5251.00,1.2634
5250.00,1.2691
5249.00,1.2745
5248.00,1.2794
5247.00,1.2839
5246.00,1.2879
5245.00,1.2918
5244.00,1.2956
5243.00,1.2991
5242.00,1.3021
5241.00,1.3045
5240.00,1.3064
5239.00,1.3077
5238.00,1.3086
5237.00,1.3090
5236.00,1.3090
5235.00,1.3088
5234.00,1.3086
5233.00,1.3080
5232.00,1.3070
5231.00,1.3054
5230.00,1.3033
5229.00,1.3008
5228.00,1.2980
5227.00,1.2950
5226.00,1.2918
5225.00,1.2880
5224.00,1.2835
5223.00,1.2783
5222.00,1.2727
5221.00,1.2669
5220.00,1.2611
5219.00,1.2552
5218.00,1.2490
5217.00,1.2424
5216.00,1.2352
5215.00,1.2275
5214.00,1.2193
5213.00,1.2106
5212.00,1.2013
5211.00,1.1916
5210.00,1.1814
5209.00,1.1707
5208.00,1.1596
5207.00,1.1481
5206.00,1.1363
5205.00,1.1244
5204.00,1.1122
5203.00,1.0998
5202.00,1.0872
5201.00,1.0744
5200.00,1.0614
5199.00,1.0482
5198.00,1.0349
5197.00,1.0213
5196.00,1.0076
5195.00,0.9934
5194.00,0.9790
5193.00,0.9643
5192.00,0.9495
5191.00,0.9344
5190.00,0.9192
5189.00,0.9040
5188.00,0.8888
5187.00,0.8737
5186.00,0.8587
5185.00,0.8440
5184.00,0.8297
5183.00,0.8158
5182.00,0.8024
5181.00,0.7896
5180.00,0.7774
5179.00,0.7658
5178.00,0.7548
5177.00,0.7445
5176.00,0.7350
5175.00,0.7262
5174.00,0.7182
5173.00,0.7112
5172.00,0.7051
5171.00,0.6999
5170.00,0.6955
5169.00,0.6920
5168.00,0.6894
5167.00,0.6877
5166.00,0.6870
5165.00,0.6873
5164.00,0.6885
5163.00,0.6906
5162.00,0.6936
5161.00,0.6974
5160.00,0.7020
5159.00,0.7073
5158.00,0.7135
5157.00,0.7206
5156.00,0.7284
5155.00,0.7369
5154.00,0.7461
5153.00,0.7560
5152.00,0.7663
5151.00,0.7771
5150.00,0.7882
5149.00,0.7998
5148.00,0.8117
5147.00,0.8240
5146.00,0.8366
5145.00,0.8496
5144.00,0.8629
5143.00,0.8765
5142.00,0.8902
5141.00,0.9041
5140.00,0.9181
5139.00,0.9322
5138.00,0.9464
5137.00,0.9607
5136.00,0.9749
5135.00,0.9891
5134.00,1.0030
5133.00,1.0170
5132.00,1.0310
5131.00,1.0449
5130.00,1.0588
5129.00,1.0725
5128.00,1.0859
5127.00,1.0990
5126.00,1.1118
5125.00,1.1245
5124.00,1.1370
5123.00,1.1493
5122.00,1.1612
5121.00,1.1726
5120.00,1.1834
5119.00,1.1938
5118.00,1.2040
5117.00,1.2139
5116.00,1.2238
5115.00,1.2334
5114.00,1.2428
5113.00,1.2518
5112.00,1.2604
5111.00,1.2686
5110.00,1.2764
5109.00,1.2836
5108.00,1.2902
5107.00,1.2963
5106.00,1.3021
5105.00,1.3076
5104.00,1.3128
5103.00,1.3174
5102.00,1.3215
5101.00,1.3252
5100.00,1.3286
5099.00,1.3318
5098.00,1.3350
5097.00,1.3379
5096.00,1.3401
5095.00,1.3415
5094.00,1.3422
5093.00,1.3425
5092.00,1.3425
5091.00,1.3421
5090.00,1.3414
5089.00,1.3405
5088.00,1.3393
5087.00,1.3378
5086.00,1.3359
5085.00,1.3338
5084.00,1.3313
5083.00,1.3282
5082.00,1.3246
5081.00,1.3206
5080.00,1.3161
5079.00,1.3112
5078.00,1.3059
5077.00,1.3002
5076.00,1.2942
5075.00,1.2877
5074.00,1.2809
5073.00,1.2737
5072.00,1.2661
5071.00,1.2580
5070.00,1.2493
5069.00,1.2402
5068.00,1.2307
5067.00,1.2209
5066.00,1.2107
5065.00,1.2002
5064.00,1.1892
5063.00,1.1778
5062.00,1.1658
5061.00,1.1533
5060.00,1.1404
5059.00,1.1270
5058.00,1.1134
5057.00,1.0995
5056.00,1.0854
5055.00,1.0711
5054.00,1.0564
5053.00,1.0415
5052.00,1.0263
5051.00,1.0108
5050.00,0.9952
5049.00,0.9795
5048.00,0.9637
5047.00,0.9478
5046.00,0.9319
5045.00,0.9160
5044.00,0.9002
5043.00,0.8847
5042.00,0.8694
5041.00,0.8545
5040.00,0.8400
5039.00,0.8259
5038.00,0.8124
5037.00,0.7994
5036.00,0.7871
5035.00,0.7753
5034.00,0.7642
5033.00,0.7538
5032.00,0.7442
5031.00,0.7353
5030.00,0.7273
5029.00,0.7203
5028.00,0.7142
5027.00,0.7090
5026.00,0.7048
5025.00,0.7017
5024.00,0.6997
5023.00,0.6987
5022.00,0.6987
5021.00,0.6998
5020.00,0.7018
5019.00,0.7047
5018.00,0.7086
5017.00,0.7134
5016.00,0.7192
5015.00,0.7258
5014.00,0.7333
5013.00,0.7416
5012.00,0.7506
5011.00,0.7603
5010.00,0.7707
5009.00,0.7817
5008.00,0.7932
5007.00,0.8051
5006.00,0.8175
5005.00,0.8303
5004.00,0.8436
5003.00,0.8572
5002.00,0.8712
5001.00,0.8854
5000.00,0.8997
4999.00,0.9142
4998.00,0.9288
4997.00,0.9435
4996.00,0.9583
4995.00,0.9731
4994.00,0.9879
4993.00,1.0026
4992.00,1.0172
4991.00,1.0317
4990.00,1.0461
4989.00,1.0604
4988.00,1.0748
4987.00,1.0891
4986.00,1.1032
4985.00,1.1172
4984.00,1.1308
4983.00,1.1442
4982.00,1.1572
4981.00,1.1700
4980.00,1.1825
4979.00,1.1945
4978.00,1.2059
4977.00,1.2168
4976.00,1.2273
4975.00,1.2377
4974.00,1.2481
4973.00,1.2584
4972.00,1.2686
4971.00,1.2784
4970.00,1.2876
4969.00,1.2962
4968.00,1.3041
4967.00,1.3115
4966.00,1.3184
4965.00,1.3249
4964.00,1.3311
4963.00,1.3370
4962.00,1.3425
4961.00,1.3477
4960.00,1.3525
4959.00,1.3567
4958.00,1.3604
4957.00,1.3638
4956.00,1.3667
4955.00,1.3691
4954.00,1.3712
4953.00,1.3728
4952.00,1.3740
4951.00,1.3748
4950.00,1.3755
4949.00,1.3759
4948.00,1.3760
4947.00,1.3755
4946.00,1.3743
4945.00,1.3727
4944.00,1.3707
4943.00,1.3686
4942.00,1.3661
4941.00,1.3633
4940.00,1.3598
4939.00,1.3557
4938.00,1.3511
4937.00,1.3462
4936.00,1.3411
4935.00,1.3356
4934.00,1.3297
4933.00,1.3235
4932.00,1.3169
4931.00,1.3098
4930.00,1.3023
4929.00,1.2943
4928.00,1.2858
4927.00,1.2769
4926.00,1.2674
4925.00,1.2575
4924.00,1.2470
4923.00,1.2361
4922.00,1.2248
4921.00,1.2131
4920.00,1.2011
4919.00,1.1887
4918.00,1.1758
4917.00,1.1625
4916.00,1.1488
4915.00,1.1347
4914.00,1.1202
4913.00,1.1053
4912.00,1.0902
4911.00,1.0746
4910.00,1.0587
4909.00,1.0425
4908.00,1.0260
4907.00,1.0094
4906.00,0.9927
4905.00,0.9761
4904.00,0.9596
4903.00,0.9430
4902.00,0.9264
4901.00,0.9099
4900.00,0.8935
4899.00,0.8775
4898.00,0.8618
4897.00,0.8465
4896.00,0.8317
4895.00,0.8174
4894.00,0.8036
4893.00,0.7905
4892.00,0.7780
4891.00,0.7662
4890.00,0.7553
4889.00,0.7451
4888.00,0.7359
4887.00,0.7275
4886.00,0.7201
4885.00,0.7137
4884.00,0.7084
4883.00,0.7041
4882.00,0.7008
4881.00,0.6987
4880.00,0.6976
4879.00,0.6975
4878.00,0.6986
4877.00,0.7009
4876.00,0.7041
4875.00,0.7084
4874.00,0.7136
4873.00,0.7197
4872.00,0.7268
4871.00,0.7347
4870.00,0.7436
4869.00,0.7532
4868.00,0.7635
4867.00,0.7745
4866.00,0.7861
4865.00,0.7983
4864.00,0.8110
4863.00,0.8240
4862.00,0.8376
4861.00,0.8516
4860.00,0.8661
4859.00,0.8809
4858.00,0.8959
4857.00,0.9111
4856.00,0.9263
4855.00,0.9416
4854.00,0.9570
4853.00,0.9727
4852.00,0.9885
4851.00,1.0044
4850.00,1.0202
4849.00,1.0359
4848.00,1.0516
4847.00,1.0671
4846.00,1.0825
4845.00,1.0977
4844.00,1.1126
4843.00,1.1273
4842.00,1.1418
4841.00,1.1560
4840.00,1.1701
4839.00,1.1841
4838.00,1.1979
4837.00,1.2113
4836.00,1.2242
4835.00,1.2366
4834.00,1.2484
4833.00,1.2598
4832.00,1.2710
4831.00,1.2818
4830.00,1.2924
4829.00,1.3025
4828.00,1.3122
4827.00,1.3215
4826.00,1.3303
4825.00,1.3386
4824.00,1.3464
4823.00,1.3538
4822.00,1.3607
4821.00,1.3672
4820.00,1.3733
4819.00,1.3790
4818.00,1.3843
4817.00,1.3892
4816.00,1.3936
4815.00,1.3978
4814.00,1.4015
4813.00,1.4048
4812.00,1.4076
4811.00,1.4100
4810.00,1.4120
4809.00,1.4138
4808.00,1.4153
4807.00,1.4164
4806.00,1.4171
4805.00,1.4172
4804.00,1.4168
4803.00,1.4160
4802.00,1.4148
4801.00,1.4129
4800.00,1.4104
4799.00,1.4074
4798.00,1.4042
4797.00,1.4009
4796.00,1.3974
4795.00,1.3938
4794.00,1.3897
4793.00,1.3851
4792.00,1.3799
4791.00,1.3742
4790.00,1.3680
4789.00,1.3613
4788.00,1.3543
4787.00,1.3467
4786.00,1.3386
4785.00,1.3300
4784.00,1.3209
4783.00,1.3116
4782.00,1.3020
4781.00,1.2921
4780.00,1.2815
4779.00,1.2704
4778.00,1.2586
4777.00,1.2463
4776.00,1.2336
4775.00,1.2206
4774.00,1.2072
4773.00,1.1933
4772.00,1.1791
4771.00,1.1643
4770.00,1.1491
4769.00,1.1336
4768.00,1.1176
4767.00,1.1013
4766.00,1.0847
4765.00,1.0677
4764.00,1.0505
4763.00,1.0329
4762.00,1.0152
4761.00,0.9974
4760.00,0.9796
4759.00,0.9619
4758.00,0.9444
4757.00,0.9270
4756.00,0.9097
4755.00,0.8925
4754.00,0.8758
4753.00,0.8594
4752.00,0.8435
4751.00,0.8282
4750.00,0.8135
4749.00,0.7996
4748.00,0.7865
4747.00,0.7743
4746.00,0.7629
4745.00,0.7525
4744.00,0.7430
4743.00,0.7346
4742.00,0.7273
4741.00,0.7211
4740.00,0.7161
4739.00,0.7122
4738.00,0.7096
4737.00,0.7083
4736.00,0.7083
4735.00,0.7094
4734.00,0.7116
4733.00,0.7149
4732.00,0.7193
4731.00,0.7248
4730.00,0.7313
4729.00,0.7389
4728.00,0.7474
4727.00,0.7569
4726.00,0.7671
4725.00,0.7782
4724.00,0.7900
4723.00,0.8025
4722.00,0.8155
4721.00,0.8291
4720.00,0.8432
4719.00,0.8577
4718.00,0.8727
4717.00,0.8880
4716.00,0.9035
4715.00,0.9194
4714.00,0.9354
4713.00,0.9516
4712.00,0.9678
4711.00,0.9842
4710.00,1.0008
4709.00,1.0175
4708.00,1.0342
4707.00,1.0510
4706.00,1.0677
4705.00,1.0842
4704.00,1.1006
4703.00,1.1167
4702.00,1.1326
4701.00,1.1483
4700.00,1.1639
4699.00,1.1792
4698.00,1.1942
4697.00,1.2089
4696.00,1.2232
4695.00,1.2372
4694.00,1.2508
4693.00,1.2641
4692.00,1.2770
4691.00,1.2894
4690.00,1.3012
4689.00,1.3125
4688.00,1.3232
4687.00,1.3335
4686.00,1.3435
4685.00,1.3534
4684.00,1.3629
4683.00,1.3719
4682.00,1.3802
4681.00,1.3880
4680.00,1.3953
4679.00,1.4025
4678.00,1.4095
4677.00,1.4161
4676.00,1.4220
4675.00,1.4273
4674.00,1.4319
4673.00,1.4360
4672.00,1.4397
4671.00,1.4431
4670.00,1.4462
4669.00,1.4491
4668.00,1.4516
4667.00,1.4538
4666.00,1.4555
4665.00,1.4566
4664.00,1.4572
4663.00,1.4572
4662.00,1.4567
4661.00,1.4558
4660.00,1.4545
4659.00,1.4528
4658.00,1.4507
4657.00,1.4485
4656.00,1.4458
4655.00,1.4428
4654.00,1.4393
4653.00,1.4356
4652.00,1.4313
4651.00,1.4266
4650.00,1.4212
4649.00,1.4154
4648.00,1.4091
4647.00,1.4024
4646.00,1.3953
4645.00,1.3877
4644.00,1.3796
4643.00,1.3709
4642.00,1.3616
4641.00,1.3519
4640.00,1.3419
4639.00,1.3315
4638.00,1.3208
4637.00,1.3096
4636.00,1.2978
4635.00,1.2855
4634.00,1.2728
4633.00,1.2596
4632.00,1.2460
4631.00,1.2321
4630.00,1.2178
4629.00,1.2030
4628.00,1.1878
4627.00,1.1722
4626.00,1.1561
4625.00,1.1399
4624.00,1.1234
4623.00,1.1068
4622.00,1.0899
4621.00,1.0726
4620.00,1.0549
4619.00,1.0369
4618.00,1.0187
4617.00,1.0004
4616.00,0.9822
4615.00,0.9641
4614.00,0.9461
4613.00,0.9282
4612.00,0.9105
4611.00,0.8931
4610.00,0.8760
4609.00,0.8594
4608.00,0.8433
4607.00,0.8280
4606.00,0.8134
4605.00,0.7996
4604.00,0.7868
4603.00,0.7749
4602.00,0.7639
4601.00,0.7540
4600.00,0.7451
4599.00,0.7374
4598.00,0.7310
4597.00,0.7259
4596.00,0.7220
4595.00,0.7195
4594.00,0.7182
4593.00,0.7183
4592.00,0.7197
4591.00,0.7224
4590.00,0.7263
4589.00,0.7315
4588.00,0.7378
4587.00,0.7451
4586.00,0.7536
4585.00,0.7632
4584.00,0.7737
4583.00,0.7851
4582.00,0.7973
4581.00,0.8101
4580.00,0.8236
4579.00,0.8377
4578.00,0.8523
4577.00,0.8674
4576.00,0.8830
4575.00,0.8991
4574.00,0.9155
4573.00,0.9322
4572.00,0.9490
4571.00,0.9660
4570.00,0.9831
4569.00,1.0005
4568.00,1.0179
4567.00,1.0354
4566.00,1.0530
4565.00,1.0705
4564.00,1.0880
4563.00,1.1053
4562.00,1.1225
4561.00,1.1395
4560.00,1.1563
4559.00,1.1731
4558.00,1.1897
4557.00,1.2060
4556.00,1.2220
4555.00,1.2375
4554.00,1.2525
4553.00,1.2672
4552.00,1.2816
4551.00,1.2956
4550.00,1.3091
4549.00,1.3221
4548.00,1.3347
4547.00,1.3468
4546.00,1.3587
4545.00,1.3704
4544.00,1.3815
4543.00,1.3919
4542.00,1.4016
4541.00,1.4108
4540.00,1.4197
4539.00,1.4283
4538.00,1.4366
4537.00,1.4442
4536.00,1.4513
4535.00,1.4577
4534.00,1.4638
4533.00,1.4696
4532.00,1.4750
4531.00,1.4799
4530.00,1.4843
4529.00,1.4884
4528.00,1.4922
4527.00,1.4954
4526.00,1.4982
4525.00,1.5004
4524.00,1.5022
4523.00,1.5035
4522.00,1.5045
4521.00,1.5050
4520.00,1.5051
4519.00,1.5048
4518.00,1.5040
4517.00,1.5029
4516.00,1.5014
4515.00,1.4996
4514.00,1.4975
4513.00,1.4951
4512.00,1.4923
4511.00,1.4890
4510.00,1.4850
4509.00,1.4805
4508.00,1.4756
4507.00,1.4704
4506.00,1.4649
4505.00,1.4588
4504.00,1.4521
4503.00,1.4449
4502.00,1.4372
4501.00,1.4291
4500.00,1.4206
4499.00,1.4116
4498.00,1.4020
4497.00,1.3918
4496.00,1.3812
4495.00,1.3701
4494.00,1.3586
4493.00,1.3467
4492.00,1.3343
4491.00,1.3212
4490.00,1.3077
4489.00,1.2937
4488.00,1.2794
4487.00,1.2647
4486.00,1.2497
4485.00,1.2341
4484.00,1.2180
4483.00,1.2012
4482.00,1.1840
4481.00,1.1664
4480.00,1.1486
4479.00,1.1305
4478.00,1.1121
4477.00,1.0935
4476.00,1.0747
4475.00,1.0558
4474.00,1.0370
4473.00,1.0184
4472.00,0.9999
4471.00,0.9816
4470.00,0.9637
4469.00,0.9461
4468.00,0.9290
4467.00,0.9125
4466.00,0.8967
4465.00,0.8818
4464.00,0.8678
4463.00,0.8549
4462.00,0.8432
4461.00,0.8326
4460.00,0.8233
4459.00,0.8152
4458.00,0.8085
4457.00,0.8032
4456.00,0.7995
4455.00,0.7972
4454.00,0.7965
4453.00,0.7974
4452.00,0.7996
4451.00,0.8033
4450.00,0.8083
4449.00,0.8145
4448.00,0.8219
4447.00,0.8304
4446.00,0.8399
4445.00,0.8501
4444.00,0.8610
4443.00,0.8723
4442.00,0.8837
4441.00,0.8954
4440.00,0.9070
4439.00,0.9186
4438.00,0.9301
4437.00,0.9413
4436.00,0.9523
4435.00,0.9631
4434.00,0.9740
4433.00,0.9849
4432.00,0.9961
4431.00,1.0076
4430.00,1.0196
4429.00,1.0320
4428.00,1.0450
4427.00,1.0586
4426.00,1.0727
4425.00,1.0874
4424.00,1.1026
4423.00,1.1182
4422.00,1.1341
4421.00,1.1504
4420.00,1.1669
4419.00,1.1835
4418.00,1.2003
4417.00,1.2170
4416.00,1.2337
4415.00,1.2502
4414.00,1.2665
4413.00,1.2828
4412.00,1.2987
4411.00,1.3144
4410.00,1.3296
4409.00,1.3444
4408.00,1.3588
4407.00,1.3729
4406.00,1.3866
4405.00,1.3999
4404.00,1.4126
4403.00,1.4246
4402.00,1.4361
4401.00,1.4471
4400.00,1.4576
4399.00,1.4677
4398.00,1.4771
4397.00,1.4856
4396.00,1.4933
4395.00,1.5005
4394.00,1.5074
4393.00,1.5142
4392.00,1.5205
4391.00,1.5261
4390.00,1.5312
4389.00,1.5360
4388.00,1.5406
4387.00,1.5450
4386.00,1.5490
4385.00,1.5526
4384.00,1.5557
4383.00,1.5585
4382.00,1.5611
4381.00,1.5634
4380.00,1.5655
4379.00,1.5674
4378.00,1.5689
4377.00,1.5700
4376.00,1.5705
4375.00,1.5704
4374.00,1.5700
4373.00,1.5694
4372.00,1.5687
4371.00,1.5677
4370.00,1.5664
4369.00,1.5647
4368.00,1.5624
4367.00,1.5595
4366.00,1.5559
4365.00,1.5520
4364.00,1.5479
4363.00,1.5437
4362.00,1.5392
4361.00,1.5343
4360.00,1.5290
4359.00,1.5231
4358.00,1.5166
4357.00,1.5094
4356.00,1.5014
4355.00,1.4928
4354.00,1.4837
4353.00,1.4742
4352.00,1.4643
4351.00,1.4539
4350.00,1.4429
4349.00,1.4313
4348.00,1.4191
4347.00,1.4063
4346.00,1.3930
4345.00,1.3792
4344.00,1.3648
4343.00,1.3499
4342.00,1.3345
4341.00,1.3186
4340.00,1.3021
4339.00,1.2849
4338.00,1.2673
4337.00,1.2491
4336.00,1.2305
4335.00,1.2116
4334.00,1.1924
4333.00,1.1728
4332.00,1.1528
4331.00,1.1325
4330.00,1.1119
4329.00,1.0912
4328.00,1.0707
4327.00,1.0504
4326.00,1.0304
4325.00,1.0109
4324.00,0.9918
4323.00,0.9730
4322.00,0.9547
4321.00,0.9368
4320.00,0.9193
4319.00,0.9021
4318.00,0.8854
4317.00,0.8692
4316.00,0.8537
4315.00,0.8389
4314.00,0.8250
4313.00,0.8122
4312.00,0.8006
4311.00,0.7904
4310.00,0.7816
4309.00,0.7744
4308.00,0.7688
4307.00,0.7649
4306.00,0.7625
4305.00,0.7618
4304.00,0.7628
4303.00,0.7653
4302.00,0.7694
4301.00,0.7751
4300.00,0.7822
4299.00,0.7907
4298.00,0.8004
4297.00,0.8113
4296.00,0.8232
4295.00,0.8361
4294.00,0.8499
4293.00,0.8646
4292.00,0.8799
4291.00,0.8959
4290.00,0.9125
4289.00,0.9297
4288.00,0.9473
4287.00,0.9653
4286.00,0.9837
4285.00,1.0023
4284.00,1.0211
4283.00,1.0400
4282.00,1.0591
4281.00,1.0784
4280.00,1.0977
4279.00,1.1169
4278.00,1.1362
4277.00,1.1554
4276.00,1.1746
4275.00,1.1935
4274.00,1.2122
4273.00,1.2307
4272.00,1.2491
4271.00,1.2673
4270.00,1.2851
4269.00,1.3025
4268.00,1.3192
4267.00,1.3353
4266.00,1.3511
4265.00,1.3665
4264.00,1.3816
4263.00,1.3964
4262.00,1.4106
4261.00,1.4241
4260.00,1.4370
4259.00,1.4495
4258.00,1.4616
4257.00,1.4733
4256.00,1.4844
4255.00,1.4949
4254.00,1.5048
4253.00,1.5142
4252.00,1.5231
4251.00,1.5318
4250.00,1.5401
4249.00,1.5479
4248.00,1.5551
4247.00,1.5616
4246.00,1.5674
4245.00,1.5729
4244.00,1.5782
4243.00,1.5833
4242.00,1.5880
4241.00,1.5921
4240.00,1.5954
4239.00,1.5983
4238.00,1.6007
4237.00,1.6028
4236.00,1.6045
4235.00,1.6059
4234.00,1.6068
4233.00,1.6073
4232.00,1.6072
4231.00,1.6068
4230.00,1.6059
4229.00,1.6048
4228.00,1.6033
4227.00,1.6015
4226.00,1.5992
4225.00,1.5966
4224.00,1.5934
4223.00,1.5896
4222.00,1.5852
4221.00,1.5803
4220.00,1.5750
4219.00,1.5694
4218.00,1.5633
4217.00,1.5567
4216.00,1.5499
4215.00,1.5429
4214.00,1.5355
4213.00,1.5275
4212.00,1.5187
4211.00,1.5091
4210.00,1.4989
4209.00,1.4883
4208.00,1.4773
4207.00,1.4658
4206.00,1.4538
4205.00,1.4413
4204.00,1.4283
4203.00,1.4147
4202.00,1.4004
4201.00,1.3854
4200.00,1.3697
4199.00,1.3533
4198.00,1.3364
4197.00,1.3189
4196.00,1.3011
4195.00,1.2827
4194.00,1.2637
4193.00,1.2442
4192.00,1.2241
4191.00,1.2036
4190.00,1.1827
4189.00,1.1613
4188.00,1.1395
4187.00,1.1174
4186.00,1.0950
4185.00,1.0725
4184.00,1.0501
4183.00,1.0279
4182.00,1.0059
4181.00,0.9841
4180.00,0.9626
4179.00,0.9417
4178.00,0.9213
4177.00,0.9017
4176.00,0.8830
4175.00,0.8652
4174.00,0.8485
4173.00,0.8331
4172.00,0.8190
4171.00,0.8063
4170.00,0.7951
4169.00,0.7854
4168.00,0.7772
4167.00,0.7707
4166.00,0.7659
4165.00,0.7628
4164.00,0.7615
4163.00,0.7618
4162.00,0.7638
4161.00,0.7675
4160.00,0.7729
4159.00,0.7798
4158.00,0.7881
4157.00,0.7978
4156.00,0.8088
4155.00,0.8210
4154.00,0.8344
4153.00,0.8488
4152.00,0.8642
4151.00,0.8804
4150.00,0.8973
4149.00,0.9149
4148.00,0.9331
4147.00,0.9519
4146.00,0.9711
4145.00,0.9908
4144.00,1.0107
4143.00,1.0310
4142.00,1.0515
4141.00,1.0722
4140.00,1.0929
4139.00,1.1138
4138.00,1.1347
4137.00,1.1556
4136.00,1.1765
4135.00,1.1971
4134.00,1.2174
4133.00,1.2374
4132.00,1.2573
4131.00,1.2770
4130.00,1.2964
4129.00,1.3156
4128.00,1.3344
4127.00,1.3526
4126.00,1.3702
4125.00,1.3873
4124.00,1.4041
4123.00,1.4204
4122.00,1.4363
4121.00,1.4516
4120.00,1.4662
4119.00,1.4801
4118.00,1.4935
4117.00,1.5061
4116.00,1.5182
4115.00,1.5297
4114.00,1.5409
4113.00,1.5517
4112.00,1.5620
4111.00,1.5715
4110.00,1.5804
4109.00,1.5889
4108.00,1.5970
4107.00,1.6050
4106.00,1.6126
4105.00,1.6197
4104.00,1.6260
4103.00,1.6317
4102.00,1.6366
4101.00,1.6411
4100.00,1.6455
4099.00,1.6497
4098.00,1.6538
4097.00,1.6573
4096.00,1.6600
4095.00,1.6619
4094.00,1.6633
4093.00,1.6644
4092.00,1.6652
4091.00,1.6656
4090.00,1.6657
4089.00,1.6653
4088.00,1.6644
4087.00,1.6631
4086.00,1.6613
4085.00,1.6593
4084.00,1.6571
4083.00,1.6545
4082.00,1.6513
4081.00,1.6475
4080.00,1.6433
4079.00,1.6389
4078.00,1.6341
4077.00,1.6290
4076.00,1.6233
4075.00,1.6172
4074.00,1.6107
4073.00,1.6038
4072.00,1.5961
4071.00,1.5876
4070.00,1.5785
4069.00,1.5688
4068.00,1.5588
4067.00,1.5487
4066.00,1.5382
4065.00,1.5271
4064.00,1.5153
4063.00,1.5027
4062.00,1.4894
4061.00,1.4756
4060.00,1.4612
4059.00,1.4464
4058.00,1.4309
4057.00,1.4148
4056.00,1.3979
4055.00,1.3804
4054.00,1.3624
4053.00,1.3438
4052.00,1.3247
4051.00,1.3050
4050.00,1.2846
4049.00,1.2637
4048.00,1.2424
4047.00,1.2206
4046.00,1.1986
4045.00,1.1764
4044.00,1.1541
4043.00,1.1317
4042.00,1.1095
4041.00,1.0876
4040.00,1.0662
4039.00,1.0453
4038.00,1.0250
4037.00,1.0055
4036.00,0.9868
4035.00,0.9691
4034.00,0.9525
4033.00,0.9369
4032.00,0.9222
4031.00,0.9084
4030.00,0.8954
4029.00,0.8833
4028.00,0.8718
4027.00,0.8612
4026.00,0.8513
4025.00,0.8423
4024.00,0.8345
4023.00,0.8280
4022.00,0.8229
4021.00,0.8193
4020.00,0.8173
4019.00,0.8171
4018.00,0.8186
4017.00,0.8219
4016.00,0.8269
4015.00,0.8336
4014.00,0.8420
4013.00,0.8519
4012.00,0.8633
4011.00,0.8760
4010.00,0.8900
4009.00,0.9052
4008.00,0.9214
4007.00,0.9385
4006.00,0.9564
4005.00,0.9752
4004.00,0.9948
4003.00,1.0151
4002.00,1.0358
4001.00,1.0568
4000.00,1.0782
3999.00,1.0999
3998.00,1.1218
3997.00,1.1438
3996.00,1.1660
3995.00,1.1882
3994.00,1.2102
3993.00,1.2321
3992.00,1.2538
3991.00,1.2753
3990.00,1.2968
3989.00,1.3180
3988.00,1.3389
3987.00,1.3595
3986.00,1.3795
3985.00,1.3991
3984.00,1.4183
3983.00,1.4369
3982.00,1.4549
3981.00,1.4722
3980.00,1.4888
3979.00,1.5048
3978.00,1.5199
3977.00,1.5343
3976.00,1.5480
3975.00,1.5610
3974.00,1.5734
3973.00,1.5853
3972.00,1.5965
3971.00,1.6071
3970.00,1.6173
3969.00,1.6270
3968.00,1.6363
3967.00,1.6451
3966.00,1.6534
3965.00,1.6613
3964.00,1.6687
3963.00,1.6757
3962.00,1.6823
3961.00,1.6885
3960.00,1.6942
3959.00,1.6995
3958.00,1.7046
3957.00,1.7094
3956.00,1.7139
3955.00,1.7177
3954.00,1.7209
3953.00,1.7234
3952.00,1.7257
3951.00,1.7276
3950.00,1.7290
3949.00,1.7300
3948.00,1.7306
3947.00,1.7309
3946.00,1.7310
3945.00,1.7305
3944.00,1.7294
3943.00,1.7278
3942.00,1.7259
3941.00,1.7237
3940.00,1.7211
3939.00,1.7178
3938.00,1.7140
3937.00,1.7099
3936.00,1.7057
3935.00,1.7012
3934.00,1.6963
3933.00,1.6908
3932.00,1.6846
3931.00,1.6778
3930.00,1.6704
3929.00,1.6623
3928.00,1.6535
3927.00,1.6443
3926.00,1.6347
3925.00,1.6248
3924.00,1.6146
3923.00,1.6041
3922.00,1.5931
3921.00,1.5816
3920.00,1.5694
3919.00,1.5565
3918.00,1.5428
3917.00,1.5285
3916.00,1.5134
3915.00,1.4976
3914.00,1.4813
3913.00,1.4641
3912.00,1.4461
3911.00,1.4273
3910.00,1.4080
3909.00,1.3884
3908.00,1.3686
3907.00,1.3483
3906.00,1.3270
3905.00,1.3045
3904.00,1.2808
3903.00,1.2562
3902.00,1.2312
3901.00,1.2056
3900.00,1.1793
3899.00,1.1525
3898.00,1.1257
3897.00,1.0996
3896.00,1.0741
3895.00,1.0492
3894.00,1.0248
3893.00,1.0006
3892.00,0.9763
3891.00,0.9522
3890.00,0.9292
3889.00,0.9082
3888.00,0.8893
3887.00,0.8717
3886.00,0.8549
3885.00,0.8392
3884.00,0.8254
3883.00,0.8139
3882.00,0.8043
3881.00,0.7965
3880.00,0.7909
3879.00,0.7878
3878.00,0.7871
3877.00,0.7886
3876.00,0.7921
3875.00,0.7975
3874.00,0.8049
3873.00,0.8141
3872.00,0.8246
3871.00,0.8368
3870.00,0.8512
3869.00,0.8676
3868.00,0.8849
3867.00,0.9025
3866.00,0.9206
3865.00,0.9401
3864.00,0.9614
3863.00,0.9838
3862.00,1.0064
3861.00,1.0290
3860.00,1.0519
3859.00,1.0748
3858.00,1.0968
3857.00,1.1173
3856.00,1.1367
3855.00,1.1568
3854.00,1.1804
3853.00,1.2089
3852.00,1.2403
3851.00,1.2702
3850.00,1.2963
3849.00,1.3190
3848.00,1.3401
3847.00,1.3605
3846.00,1.3808
3845.00,1.4010
3844.00,1.4213
3843.00,1.4416
3842.00,1.4614
3841.00,1.4801
3840.00,1.4976
3839.00,1.5145
3838.00,1.5314
3837.00,1.5487
3836.00,1.5658
3835.00,1.5825
3834.00,1.5984
3833.00,1.6136
3832.00,1.6279
3831.00,1.6415
3830.00,1.6542
3829.00,1.6662
3828.00,1.6774
3827.00,1.6879
3826.00,1.6978
3825.00,1.7068
3824.00,1.7146
3823.00,1.7218
3822.00,1.7291
3821.00,1.7370
3820.00,1.7449
3819.00,1.7515
3818.00,1.7567
3817.00,1.7611
3816.00,1.7657
3815.00,1.7705
3814.00,1.7756
3813.00,1.7801
3812.00,1.7837
3811.00,1.7867
3810.00,1.7896
3809.00,1.7922
3808.00,1.7940
3807.00,1.7949
3806.00,1.7951
3805.00,1.7948
3804.00,1.7938
3803.00,1.7921
3802.00,1.7898
3801.00,1.7872
3800.00,1.7843
3799.00,1.7813
3798.00,1.7784
3797.00,1.7753
3796.00,1.7718
3795.00,1.7682
3794.00,1.7644
3793.00,1.7601
3792.00,1.7549
3791.00,1.7491
3790.00,1.7428
3789.00,1.7358
3788.00,1.7282
3787.00,1.7200
3786.00,1.7113
3785.00,1.7019
3784.00,1.6917
3783.00,1.6810
3782.00,1.6701
3781.00,1.6589
3780.00,1.6470
3779.00,1.6341
3778.00,1.6204
3777.00,1.6059
3776.00,1.5907
3775.00,1.5754
3774.00,1.5598
3773.00,1.5437
3772.00,1.5266
3771.00,1.5082
3770.00,1.4884
3769.00,1.4675
3768.00,1.4460
3767.00,1.4241
3766.00,1.4015
3765.00,1.3780
3764.00,1.3541
3763.00,1.3301
3762.00,1.3058
3761.00,1.2804
3760.00,1.2536
3759.00,1.2259
3758.00,1.1977
3757.00,1.1695
3756.00,1.1422
3755.00,1.1162
3754.00,1.0909
3753.00,1.0652
3752.00,1.0384
3751.00,1.0103
3750.00,0.9819
3749.00,0.9548
3748.00,0.9315
3747.00,0.9129
3746.00,0.8973
3745.00,0.8825
3744.00,0.8680
3743.00,0.8557
3742.00,0.8469
3741.00,0.8410
3740.00,0.8371
3739.00,0.8358
3738.00,0.8375
3737.00,0.8418
3736.00,0.8478
3735.00,0.8550
3734.00,0.8635
3733.00,0.8732
3732.00,0.8843
3731.00,0.8970
3730.00,0.9109
3729.00,0.9257
3728.00,0.9415
3727.00,0.9592
3726.00,0.9785
3725.00,0.9990
3724.00,1.0201
3723.00,1.0418
3722.00,1.0643
3721.00,1.0878
3720.00,1.1122
3719.00,1.1372
3718.00,1.1627
3717.00,1.1876
3716.00,1.2101
3715.00,1.2299
3714.00,1.2493
3713.00,1.2729
3712.00,1.3031
3711.00,1.3381
3710.00,1.3731
3709.00,1.4048
3708.00,1.4334
3707.00,1.4602
3706.00,1.4857
3705.00,1.5097
3704.00,1.5326
3703.00,1.5547
3702.00,1.5765
3701.00,1.5983
3700.00,1.6198
3699.00,1.6401
3698.00,1.6590
3697.00,1.6766
3696.00,1.6935
3695.00,1.7094
3694.00,1.7241
3693.00,1.7378
3692.00,1.7507
3691.00,1.7633
3690.00,1.7754
3689.00,1.7873
3688.00,1.7987
3687.00,1.8094
3686.00,1.8194
3685.00,1.8287
3684.00,1.8376
3683.00,1.8458
3682.00,1.8536
3681.00,1.8608
3680.00,1.8673
3679.00,1.8729
3678.00,1.8774
3677.00,1.8815
3676.00,1.8853
3675.00,1.8888
3674.00,1.8918
3673.00,1.8945
3672.00,1.8970
3671.00,1.8992
3670.00,1.9007
3669.00,1.9022
3668.00,1.9036
3667.00,1.9049
3666.00,1.9056
3665.00,1.9059
3664.00,1.9058
3663.00,1.9054
3662.00,1.9050
3661.00,1.9047
3660.00,1.9043
3659.00,1.9034
3658.00,1.9018
3657.00,1.8997
3656.00,1.8973
3655.00,1.8943
3654.00,1.8906
3653.00,1.8864
3652.00,1.8818
3651.00,1.8768
3650.00,1.8714
3649.00,1.8657
3648.00,1.8591
3647.00,1.8518
3646.00,1.8447
3645.00,1.8386
3644.00,1.8332
3643.00,1.8278
3642.00,1.8220
3641.00,1.8159
3640.00,1.8094
3639.00,1.8020
3638.00,1.7936
3637.00,1.7849
3636.00,1.7761
3635.00,1.7672
3634.00,1.7579
3633.00,1.7484
3632.00,1.7386
3631.00,1.7279
3630.00,1.7152
3629.00,1.7006
3628.00,1.6850
3627.00,1.6692
3626.00,1.6535
3625.00,1.6377
3624.00,1.6217
3623.00,1.6059
3622.00,1.5901
3621.00,1.5741
3620.00,1.5574
3619.00,1.5397
3618.00,1.5212
3617.00,1.5024
3616.00,1.4835
3615.00,1.4638
3614.00,1.4424
3613.00,1.4194
3612.00,1.3970
3611.00,1.3774
3610.00,1.3612
3609.00,1.3468
3608.00,1.3319
3607.00,1.3156
3606.00,1.2984
3605.00,1.2815
3604.00,1.2653
3603.00,1.2500
3602.00,1.2357
3601.00,1.2221
3600.00,1.2094
3599.00,1.1975
3598.00,1.1870
3597.00,1.1780
3596.00,1.1706
3595.00,1.1648
3594.00,1.1605
3593.00,1.1575
3592.00,1.1559
3591.00,1.1558
3590.00,1.1576
3589.00,1.1612
3588.00,1.1666
3587.00,1.1733
3586.00,1.1809
3585.00,1.1889
3584.00,1.1980
3583.00,1.2082
3582.00,1.2198
3581.00,1.2330
3580.00,1.2477
3579.00,1.2637
3578.00,1.2806
3577.00,1.2982
3576.00,1.3165
3575.00,1.3356
3574.00,1.3553
3573.00,1.3753
3572.00,1.3954
3571.00,1.4153
3570.00,1.4351
3569.00,1.4553
3568.00,1.4761
3567.00,1.4977
3566.00,1.5194
3565.00,1.5404
3564.00,1.5603
3563.00,1.5796
3562.00,1.5984
3561.00,1.6170
3560.00,1.6354
3559.00,1.6532
3558.00,1.6705
3557.00,1.6872
3556.00,1.7034
3555.00,1.7189
3554.00,1.7337
3553.00,1.7483
3552.00,1.7628
3551.00,1.7768
3550.00,1.7902
3549.00,1.8029
3548.00,1.8152
3547.00,1.8272
3546.00,1.8388
3545.00,1.8500
3544.00,1.8606
3543.00,1.8703
3542.00,1.8791
3541.00,1.8874
3540.00,1.8954
3539.00,1.9027
3538.00,1.9094
3537.00,1.9158
3536.00,1.9221
3535.00,1.9284
3534.00,1.9346
3533.00,1.9406
3532.00,1.9461
3531.00,1.9511
3530.00,1.9556
3529.00,1.9597
3528.00,1.9630
3527.00,1.9656
3526.00,1.9677
3525.00,1.9702
3524.00,1.9733
3523.00,1.9765
3522.00,1.9792
3521.00,1.9809
3520.00,1.9818
3519.00,1.9818
3518.00,1.9812
3517.00,1.9805
3516.00,1.9797
3515.00,1.9786
3514.00,1.9773
3513.00,1.9759
3512.00,1.9742
3511.00,1.9720
3510.00,1.9689
3509.00,1.9653
3508.00,1.9614
3507.00,1.9572
3506.00,1.9527
3505.00,1.9479
3504.00,1.9430
3503.00,1.9374
3502.00,1.9310
3501.00,1.9240
3500.00,1.9167
3499.00,1.9090
3498.00,1.9012
3497.00,1.8932
3496.00,1.8848
3495.00,1.8758
3494.00,1.8662
3493.00,1.8560
3492.00,1.8453
3491.00,1.8341
3490.00,1.8226
3489.00,1.8105
3488.00,1.7978
3487.00,1.7845
3486.00,1.7707
3485.00,1.7563
3484.00,1.7412
3483.00,1.7251
3482.00,1.7083
3481.00,1.6909
3480.00,1.6729
3479.00,1.6543
3478.00,1.6350
3477.00,1.6152
3476.00,1.5949
3475.00,1.5737
3474.00,1.5514
3473.00,1.5285
3472.00,1.5050
3471.00,1.4811
3470.00,1.4568
3469.00,1.4321
3468.00,1.4071
3467.00,1.3818
3466.00,1.3564
3465.00,1.3311
3464.00,1.3059
3463.00,1.2808
3462.00,1.2560
3461.00,1.2318
3460.00,1.2085
3459.00,1.1864
3458.00,1.1656
3457.00,1.1462
3456.00,1.1282
3455.00,1.1117
3454.00,1.0970
3453.00,1.0841
3452.00,1.0732
3451.00,1.0645
3450.00,1.0580
3449.00,1.0536
3448.00,1.0514
3447.00,1.0513
3446.00,1.0533
3445.00,1.0575
3444.00,1.0639
3443.00,1.0725
3442.00,1.0830
3441.00,1.0954
3440.00,1.1094
3439.00,1.1250
3438.00,1.1419
3437.00,1.1601
3436.00,1.1795
3435.00,1.1998
3434.00,1.2210
3433.00,1.2430
3432.00,1.2656
3431.00,1.2887
3430.00,1.3122
3429.00,1.3361
3428.00,1.3602
3427.00,1.3847
3426.00,1.4094
3425.00,1.4341
3424.00,1.4588
3423.00,1.4831
3422.00,1.5074
3421.00,1.5314
3420.00,1.5553
3419.00,1.5786
3418.00,1.6014
3417.00,1.6236
3416.00,1.6453
3415.00,1.6665
3414.00,1.6870
3413.00,1.7067
3412.00,1.7256
3411.00,1.7438
3410.00,1.7614
3409.00,1.7782
3408.00,1.7943
3407.00,1.8099
3406.00,1.8251
3405.00,1.8397
3404.00,1.8535
3403.00,1.8664
3402.00,1.8786
3401.00,1.8902
3400.00,1.9014
3399.00,1.9118
3398.00,1.9216
3397.00,1.9311
3396.00,1.9403
3395.00,1.9491
3394.00,1.9577
3393.00,1.9661
3392.00,1.9740
3391.00,1.9811
3390.00,1.9873
3389.00,1.9932
3388.00,1.9989
3387.00,2.0039
3386.00,2.0077
3385.00,2.0107
3384.00,2.0134
3383.00,2.0163
3382.00,2.0195
3381.00,2.0229
3380.00,2.0257
3379.00,2.0278
3378.00,2.0292
3377.00,2.0304
3376.00,2.0314
3375.00,2.0318
3374.00,2.0318
3373.00,2.0314
3372.00,2.0306
3371.00,2.0291
3370.00,2.0269
3369.00,2.0246
3368.00,2.0224
3367.00,2.0203
3366.00,2.0174
3365.00,2.0135
3364.00,2.0087
3363.00,2.0031
3362.00,1.9970
3361.00,1.9907
3360.00,1.9842
3359.00,1.9773
3358.00,1.9700
3357.00,1.9623
3356.00,1.9542
3355.00,1.9453
3354.00,1.9357
3353.00,1.9256
3352.00,1.9152
3351.00,1.9045
3350.00,1.8931
3349.00,1.8814
3348.00,1.8692
3347.00,1.8566
3346.00,1.8432
3345.00,1.8288
3344.00,1.8134
3343.00,1.7974
3342.00,1.7809
3341.00,1.7640
3340.00,1.7463
3339.00,1.7279
3338.00,1.7087
3337.00,1.6888
3336.00,1.6684
3335.00,1.6472
3334.00,1.6253
3333.00,1.6026
3332.00,1.5793
3331.00,1.5555
3330.00,1.5312
3329.00,1.5064
3328.00,1.4812
3327.00,1.4557
3326.00,1.4300
3325.00,1.4043
3324.00,1.3785
3323.00,1.3525
3322.00,1.3264
3321.00,1.3004
3320.00,1.2748
3319.00,1.2499
3318.00,1.2258
3317.00,1.2028
3316.00,1.1809
3315.00,1.1604
3314.00,1.1416
3313.00,1.1246
3312.00,1.1097
3311.00,1.0971
3310.00,1.0867
3309.00,1.0788
3308.00,1.0733
3307.00,1.0702
3306.00,1.0697
3305.00,1.0717
3304.00,1.0762
3303.00,1.0831
3302.00,1.0922
3301.00,1.1033
3300.00,1.1164
3299.00,1.1313
3298.00,1.1479
3297.00,1.1660
3296.00,1.1853
3295.00,1.2057
3294.00,1.2271
3293.00,1.2494
3292.00,1.2726
3291.00,1.2963
3290.00,1.3206
3289.00,1.3454
3288.00,1.3705
3287.00,1.3958
3286.00,1.4212
3285.00,1.4467
3284.00,1.4723
3283.00,1.4977
3282.00,1.5230
3281.00,1.5480
3280.00,1.5726
3279.00,1.5968
3278.00,1.6205
3277.00,1.6438
3276.00,1.6666
3275.00,1.6888
3274.00,1.7105
3273.00,1.7316
3272.00,1.7522
3271.00,1.7721
3270.00,1.7913
3269.00,1.8099
3268.00,1.8279
3267.00,1.8450
3266.00,1.8613
3265.00,1.8769
3264.00,1.8918
3263.00,1.9061
3262.00,1.9197
3261.00,1.9328
3260.00,1.9454
3259.00,1.9571
3258.00,1.9682
3257.00,1.9787
3256.00,1.9889
3255.00,1.9987
3254.00,2.0079
3253.00,2.0166
3252.00,2.0249
3251.00,2.0329
3250.00,2.0407
3249.00,2.0483
3248.00,2.0557
3247.00,2.0625
3246.00,2.0684
3245.00,2.0735
3244.00,2.0779
3243.00,2.0813
3242.00,2.0841
3241.00,2.0864
3240.00,2.0887
3239.00,2.0911
3238.00,2.0935
3237.00,2.0959
3236.00,2.0978
3235.00,2.0989
3234.00,2.0994
3233.00,2.0996
3232.00,2.0995
3231.00,2.0990
3230.00,2.0979
3229.00,2.0963
3228.00,2.0938
3227.00,2.0906
3226.00,2.0872
3225.00,2.0837
3224.00,2.0802
3223.00,2.0763
3222.00,2.0720
3221.00,2.0672
3220.00,2.0618
3219.00,2.0554
3218.00,2.0482
3217.00,2.0406
3216.00,2.0326
3215.00,2.0242
3214.00,2.0155
3213.00,2.0066
3212.00,1.9975
3211.00,1.9878
3210.00,1.9775
3209.00,1.9670
3208.00,1.9563
3207.00,1.9453
3206.00,1.9340
3205.00,1.9226
3204.00,1.9111
3203.00,1.8995
3202.00,1.8876
3201.00,1.8751
3200.00,1.8617
3199.00,1.8470
3198.00,1.8306
3197.00,1.8126
3196.00,1.7933
3195.00,1.7727
3194.00,1.7510
3193.00,1.7285
3192.00,1.7052
3191.00,1.6812
3190.00,1.6564
3189.00,1.6308
3188.00,1.6044
3187.00,1.5776
3186.00,1.5504
3185.00,1.5230
3184.00,1.4955
3183.00,1.4681
3182.00,1.4410
3181.00,1.4147
3180.00,1.3896
3179.00,1.3659
3178.00,1.3440
3177.00,1.3245
3176.00,1.3079
3175.00,1.2949
3174.00,1.2863
3173.00,1.2828
3172.00,1.2852
3171.00,1.2940
3170.00,1.3093
3169.00,1.3309
3168.00,1.3576
3167.00,1.3869
3166.00,1.4145
3165.00,1.4354
3164.00,1.4445
3163.00,1.4394
3162.00,1.4211
3161.00,1.3941
3160.00,1.3641
3159.00,1.3359
3158.00,1.3129
3157.00,1.2969
3156.00,1.2883
3155.00,1.2866
3154.00,1.2910
3153.00,1.3004
3152.00,1.3139
3151.00,1.3305
3150.00,1.3496
3149.00,1.3706
3148.00,1.3931
3147.00,1.4168
3146.00,1.4413
3145.00,1.4663
3144.00,1.4918
3143.00,1.5176
3142.00,1.5435
3141.00,1.5695
3140.00,1.5957
3139.00,1.6217
3138.00,1.6475
3137.00,1.6729
3136.00,1.6979
3135.00,1.7223
3134.00,1.7461
3133.00,1.7690
3132.00,1.7913
3131.00,1.8129
3130.00,1.8340
3129.00,1.8545
3128.00,1.8744
3127.00,1.8934
3126.00,1.9114
3125.00,1.9285
3124.00,1.9451
3123.00,1.9613
3122.00,1.9769
3121.00,1.9919
3120.00,2.0063
3119.00,2.0201
3118.00,2.0332
3117.00,2.0453
3116.00,2.0565
3115.00,2.0669
3114.00,2.0767
3113.00,2.0864
3112.00,2.0959
3111.00,2.1051
3110.00,2.1137
3109.00,2.1218
3108.00,2.1294
3107.00,2.1367
3106.00,2.1435
3105.00,2.1501
3104.00,2.1562
3103.00,2.1617
3102.00,2.1663
3101.00,2.1704
3100.00,2.1741
3099.00,2.1777
3098.00,2.1810
3097.00,2.1835
3096.00,2.1854
3095.00,2.1868
3094.00,2.1882
3093.00,2.1896
3092.00,2.1908
3091.00,2.1914
3090.00,2.1914
3089.00,2.1907
3088.00,2.1894
3087.00,2.1878
3086.00,2.1859
3085.00,2.1837
3084.00,2.1812
3083.00,2.1783
3082.00,2.1751
3081.00,2.1713
3080.00,2.1666
3079.00,2.1611
3078.00,2.1554
3077.00,2.1500
3076.00,2.1446
3075.00,2.1384
3074.00,2.1309
3073.00,2.1224
3072.00,2.1135
3071.00,2.1044
3070.00,2.0953
3069.00,2.0859
3068.00,2.0759
3067.00,2.0651
3066.00,2.0536
3065.00,2.0414
3064.00,2.0287
3063.00,2.0156
3062.00,2.0021
3061.00,1.9883
3060.00,1.9739
3059.00,1.9588
3058.00,1.9430
3057.00,1.9265
3056.00,1.9096
3055.00,1.8919
3054.00,1.8736
3053.00,1.8547
3052.00,1.8353
3051.00,1.8155
3050.00,1.7951
3049.00,1.7742
3048.00,1.7528
3047.00,1.7312
3046.00,1.7093
3045.00,1.6874
3044.00,1.6654
3043.00,1.6435
3042.00,1.6220
3041.00,1.6010
3040.00,1.5807
3039.00,1.5611
3038.00,1.5426
3037.00,1.5254
3036.00,1.5097
3035.00,1.4957
3034.00,1.4836
3033.00,1.4735
3032.00,1.4657
3031.00,1.4601
3030.00,1.4568
3029.00,1.4558
3028.00,1.4574
3027.00,1.4616
3026.00,1.4682
3025.00,1.4773
3024.00,1.4886
3023.00,1.5018
3022.00,1.5169
3021.00,1.5338
3020.00,1.5525
3019.00,1.5728
3018.00,1.5945
3017.00,1.6172
3016.00,1.6409
3015.00,1.6652
3014.00,1.6899
3013.00,1.7148
3012.00,1.7399
3011.00,1.7647
3010.00,1.7890
3009.00,1.8124
3008.00,1.8346
3007.00,1.8552
3006.00,1.8741
3005.00,1.8912
3004.00,1.9064
3003.00,1.9195
3002.00,1.9305
3001.00,1.9395
3000.00,1.9469
2999.00,1.9530
2998.00,1.9581
2997.00,1.9628
2996.00,1.9680
2995.00,1.9742
2994.00,1.9815
2993.00,1.9898
2992.00,1.9990
2991.00,2.0089
2990.00,2.0200
2989.00,2.0323
2988.00,2.0458
2987.00,2.0600
2986.00,2.0748
2985.00,2.0903
2984.00,2.1065
2983.00,2.1231
2982.00,2.1395
2981.00,2.1554
2980.00,2.1710
2979.00,2.1868
2978.00,2.2029
2977.00,2.2192
2976.00,2.2354
2975.00,2.2507
2974.00,2.2651
2973.00,2.2788
2972.00,2.2921
2971.00,2.3054
2970.00,2.3185
2969.00,2.3310
2968.00,2.3427
2967.00,2.3536
2966.00,2.3641
2965.00,2.3740
2964.00,2.3832
2963.00,2.3916
2962.00,2.3995
2961.00,2.4070
2960.00,2.4139
2959.00,2.4201
2958.00,2.4265
2957.00,2.4346
2956.00,2.4450
2955.00,2.4571
2954.00,2.4696
2953.00,2.4816
2952.00,2.4929
2951.00,2.5044
2950.00,2.5173
2949.00,2.5321
2948.00,2.5480
2947.00,2.5631
2946.00,2.5751
2945.00,2.5824
2944.00,2.5846
2943.00,2.5823
2942.00,2.5756
2941.00,2.5643
2940.00,2.5490
2939.00,2.5316
2938.00,2.5150
2937.00,2.5012
2936.00,2.4896
2935.00,2.4788
2934.00,2.4681
2933.00,2.4575
2932.00,2.4476
2931.00,2.4386
2930.00,2.4303
2929.00,2.4224
2928.00,2.4142
2927.00,2.4055
2926.00,2.3969
2925.00,2.3893
2924.00,2.3826
2923.00,2.3760
2922.00,2.3686
2921.00,2.3607
2920.00,2.3530
2919.00,2.3458
2918.00,2.3385
2917.00,2.3305
2916.00,2.3214
2915.00,2.3114
2914.00,2.3011
2913.00,2.2910
2912.00,2.2809
2911.00,2.2702
2910.00,2.2587
2909.00,2.2469
2908.00,2.2352
2907.00,2.2234
2906.00,2.2108
2905.00,2.1972
2904.00,2.1828
2903.00,2.1679
2902.00,2.1526
2901.00,2.1366
2900.00,2.1199
2899.00,2.1026
2898.00,2.0846
2897.00,2.0655
2896.00,2.0455
2895.00,2.0249
2894.00,2.0036
2893.00,1.9814
2892.00,1.9583
2891.00,1.9344
2890.00,1.9101
2889.00,1.8856
2888.00,1.8609
2887.00,1.8362
2886.00,1.8118
2885.00,1.7884
2884.00,1.7663
2883.00,1.7460
2882.00,1.7278
2881.00,1.7121
2880.00,1.6990
2879.00,1.6891
2878.00,1.6829
2877.00,1.6806
2876.00,1.6820
2875.00,1.6863
2874.00,1.6930
2873.00,1.7013
2872.00,1.7103
2871.00,1.7188
2870.00,1.7257
2869.00,1.7299
2868.00,1.7308
2867.00,1.7281
2866.00,1.7223
2865.00,1.7136
2864.00,1.7024
2863.00,1.6886
2862.00,1.6723
2861.00,1.6535
2860.00,1.6328
2859.00,1.6107
2858.00,1.5886
2857.00,1.5677
2856.00,1.5494
2855.00,1.5347
2854.00,1.5241
2853.00,1.5181
2852.00,1.5165
2851.00,1.5194
2850.00,1.5266
2849.00,1.5377
2848.00,1.5524
2847.00,1.5700
2846.00,1.5902
2845.00,1.6126
2844.00,1.6368
2843.00,1.6623
2842.00,1.6887
2841.00,1.7157
2840.00,1.7430
2839.00,1.7703
2838.00,1.7973
2837.00,1.8242
2836.00,1.8508
2835.00,1.8770
2834.00,1.9025
2833.00,1.9272
2832.00,1.9511
2831.00,1.9743
2830.00,1.9969
2829.00,2.0188
2828.00,2.0401
2827.00,2.0605
2826.00,2.0800
2825.00,2.0987
2824.00,2.1164
2823.00,2.1329
2822.00,2.1485
2821.00,2.1638
2820.00,2.1792
2819.00,2.1943
2818.00,2.2080
2817.00,2.2199
2816.00,2.2307
2815.00,2.2418
2814.00,2.2537
2813.00,2.2660
2812.00,2.2776
2811.00,2.2878
2810.00,2.2966
2809.00,2.3047
2808.00,2.3124
2807.00,2.3202
2806.00,2.3281
2805.00,2.3356
2804.00,2.3422
2803.00,2.3472
2802.00,2.3511
2801.00,2.3542
2800.00,2.3566
2799.00,2.3583
2798.00,2.3602
2797.00,2.3628
2796.00,2.3659
2795.00,2.3683
2794.00,2.3692
2793.00,2.3687
2792.00,2.3677
2791.00,2.3666
2790.00,2.3657
2789.00,2.3649
2788.00,2.3638
2787.00,2.3620
2786.00,2.3596
2785.00,2.3569
2784.00,2.3537
2783.00,2.3498
2782.00,2.3452
2781.00,2.3403
2780.00,2.3350
2779.00,2.3291
2778.00,2.3221
2777.00,2.3139
2776.00,2.3046
2775.00,2.2950
2774.00,2.2857
2773.00,2.2764
2772.00,2.2665
2771.00,2.2556
2770.00,2.2442
2769.00,2.2331
2768.00,2.2220
2767.00,2.2102
2766.00,2.1970
2765.00,2.1827
2764.00,2.1676
2763.00,2.1518
2762.00,2.1350
2761.00,2.1170
2760.00,2.0981
2759.00,2.0782
2758.00,2.0577
2757.00,2.0364
2756.00,2.0143
2755.00,1.9910
2754.00,1.9663
2753.00,1.9405
2752.00,1.9136
2751.00,1.8855
2750.00,1.8560
2749.00,1.8251
2748.00,1.7926
2747.00,1.7587
2746.00,1.7236
2745.00,1.6871
2744.00,1.6494
2743.00,1.6107
2742.00,1.5712
2741.00,1.5311
2740.00,1.4908
2739.00,1.4505
2738.00,1.4107
2737.00,1.3719
2736.00,1.3346
2735.00,1.2989
2734.00,1.2655
2733.00,1.2346
2732.00,1.2068
2731.00,1.1823
2730.00,1.1616
2729.00,1.1448
2728.00,1.1322
2727.00,1.1241
2726.00,1.1206
2725.00,1.1217
2724.00,1.1274
2723.00,1.1376
2722.00,1.1518
2721.00,1.1699
2720.00,1.1915
2719.00,1.2162
2718.00,1.2435
2717.00,1.2732
2716.00,1.3048
2715.00,1.3380
2714.00,1.3725
2713.00,1.4081
2712.00,1.4446
2711.00,1.4818
2710.00,1.5196
2709.00,1.5576
2708.00,1.5956
2707.00,1.6333
2706.00,1.6709
2705.00,1.7082
2704.00,1.7450
2703.00,1.7812
2702.00,1.8165
2701.00,1.8507
2700.00,1.8837
2699.00,1.9153
2698.00,1.9456
2697.00,1.9748
2696.00,2.0029
2695.00,2.0299
2694.00,2.0554
2693.00,2.0799
2692.00,2.1034
2691.00,2.1257
2690.00,2.1466
2689.00,2.1665
2688.00,2.1858
2687.00,2.2047
2686.00,2.2226
2685.00,2.2395
2684.00,2.2555
2683.00,2.2706
2682.00,2.2852
2681.00,2.2990
2680.00,2.3122
2679.00,2.3247
2678.00,2.3370
2677.00,2.3489
2676.00,2.3601
2675.00,2.3700
2674.00,2.3782
2673.00,2.3851
2672.00,2.3914
2671.00,2.3978
2670.00,2.4048
2669.00,2.4119
2668.00,2.4192
2667.00,2.4264
2666.00,2.4330
2665.00,2.4381
2664.00,2.4416
2663.00,2.4442
2662.00,2.4469
2661.00,2.4504
2660.00,2.4542
2659.00,2.4580
2658.00,2.4610
2657.00,2.4630
2656.00,2.4639
2655.00,2.4643
2654.00,2.4649
2653.00,2.4654
2652.00,2.4653
2651.00,2.4641
2650.00,2.4621
2649.00,2.4596
2648.00,2.4567
2647.00,2.4535
2646.00,2.4503
2645.00,2.4470
2644.00,2.4432
2643.00,2.4388
2642.00,2.4337
2641.00,2.4280
2640.00,2.4214
2639.00,2.4140
2638.00,2.4065
2637.00,2.3988
2636.00,2.3904
2635.00,2.3809
2634.00,2.3710
2633.00,2.3620
2632.00,2.3538
2631.00,2.3459
2630.00,2.3378
2629.00,2.3296
2628.00,2.3216
2627.00,2.3132
2626.00,2.3039
2625.00,2.2931
2624.00,2.2809
2623.00,2.2671
2622.00,2.2515
2621.00,2.2339
2620.00,2.2145
2619.00,2.1943
2618.00,2.1743
2617.00,2.1542
2616.00,2.1331
2615.00,2.1102
2614.00,2.0854
2613.00,2.0593
2612.00,2.0322
2611.00,2.0040
2610.00,1.9745
2609.00,1.9434
2608.00,1.9107
2607.00,1.8760
2606.00,1.8395
2605.00,1.8010
2604.00,1.7608
2603.00,1.7190
2602.00,1.6759
2601.00,1.6316
2600.00,1.5864
2599.00,1.5404
2598.00,1.4943
2597.00,1.4486
2596.00,1.4041
2595.00,1.3611
2594.00,1.3202
2593.00,1.2821
2592.00,1.2474
2591.00,1.2166
2590.00,1.1902
2589.00,1.1687
2588.00,1.1523
2587.00,1.1414
2586.00,1.1360
2585.00,1.1362
2584.00,1.1419
2583.00,1.1529
2582.00,1.1688
2581.00,1.1894
2580.00,1.2140
2579.00,1.2421
2578.00,1.2732
2577.00,1.3067
2576.00,1.3423
2575.00,1.3794
2574.00,1.4177
2573.00,1.4570
2572.00,1.4972
2571.00,1.5380
2570.00,1.5789
2569.00,1.6198
2568.00,1.6606
2567.00,1.7010
2566.00,1.7410
2565.00,1.7802
2564.00,1.8187
2563.00,1.8562
2562.00,1.8929
2561.00,1.9286
2560.00,1.9631
2559.00,1.9961
2558.00,2.0275
2557.00,2.0576
2556.00,2.0868
2555.00,2.1148
2554.00,2.1412
2553.00,2.1654
2552.00,2.1878
2551.00,2.2095
2550.00,2.2310
2549.00,2.2522
2548.00,2.2723
2547.00,2.2911
2546.00,2.3092
2545.00,2.3269
2544.00,2.3438
2543.00,2.3590
2542.00,2.3727
2541.00,2.3855
2540.00,2.3980
2539.00,2.4107
2538.00,2.4240
2537.00,2.4373
2536.00,2.4495
2535.00,2.4594
2534.00,2.4676
2533.00,2.4752
2532.00,2.4834
2531.00,2.4924
2530.00,2.5016
2529.00,2.5100
2528.00,2.5170
2527.00,2.5231
2526.00,2.5290
2525.00,2.5352
2524.00,2.5413
2523.00,2.5471
2522.00,2.5526
2521.00,2.5574
2520.00,2.5602
2519.00,2.5607
2518.00,2.5599
2517.00,2.5596
2516.00,2.5607
2515.00,2.5626
2514.00,2.5641
2513.00,2.5645
2512.00,2.5637
2511.00,2.5628
2510.00,2.5627
2509.00,2.5631
2508.00,2.5625
2507.00,2.5598
2506.00,2.5556
2505.00,2.5517
2504.00,2.5488
2503.00,2.5463
2502.00,2.5431
2501.00,2.5387
2500.00,2.5330
2499.00,2.5260
2498.00,2.5180
2497.00,2.5095
2496.00,2.5006
2495.00,2.4915
2494.00,2.4820
2493.00,2.4726
2492.00,2.4633
2491.00,2.4543
2490.00,2.4456
2489.00,2.4365
2488.00,2.4261
2487.00,2.4136
2486.00,2.3996
2485.00,2.3852
2484.00,2.3710
2483.00,2.3570
2482.00,2.3427
2481.00,2.3271
2480.00,2.3095
2479.00,2.2900
2478.00,2.2696
2477.00,2.2487
2476.00,2.2273
2475.00,2.2047
2474.00,2.1807
2473.00,2.1558
2472.00,2.1301
2471.00,2.1035
2470.00,2.0754
2469.00,2.0453
2468.00,2.0129
2467.00,1.9787
2466.00,1.9430
2465.00,1.9061
2464.00,1.8677
2463.00,1.8276
2462.00,1.7860
2461.00,1.7430
2460.00,1.6991
2459.00,1.6543
2458.00,1.6094
2457.00,1.5647
2456.00,1.5208
2455.00,1.4784
2454.00,1.4382
2453.00,1.4009
2452.00,1.3671
2451.00,1.3374
2450.00,1.3122
2449.00,1.2919
2448.00,1.2769
2447.00,1.2674
2446.00,1.2634
2445.00,1.2651
2444.00,1.2722
2443.00,1.2844
2442.00,1.3013
2441.00,1.3225
2440.00,1.3475
2439.00,1.3759
2438.00,1.4071
2437.00,1.4408
2436.00,1.4764
2435.00,1.5136
2434.00,1.5519
2433.00,1.5913
2432.00,1.6314
2431.00,1.6721
2430.00,1.7132
2429.00,1.7545
2428.00,1.7958
2427.00,1.8368
2426.00,1.8771
2425.00,1.9165
2424.00,1.9546
2423.00,1.9912
2422.00,2.0263
2421.00,2.0601
2420.00,2.0928
2419.00,2.1245
2418.00,2.1547
2417.00,2.1832
2416.00,2.2095
2415.00,2.2340
2414.00,2.2572
2413.00,2.2797
2412.00,2.3017
2411.00,2.3228
2410.00,2.3430
2409.00,2.3622
2408.00,2.3804
2407.00,2.3973
2406.00,2.4125
2405.00,2.4261
2404.00,2.4388
2403.00,2.4514
2402.00,2.4646
2401.00,2.4786
2400.00,2.4924
2399.00,2.5052
2398.00,2.5167
2397.00,2.5274
2396.00,2.5376
2395.00,2.5477
2394.00,2.5577
2393.00,2.5684
2392.00,2.5784
2391.00,2.5903
2390.00,2.5994
2389.00,2.6040
2388.00,2.6126
2387.00,2.6178
2386.00,2.6227
2385.00,2.6276
2384.00,2.6336
2383.00,2.6399
2382.00,2.6463
2381.00,2.6524
2380.00,2.6573
2379.00,2.6601
2378.00,2.6611
2377.00,2.6622
2376.00,2.6648
2375.00,2.6689
2374.00,2.6734
2373.00,2.6770
2372.00,2.6787
2371.00,2.6777
2370.00,2.6743
2369.00,2.6698
2368.00,2.6657
2367.00,2.6629
2366.00,2.6611
2365.00,2.6594
2364.00,2.6562
2363.00,2.6511
2362.00,2.6451
2361.00,2.6387
2360.00,2.6322
2359.00,2.6256
2358.00,2.6189
2357.00,2.6121
2356.00,2.6048
2355.00,2.5970
2354.00,2.5893
2353.00,2.5811
2352.00,2.5711
2351.00,2.5590
2350.00,2.5463
2349.00,2.5344
2348.00,2.5231
2347.00,2.5111
2346.00,2.4978
2345.00,2.4837
2344.00,2.4661
2343.00,2.4520
2342.00,2.4269
2341.00,2.4203
2340.00,2.3818
2339.00,2.3997
2338.00,2.2842
2337.00,2.1471
2336.00,2.1681
2335.00,2.1540
2334.00,2.1615
2333.00,2.1679
2332.00,2.1936
2331.00,2.2246
2330.00,2.2424
2329.00,2.2406
2328.00,2.2169
2327.00,2.1814
2326.00,2.1499
2325.00,2.1285
2324.00,2.1267
2323.00,2.1269
2322.00,2.1218
2321.00,2.1014
2320.00,2.0682
2319.00,2.0262
2318.00,1.9771
2317.00,1.9305
2316.00,1.8943
2315.00,1.8810
2314.00,1.8897
2313.00,1.9148
2312.00,1.9446
2311.00,1.9716
2310.00,1.9951
2309.00,2.0164
2308.00,2.0398
2307.00,2.0651
2306.00,2.0934
2305.00,2.1236
2304.00,2.1580
2303.00,2.1974
2302.00,2.2427
2301.00,2.2927
2300.00,2.3441
2299.00,2.3945
2298.00,2.4417
2297.00,2.4845
2296.00,2.5202
2295.00,2.5445
2294.00,2.5525
2293.00,2.5397
2292.00,2.5051
2291.00,2.4526
2290.00,2.3909
2289.00,2.3291
2288.00,2.2749
2287.00,2.2322
2286.00,2.2031
2285.00,2.1875
2284.00,2.1847
2283.00,2.1930
2282.00,2.2111
2281.00,2.2368
2280.00,2.2674
2279.00,2.3006
2278.00,2.3356
2277.00,2.3721
2276.00,2.4091
2275.00,2.4456
2274.00,2.4809
2273.00,2.5152
2272.00,2.5483
2271.00,2.5799
2270.00,2.6102
2269.00,2.6398
2268.00,2.6686
2267.00,2.6956
2266.00,2.7204
2265.00,2.7444
2264.00,2.7693
2263.00,2.7964
2262.00,2.8258
2261.00,2.8575
2260.00,2.8941
2259.00,2.9416
2258.00,3.0091
2257.00,3.1060
2256.00,3.2376
2255.00,3.4018
2254.00,3.5765
2253.00,3.6933
2252.00,3.6550
2251.00,3.4818
2250.00,3.2765
2249.00,3.0892
2248.00,2.9286
2247.00,2.7932
2246.00,2.6826
2245.00,2.5972
2244.00,2.5370
2243.00,2.5001
2242.00,2.4829
2241.00,2.4816
2240.00,2.4924
2239.00,2.5121
2238.00,2.5375
2237.00,2.5652
2236.00,2.5921
2235.00,2.6166
2234.00,2.6391
2233.00,2.6599
2232.00,2.6784
2231.00,2.6939
2230.00,2.7077
2229.00,2.7207
2228.00,2.7328
2227.00,2.7431
2226.00,2.7520
2225.00,2.7610
2224.00,2.7695
2223.00,2.7759
2222.00,2.7793
2221.00,2.7811
2220.00,2.7824
2219.00,2.7836
2218.00,2.7843
2217.00,2.7848
2216.00,2.7850
2215.00,2.7842
2214.00,2.7821
2213.00,2.7795
2212.00,2.7766
2211.00,2.7733
2210.00,2.7693
2209.00,2.7650
2208.00,2.7612
2207.00,2.7581
2206.00,2.7553
2205.00,2.7523
2204.00,2.7483
2203.00,2.7425
2202.00,2.7348
2201.00,2.7253
2200.00,2.7140
2199.00,2.7005
2198.00,2.6862
2197.00,2.6730
2196.00,2.6618
2195.00,2.6513
2194.00,2.6392
2193.00,2.6253
2192.00,2.6104
2191.00,2.5956
2190.00,2.5808
2189.00,2.5653
2188.00,2.5482
2187.00,2.5291
2186.00,2.5080
2185.00,2.4854
2184.00,2.4617
2183.00,2.4376
2182.00,2.4130
2181.00,2.3875
2180.00,2.3605
2179.00,2.3318
2178.00,2.3014
2177.00,2.2695
2176.00,2.2362
2175.00,2.2011
2174.00,2.1639
2173.00,2.1247
2172.00,2.0831
2171.00,2.0388
2170.00,1.9916
2169.00,1.9418
2168.00,1.8898
2167.00,1.8363
2166.00,1.7813
2165.00,1.7256
2164.00,1.6697
2163.00,1.6146
2162.00,1.5614
2161.00,1.5110
2160.00,1.4645
2159.00,1.4228
2158.00,1.3869
2157.00,1.3578
2156.00,1.3361
2155.00,1.3222
2154.00,1.3163
2153.00,1.3186
2152.00,1.3289
2151.00,1.3466
2150.00,1.3709
2149.00,1.4012
2148.00,1.4365
2147.00,1.4758
2146.00,1.5186
2145.00,1.5641
2144.00,1.6116
2143.00,1.6605
2142.00,1.7102
2141.00,1.7605
2140.00,1.8112
2139.00,1.8621
2138.00,1.9127
2137.00,1.9626
2136.00,2.0112
2135.00,2.0582
2134.00,2.1030
2133.00,2.1458
2132.00,2.1867
2131.00,2.2257
2130.00,2.2630
2129.00,2.2985
2128.00,2.3324
2127.00,2.3645
2126.00,2.3948
2125.00,2.4233
2124.00,2.4498
2123.00,2.4740
2122.00,2.4968
2121.00,2.5194
2120.00,2.5426
2119.00,2.5663
2118.00,2.5892
2117.00,2.6099
2116.00,2.6282
2115.00,2.6450
2114.00,2.6616
2113.00,2.6779
2112.00,2.6926
2111.00,2.7050
2110.00,2.7155
2109.00,2.7251
2108.00,2.7348
2107.00,2.7451
2106.00,2.7566
2105.00,2.7688
2104.00,2.7808
2103.00,2.7919
2102.00,2.8023
2101.00,2.8122
2100.00,2.8214
2099.00,2.8292
2098.00,2.8357
2097.00,2.8417
2096.00,2.8473
2095.00,2.8520
2094.00,2.8556
2093.00,2.8582
2092.00,2.8608
2091.00,2.8640
2090.00,2.8683
2089.00,2.8728
2088.00,2.8762
2087.00,2.8787
2086.00,2.8823
2085.00,2.8879
2084.00,2.8931
2083.00,2.8940
2082.00,2.8900
2081.00,2.8845
2080.00,2.8813
2079.00,2.8805
2078.00,2.8801
2077.00,2.8783
2076.00,2.8753
2075.00,2.8717
2074.00,2.8677
2073.00,2.8634
2072.00,2.8593
2071.00,2.8562
2070.00,2.8535
2069.00,2.8502
2068.00,2.8454
2067.00,2.8400
2066.00,2.8349
2065.00,2.8292
2064.00,2.8210
2063.00,2.8103
2062.00,2.7991
2061.00,2.7895
2060.00,2.7809
2059.00,2.7709
2058.00,2.7586
2057.00,2.7448
2056.00,2.7313
2055.00,2.7187
2054.00,2.7068
2053.00,2.6948
2052.00,2.6814
2051.00,2.6656
2050.00,2.6471
2049.00,2.6271
2048.00,2.6065
2047.00,2.5859
2046.00,2.5655
2045.00,2.5446
2044.00,2.5221
2043.00,2.4975
2042.00,2.4714
2041.00,2.4449
2040.00,2.4182
2039.00,2.3899
2038.00,2.3591
2037.00,2.3258
2036.00,2.2906
2035.00,2.2533
2034.00,2.2136
2033.00,2.1715
2032.00,2.1273
2031.00,2.0812
2030.00,2.0326
2029.00,1.9814
2028.00,1.9282
2027.00,1.8736
2026.00,1.8182
2025.00,1.7624
2024.00,1.7070
2023.00,1.6529
2022.00,1.6012
2021.00,1.5531
2020.00,1.5097
2019.00,1.4721
2018.00,1.4417
2017.00,1.4192
2016.00,1.4047
2015.00,1.3973
2014.00,1.3966
2013.00,1.4036
2012.00,1.4191
2011.00,1.4426
2010.00,1.4729
2009.00,1.5085
2008.00,1.5485
2007.00,1.5923
2006.00,1.6387
2005.00,1.6869
2004.00,1.7366
2003.00,1.7874
2002.00,1.8390
2001.00,1.8910
2000.00,1.9431
1999.00,1.9950
1998.00,2.0461
1997.00,2.0959
1996.00,2.1440
1995.00,2.1894
1994.00,2.2321
1993.00,2.2737
1992.00,2.3156
1991.00,2.3565
1990.00,2.3940
1989.00,2.4269
1988.00,2.4571
1987.00,2.4864
1986.00,2.5148
1985.00,2.5415
1984.00,2.5665
1983.00,2.5907
1982.00,2.6150
1981.00,2.6398
1980.00,2.6641
1979.00,2.6863
1978.00,2.7052
1977.00,2.7213
1976.00,2.7364
1975.00,2.7513
1974.00,2.7660
1973.00,2.7809
1972.00,2.7966
1971.00,2.8130
1970.00,2.8288
1969.00,2.8429
1968.00,2.8555
1967.00,2.8674
1966.00,2.8785
1965.00,2.8883
1964.00,2.8963
1963.00,2.9035
1962.00,2.9114
1961.00,2.9209
1960.00,2.9314
1959.00,2.9408
1958.00,2.9475
1957.00,2.9532
1956.00,2.9603
1955.00,2.9690
1954.00,2.9761
1953.00,2.9789
1952.00,2.9786
1951.00,2.9783
1950.00,2.9797
1949.00,2.9819
1948.00,2.9837
1947.00,2.9859
1946.00,2.9891
1945.00,2.9921
1944.00,2.9936
1943.00,2.9944
1942.00,2.9959
1941.00,2.9971
1940.00,2.9964
1939.00,2.9946
1938.00,2.9938
1937.00,2.9941
1936.00,2.9925
1935.00,2.9873
1934.00,2.9790
1933.00,2.9703
1932.00,2.9636
1931.00,2.9600
1930.00,2.9598
1929.00,2.9613
1928.00,2.9624
1927.00,2.9605
1926.00,2.9533
1925.00,2.9412
1924.00,2.9269
1923.00,2.9148
1922.00,2.9067
1921.00,2.8992
1920.00,2.8887
1919.00,2.8759
1918.00,2.8636
1917.00,2.8521
1916.00,2.8393
1915.00,2.8241
1914.00,2.8085
1913.00,2.7944
1912.00,2.7813
1911.00,2.7684
1910.00,2.7558
1909.00,2.7428
1908.00,2.7272
1907.00,2.7067
1906.00,2.6819
1905.00,2.6560
1904.00,2.6312
1903.00,2.6074
1902.00,2.5828
1901.00,2.5554
1900.00,2.5257
1899.00,2.4945
1898.00,2.4623
1897.00,2.4290
1896.00,2.3941
1895.00,2.3576
1894.00,2.3192
1893.00,2.2772
1892.00,2.2305
1891.00,2.1804
1890.00,2.1292
1889.00,2.0783
1888.00,2.0255
1887.00,1.9687
1886.00,1.9093
1885.00,1.8516
1884.00,1.7974
1883.00,1.7452
1882.00,1.6945
1881.00,1.6467
1880.00,1.6051
1879.00,1.5710
1878.00,1.5444
1877.00,1.5259
1876.00,1.5158
1875.00,1.5137
1874.00,1.5196
1873.00,1.5327
1872.00,1.5514
1871.00,1.5751
1870.00,1.6054
1869.00,1.6448
1868.00,1.6927
1867.00,1.7433
1866.00,1.7916
1865.00,1.8390
1864.00,1.8893
1863.00,1.9432
1862.00,1.9987
1861.00,2.0545
1860.00,2.1096
1859.00,2.1630
1858.00,2.2139
1857.00,2.2628
1856.00,2.3096
1855.00,2.3534
1854.00,2.3948
1853.00,2.4349
1852.00,2.4739
1851.00,2.5101
1850.00,2.5425
1849.00,2.5741
1848.00,2.6058
1847.00,2.6353
1846.00,2.6611
1845.00,2.6853
1844.00,2.7114
1843.00,2.7376
1842.00,2.7594
1841.00,2.7761
1840.00,2.7927
1839.00,2.8126
1838.00,2.8352
1837.00,2.8582
1836.00,2.8789
1835.00,2.8967
1834.00,2.9115
1833.00,2.9228
1832.00,2.9312
1831.00,2.9396
1830.00,2.9524
1829.00,2.9689
1828.00,2.9810
1827.00,2.9856
1826.00,2.9931
1825.00,3.0109
1824.00,3.0315
1823.00,3.0426
1822.00,3.0448
1821.00,3.0490
1820.00,3.0604
1819.00,3.0747
1818.00,3.0869
1817.00,3.0951
1816.00,3.0977
1815.00,3.0947
1814.00,3.0898
1813.00,3.0891
1812.00,3.0952
1811.00,3.1059
1810.00,3.1182
1809.00,3.1285
1808.00,3.1341
1807.00,3.1344
1806.00,3.1301
1805.00,3.1223
1804.00,3.1132
1803.00,3.1057
1802.00,3.1020
1801.00,3.1016
1800.00,3.1007
1799.00,3.0959
1798.00,3.0890
1797.00,3.0835
1796.00,3.0796
1795.00,3.0755
1794.00,3.0709
1793.00,3.0688
1792.00,3.0711
1791.00,3.0750
1790.00,3.0750
1789.00,3.0693
1788.00,3.0609
1787.00,3.0530
1786.00,3.0460
1785.00,3.0387
1784.00,3.0283
1783.00,3.0134
1782.00,2.9951
1781.00,2.9787
1780.00,2.9672
1779.00,2.9560
1778.00,2.9409
1777.00,2.9221
1776.00,2.9021
1775.00,2.8810
1774.00,2.8578
1773.00,2.8353
1772.00,2.8159
1771.00,2.7958
1770.00,2.7690
1769.00,2.7383
1768.00,2.7123
1767.00,2.6926
1766.00,2.6718
1765.00,2.6432
1764.00,2.6079
1763.00,2.5708
1762.00,2.5340
1761.00,2.4966
1760.00,2.4556
1759.00,2.4102
1758.00,2.3649
1757.00,2.3223
1756.00,2.2828
1755.00,2.2427
1754.00,2.2000
1753.00,2.1602
1752.00,2.1293
1751.00,2.1068
1750.00,2.0887
1749.00,2.0721
1748.00,2.0595
1747.00,2.0560
1746.00,2.0620
1745.00,2.0769
1744.00,2.1004
1743.00,2.1299
1742.00,2.1599
1741.00,2.1873
1740.00,2.2158
1739.00,2.2519
1738.00,2.2922
1737.00,2.3267
1736.00,2.3575
1735.00,2.3982
1734.00,2.4579
1733.00,2.5280
1732.00,2.5860
1731.00,2.6263
1730.00,2.6667
1729.00,2.7167
1728.00,2.7728
1727.00,2.8285
1726.00,2.8822
1725.00,2.9383
1724.00,2.9978
1723.00,3.0582
1722.00,3.1146
1721.00,3.1605
1720.00,3.1987
1719.00,3.2433
1718.00,3.3073
1717.00,3.3871
1716.00,3.4648
1715.00,3.5391
1714.00,3.6295
1713.00,3.7368
1712.00,3.8321
1711.00,3.8957
1710.00,3.9264
1709.00,3.9203
1708.00,3.8823
1707.00,3.8249
1706.00,3.7462
1705.00,3.6359
1704.00,3.5008
1703.00,3.3552
1702.00,3.2008
1701.00,3.0355
1700.00,2.8759
1699.00,2.7468
1698.00,2.6500
1697.00,2.5822
1696.00,2.5478
1695.00,2.5416
1694.00,2.5421
1693.00,2.5385
1692.00,2.5449
1691.00,2.5728
1690.00,2.6195
1689.00,2.6728
1688.00,2.7215
1687.00,2.7605
1686.00,2.7953
1685.00,2.8355
1684.00,2.8827
1683.00,2.9253
1682.00,2.9411
1681.00,2.9437
1680.00,2.9653
1679.00,3.0019
1678.00,3.0310
1677.00,3.0432
1676.00,3.0485
1675.00,3.0596
1674.00,3.0772
1673.00,3.0944
1672.00,3.1096
1671.00,3.1265
1670.00,3.1460
1669.00,3.1645
1668.00,3.1773
1667.00,3.1825
1666.00,3.1841
1665.00,3.1867
1664.00,3.1913
1663.00,3.1996
1662.00,3.2095
1661.00,3.2143
1660.00,3.2115
1659.00,3.2079
1658.00,3.2115
1657.00,3.2205
1656.00,3.2242
1655.00,3.2167
1654.00,3.2076
1653.00,3.2156
1652.00,3.2391
1651.00,3.2445
1650.00,3.2307
1649.00,3.2177
1648.00,3.2102
1647.00,3.2130
1646.00,3.2216
1645.00,3.2233
1644.00,3.2169
1643.00,3.2162
1642.00,3.2238
1641.00,3.2342
1640.00,3.2427
1639.00,3.2425
1638.00,3.2334
1637.00,3.2217
1636.00,3.2126
1635.00,3.2042
1634.00,3.1891
1633.00,3.1706
1632.00,3.1601
1631.00,3.1568
1630.00,3.1513
1629.00,3.1414
1628.00,3.1305
1627.00,3.1201
1626.00,3.1063
1625.00,3.0878
1624.00,3.0693
1623.00,3.0548
1622.00,3.0429
1621.00,3.0272
1620.00,3.0066
1619.00,2.9857
1618.00,2.9695
1617.00,2.9588
1616.00,2.9484
1615.00,2.9281
1614.00,2.8949
1613.00,2.8601
1612.00,2.8332
1611.00,2.8125
1610.00,2.7897
1609.00,2.7606
1608.00,2.7274
1607.00,2.6928
1606.00,2.6555
1605.00,2.6148
1604.00,2.5718
1603.00,2.5270
1602.00,2.4807
1601.00,2.4325
1600.00,2.3827
1599.00,2.3320
1598.00,2.2816
1597.00,2.2321
1596.00,2.1839
1595.00,2.1389
1594.00,2.0984
1593.00,2.0627
1592.00,2.0320
1591.00,2.0078
1590.00,1.9917
1589.00,1.9837
1588.00,1.9832
1587.00,1.9900
1586.00,2.0051
1585.00,2.0288
1584.00,2.0605
1583.00,2.0980
1582.00,2.1398
1581.00,2.1851
1580.00,2.2300
1579.00,2.2702
1578.00,2.3089
1577.00,2.3561
1576.00,2.4158
1575.00,2.4770
1574.00,2.5213
1573.00,2.5493
1572.00,2.5759
1571.00,2.6095
1570.00,2.6506
1569.00,2.6940
1568.00,2.7325
1567.00,2.7627
1566.00,2.7920
1565.00,2.8272
1564.00,2.8655
1563.00,2.8979
1562.00,2.9195
1561.00,2.9344
1560.00,2.9503
1559.00,2.9720
1558.00,3.0089
1557.00,3.0315
1556.00,3.0351
1555.00,3.0558
1554.00,3.0879
1553.00,3.1176
1552.00,3.1379
1551.00,3.1512
1550.00,3.1667
1549.00,3.1847
1548.00,3.1995
1547.00,3.2105
1546.00,3.2245
1545.00,3.2449
1544.00,3.2653
1543.00,3.2741
1542.00,3.2680
1541.00,3.2589
1540.00,3.2648
1539.00,3.2881
1538.00,3.3059
1537.00,3.3116
1536.00,3.3169
1535.00,3.3241
1534.00,3.3320
1533.00,3.3403
1532.00,3.3463
1531.00,3.3492
1530.00,3.3562
1529.00,3.3674
1528.00,3.3753
1527.00,3.3789
1526.00,3.3839
1525.00,3.3948
1524.00,3.4078
1523.00,3.4172
1522.00,3.4211
1521.00,3.4230
1520.00,3.4245
1519.00,3.4238
1518.00,3.4269
1517.00,3.4348
1516.00,3.4350
1515.00,3.4188
1514.00,3.3930
1513.00,3.3765
1512.00,3.3772
1511.00,3.3873
1510.00,3.3919
1509.00,3.3815
1508.00,3.3619
1507.00,3.3506
1506.00,3.3580
1505.00,3.3605
1504.00,3.3542
1503.00,3.3552
1502.00,3.3565
1501.00,3.3517
1500.00,3.3408
1499.00,3.3240
1498.00,3.3057
1497.00,3.2916
1496.00,3.2814
1495.00,3.2712
1494.00,3.2577
1493.00,3.2414
1492.00,3.2248
1491.00,3.2095
1490.00,3.1985
1489.00,3.1923
1488.00,3.1857
1487.00,3.1764
1486.00,3.1668
1485.00,3.1555
1484.00,3.1421
1483.00,3.1272
1482.00,3.1149
1481.00,3.1076
1480.00,3.1008
1479.00,3.0885
1478.00,3.0692
1477.00,3.0465
1476.00,3.0240
1475.00,3.0048
1474.00,2.9912
1473.00,2.9871
1472.00,2.9928
1471.00,2.9997
1470.00,3.0040
1469.00,3.0123
1468.00,3.0276
1467.00,3.0466
1466.00,3.0665
1465.00,3.0875
1464.00,3.1089
1463.00,3.1286
1462.00,3.1510
1461.00,3.1811
1460.00,3.2166
1459.00,3.2526
1458.00,3.2919
1457.00,3.3429
1456.00,3.4022
1455.00,3.4572
1454.00,3.5150
1453.00,3.5869
1452.00,3.6546
1451.00,3.6826
1450.00,3.6637
1449.00,3.6299
1448.00,3.6065
1447.00,3.5909
1446.00,3.5718
1445.00,3.5545
1444.00,3.5489
1443.00,3.5548
1442.00,3.5645
1441.00,3.5638
1440.00,3.5421
1439.00,3.5013
1438.00,3.4573
1437.00,3.4293
1436.00,3.4299
1435.00,3.4545
1434.00,3.4890
1433.00,3.5246
1432.00,3.5508
1431.00,3.5535
1430.00,3.5301
1429.00,3.4950
1428.00,3.4673
1427.00,3.4607
1426.00,3.4769
1425.00,3.5062
1424.00,3.5285
1423.00,3.5254
1422.00,3.4994
1421.00,3.4695
1420.00,3.4506
1419.00,3.4424
1418.00,3.4385
1417.00,3.4302
1416.00,3.4160
1415.00,3.4047
1414.00,3.4014
1413.00,3.4045
1412.00,3.4075
1411.00,3.4048
1410.00,3.3986
1409.00,3.3957
1408.00,3.3982
1407.00,3.4000
1406.00,3.3957
1405.00,3.3908
1404.00,3.3907
1403.00,3.3911
1402.00,3.3873
1401.00,3.3841
1400.00,3.3897
1399.00,3.4039
1398.00,3.4159
1397.00,3.4187
1396.00,3.4177
1395.00,3.4214
1394.00,3.4297
1393.00,3.4392
1392.00,3.4502
1391.00,3.4669
1390.00,3.4910
1389.00,3.5229
1388.00,3.5626
1387.00,3.6041
1386.00,3.6361
1385.00,3.6589
1384.00,3.6844
1383.00,3.7143
1382.00,3.7332
1381.00,3.7329
1380.00,3.7317
1379.00,3.7552
1378.00,3.8095
1377.00,3.8734
1376.00,3.9099
1375.00,3.8923
1374.00,3.8246
1373.00,3.7342
1372.00,3.6479
1371.00,3.5810
1370.00,3.5366
1369.00,3.5100
1368.00,3.4964
1367.00,3.4943
1366.00,3.5033
1365.00,3.5202
1364.00,3.5422
1363.00,3.5691
1362.00,3.5979
1361.00,3.6139
1360.00,3.6023
1359.00,3.5705
1358.00,3.5402
1357.00,3.5270
1356.00,3.5340
1355.00,3.5552
1354.00,3.5816
1353.00,3.6021
1352.00,3.6090
1351.00,3.6067
1350.00,3.6072
1349.00,3.6164
1348.00,3.6261
1347.00,3.6244
1346.00,3.6129
1345.00,3.6050
1344.00,3.6074
1343.00,3.6126
1342.00,3.6104
1341.00,3.6029
1340.00,3.6038
1339.00,3.6230
1338.00,3.6558
1337.00,3.6837
1336.00,3.6865
1335.00,3.6562
1334.00,3.6073
1333.00,3.5626
1332.00,3.5356
1331.00,3.5263
1330.00,3.5246
1329.00,3.5178
1328.00,3.5014
1327.00,3.4834
1326.00,3.4749
1325.00,3.4770
1324.00,3.4778
1323.00,3.4645
1322.00,3.4371
1321.00,3.4043
1320.00,3.3725
1319.00,3.3475
1318.00,3.3357
1317.00,3.3387
1316.00,3.3493
1315.00,3.3554
1314.00,3.3511
1313.00,3.3408
1312.00,3.3309
1311.00,3.3210
1310.00,3.3079
1309.00,3.2910
1308.00,3.2717
1307.00,3.2492
1306.00,3.2214
1305.00,3.1871
1304.00,3.1474
1303.00,3.1044
1302.00,3.0604
1301.00,3.0169
1300.00,2.9732
1299.00,2.9270
1298.00,2.8774
1297.00,2.8262
1296.00,2.7746
1295.00,2.7209
1294.00,2.6628
1293.00,2.6006
1292.00,2.5376
1291.00,2.4779
1290.00,2.4242
1289.00,2.3785
1288.00,2.3420
1287.00,2.3154
1286.00,2.2998
1285.00,2.2960
1284.00,2.3050
1283.00,2.3266
1282.00,2.3593
1281.00,2.4009
1280.00,2.4494
1279.00,2.5031
1278.00,2.5584
1277.00,2.6108
1276.00,2.6571
1275.00,2.6979
1274.00,2.7366
1273.00,2.7761
1272.00,2.8172
1271.00,2.8592
1270.00,2.9017
1269.00,2.9440
1268.00,2.9848
1267.00,3.0227
1266.00,3.0571
1265.00,3.0905
1264.00,3.1257
1263.00,3.1641
1262.00,3.2035
1261.00,3.2408
1260.00,3.2745
1259.00,3.3029
1258.00,3.3222
1257.00,3.3302
1256.00,3.3334
1255.00,3.3439
1254.00,3.3695
1253.00,3.4074
1252.00,3.4477
1251.00,3.4782
1250.00,3.4901
1249.00,3.4854
1248.00,3.4786
1247.00,3.4872
1246.00,3.5206
1245.00,3.5732
1244.00,3.6257
1243.00,3.6642
1242.00,3.7020
1241.00,3.7584
1240.00,3.8286
1239.00,3.8731
1238.00,3.8521
1237.00,3.7887
1236.00,3.7355
1235.00,3.7186
1234.00,3.7295
1233.00,3.7398
1232.00,3.7378
1231.00,3.7450
1230.00,3.7848
1229.00,3.8525
1228.00,3.9105
1227.00,3.9220
1226.00,3.8948
1225.00,3.8664
1224.00,3.8525
1223.00,3.8435
1222.00,3.8297
1221.00,3.8140
1220.00,3.8119
1219.00,3.8418
1218.00,3.9125
1217.00,3.9922
1216.00,4.0109
1215.00,3.9729
1214.00,3.9146
1213.00,3.8463
1212.00,3.7827
1211.00,3.7396
1210.00,3.7254
1209.00,3.7344
1208.00,3.7487
1207.00,3.7533
1206.00,3.7474
1205.00,3.7372
1204.00,3.7236
1203.00,3.7125
1202.00,3.7184
1201.00,3.7465
1200.00,3.7770
1199.00,3.7777
1198.00,3.7452
1197.00,3.7047
1196.00,3.6686
1195.00,3.6382
1194.00,3.6216
1193.00,3.6260
1192.00,3.6487
1191.00,3.6803
1190.00,3.7030
1189.00,3.6943
1188.00,3.6511
1187.00,3.6002
1186.00,3.5716
1185.00,3.5746
1184.00,3.5977
1183.00,3.6189
1182.00,3.6206
1181.00,3.5998
1180.00,3.5668
1179.00,3.5359
1178.00,3.5160
1177.00,3.4997
1176.00,3.4705
1175.00,3.4236
1174.00,3.3723
1173.00,3.3326
1172.00,3.3084
1171.00,3.2935
1170.00,3.2776
1169.00,3.2526
1168.00,3.2185
1167.00,3.1834
1166.00,3.1574
1165.00,3.1433
1164.00,3.1307
1163.00,3.1023
1162.00,3.0509
1161.00,2.9869
1160.00,2.9249
1159.00,2.8718
1158.00,2.8259
1157.00,2.7821
1156.00,2.7377
1155.00,2.6937
1154.00,2.6531
1153.00,2.6184
1152.00,2.5911
1151.00,2.5726
1150.00,2.5640
1149.00,2.5665
1148.00,2.5802
1147.00,2.6039
1146.00,2.6355
1145.00,2.6730
1144.00,2.7147
1143.00,2.7605
1142.00,2.8112
1141.00,2.8684
1140.00,2.9317
1139.00,2.9962
1138.00,3.0533
1137.00,3.0978
1136.00,3.1340
1135.00,3.1732
1134.00,3.2231
1133.00,3.2798
1132.00,3.3325
1131.00,3.3785
1130.00,3.4250
1129.00,3.4741
1128.00,3.5186
1127.00,3.5565
1126.00,3.5960
1125.00,3.6462
1124.00,3.7116
1123.00,3.7813
1122.00,3.8219
1121.00,3.8158
1120.00,3.7789
1119.00,3.7365
1118.00,3.7094
1117.00,3.7007
1116.00,3.7026
1115.00,3.7154
1114.00,3.7537
1113.00,3.8302
1112.00,3.9204
1111.00,3.9457
1110.00,3.8894
1109.00,3.8280
1108.00,3.7952
1107.00,3.7846
1106.00,3.7938
1105.00,3.8353
1104.00,3.9156
1103.00,4.0109
1102.00,4.0655
1101.00,4.0442
1100.00,3.9807
1099.00,3.9224
1098.00,3.8916
1097.00,3.9103
1096.00,3.9995
1095.00,4.0980
1094.00,4.1014
1093.00,4.0795
1092.00,4.0559
1091.00,4.0094
1090.00,3.9625
1089.00,3.9212
1088.00,3.8877
1087.00,3.8730
1086.00,3.8802
1085.00,3.8824
1084.00,3.8501
1083.00,3.8030
1082.00,3.7695
1081.00,3.7604
1080.00,3.7940
1079.00,3.9017
1078.00,4.1142
1077.00,4.4033
1076.00,4.5599
1075.00,4.3530
1074.00,4.0982
1073.00,3.9873
1072.00,4.0015
1071.00,4.0869
1070.00,4.1463
1069.00,4.1057
1068.00,4.0030
1067.00,3.8959
1066.00,3.8227
1065.00,3.8038
1064.00,3.8280
1063.00,3.8607
1062.00,3.9007
1061.00,3.9813
1060.00,4.1292
1059.00,4.2685
1058.00,4.2220
1057.00,4.1530
1056.00,4.1592
1055.00,4.2283
1054.00,4.3145
1053.00,4.3634
1052.00,4.3098
1051.00,4.3973
1050.00,4.7338
1049.00,4.2186
1048.00,3.9444
1047.00,3.8755
1046.00,3.9121
1045.00,3.9619
1044.00,3.9397
1043.00,3.9449
1042.00,4.0037
1041.00,4.0188
1040.00,3.9633
1039.00,3.9174
1038.00,3.9108
1037.00,3.9314
1036.00,3.9383
1035.00,3.9112
1034.00,3.8776
1033.00,3.8517
1032.00,3.8260
1031.00,3.8090
1030.00,3.8298
1029.00,3.9060
1028.00,4.0161
1027.00,4.0911
1026.00,4.0761
1025.00,3.9928
1024.00,3.8866
1023.00,3.8030
1022.00,3.7711
1021.00,3.7859
1020.00,3.8076
1019.00,3.7896
1018.00,3.7365
1017.00,3.6935
1016.00,3.6765
1015.00,3.6587
1014.00,3.6199
1013.00,3.5757
1012.00,3.5525
1011.00,3.5618
1010.00,3.5867
1009.00,3.5846
1008.00,3.5323
1007.00,3.4580
1006.00,3.4000
1005.00,3.3683
1004.00,3.3464
1003.00,3.3147
1002.00,3.2734
1001.00,3.2384
1000.00,3.2195
999.00,3.2164
998.00,3.2289
997.00,3.2606
996.00,3.3107
995.00,3.3675
994.00,3.4152
993.00,3.4530
992.00,3.4909
991.00,3.5277
990.00,3.5626
989.00,3.6102
988.00,3.6779
987.00,3.7615
986.00,3.8621
985.00,3.9707
984.00,4.0651
983.00,4.1369
982.00,4.0862
981.00,3.9316
980.00,3.8288
979.00,3.7957
978.00,3.7987
977.00,3.8068
976.00,3.8136
975.00,3.8368
974.00,3.8853
973.00,3.9489
972.00,4.0016
971.00,4.0310
970.00,4.0925
969.00,4.2428
968.00,4.2794
967.00,4.1516
966.00,4.1483
965.00,4.2720
964.00,4.4344
963.00,4.5729
962.00,4.6549
961.00,4.6757
960.00,4.6777
959.00,4.5739
958.00,4.2708
957.00,4.0253
956.00,3.8818
955.00,3.8210
954.00,3.8396
953.00,3.9473
952.00,4.1487
951.00,4.3530
950.00,4.4287
949.00,4.3118
948.00,4.1319
947.00,4.0698
946.00,4.1055
945.00,4.1622
944.00,4.2170
943.00,4.3255
942.00,4.4599
941.00,4.4752
940.00,4.2590
939.00,4.1005
938.00,4.0392
937.00,4.2187
936.00,4.7378
935.00,4.1784
934.00,3.9121
933.00,3.8374
932.00,3.8646
931.00,4.0631
930.00,4.3247
929.00,4.3291
928.00,4.1967
927.00,4.3135
926.00,4.8608
925.00,4.3569
924.00,4.0885
923.00,4.0662
922.00,4.1137
921.00,4.1335
920.00,4.0598
919.00,4.0266
918.00,4.0734
917.00,4.1970
916.00,4.2998
915.00,4.3860
914.00,4.5470
913.00,4.5573
912.00,4.4220
911.00,4.3937
910.00,4.5597
909.00,4.6077
908.00,4.2574
907.00,4.2174
906.00,4.4533
905.00,4.3188
904.00,4.1462
903.00,4.2491
902.00,4.6158
901.00,4.7287
900.00,4.4260
899.00,4.1940
898.00,4.0427
897.00,3.9952
896.00,4.0242
895.00,4.1595
894.00,4.4915
893.00,4.4372
892.00,4.1243
891.00,4.0124
890.00,4.0586
889.00,4.2394
888.00,4.6540
887.00,5.2822
886.00,4.5590
885.00,4.3189
884.00,4.1732
883.00,4.0309
882.00,3.9349
881.00,3.8676
880.00,3.8361
879.00,3.8356
878.00,3.8632
877.00,3.9002
876.00,3.9302
875.00,3.9341
874.00,3.9344
873.00,4.0370
872.00,4.1613
871.00,4.0467
870.00,3.9498
869.00,3.9423
868.00,3.9466
867.00,3.9336
866.00,3.9020
865.00,3.8671
864.00,3.8514
863.00,3.8602
862.00,3.9335
861.00,4.0777
860.00,4.4367
859.00,4.9955
858.00,4.8136
857.00,4.8435
856.00,4.1890
855.00,3.8671
854.00,3.7630
853.00,3.7760
852.00,3.9918
851.00,4.2551
850.00,4.0447
849.00,3.9606
848.00,4.1473
847.00,4.4907
846.00,4.3963
845.00,4.2005
844.00,4.1529
843.00,4.1753
842.00,4.2875
841.00,4.3220
840.00,4.4081
839.00,4.7729
838.00,4.5661
837.00,4.2937
836.00,4.2306
835.00,4.1929
834.00,4.1882
833.00,4.2779
832.00,4.4106
831.00,4.3292
830.00,4.2366
829.00,4.1662
828.00,4.0104
827.00,3.8811
826.00,3.8620
825.00,3.9714
824.00,4.2368
823.00,4.4764
822.00,4.2828
821.00,4.1505
820.00,4.0749
819.00,3.9698
818.00,3.9221
817.00,3.9539
816.00,4.0133
815.00,4.0573
814.00,4.1113
813.00,4.1558
812.00,4.2207
811.00,4.3209
810.00,4.2575
809.00,4.0731
808.00,3.9534
807.00,3.9140
806.00,3.9041
805.00,3.8868
804.00,3.9097
803.00,4.0097
802.00,4.2567
801.00,4.6596
800.00,4.7889
799.00,4.6342
798.00,4.1906
797.00,4.0020
796.00,3.9727
795.00,4.1755
794.00,4.6277
793.00,4.2710
792.00,4.1011
791.00,4.2652
790.00,4.7786
789.00,4.3666
788.00,4.0739
787.00,4.0443
786.00,4.0104
785.00,4.0106
784.00,4.0424
783.00,4.3013
782.00,4.8287
781.00,4.2183
780.00,3.9619
779.00,3.9631
778.00,4.1822
777.00,4.2936
776.00,4.1365
775.00,4.0470
774.00,3.8348
773.00,3.7412
772.00,3.8139
771.00,4.0741
770.00,4.4876
769.00,4.3175
768.00,4.3582
767.00,4.9063
766.00,4.5649
765.00,4.1622
764.00,3.9642
763.00,3.8684
762.00,3.8454
761.00,3.9033
760.00,4.0396
759.00,4.2934
758.00,4.7906
757.00,4.8035
756.00,4.5208
755.00,4.4947
754.00,4.4884
753.00,4.1219
752.00,3.8391
751.00,3.7531
750.00,3.8392
749.00,4.0619
748.00,4.3257
747.00,4.6721
746.00,4.5072
745.00,4.2176
744.00,4.1718
743.00,4.1730
742.00,4.1032
741.00,4.0414
740.00,4.0079
739.00,3.9052
738.00,3.7901
737.00,3.7408
736.00,3.7442
735.00,3.7860
734.00,3.8821
733.00,4.0409
732.00,4.2641
731.00,4.5247
730.00,4.6967
729.00,4.6607
728.00,4.3934
727.00,4.1772
726.00,4.1051
725.00,4.1224
724.00,4.2221
723.00,4.6245
722.00,4.7256
721.00,4.2131
720.00,4.0274
719.00,3.9357
718.00,3.9184
717.00,3.9893
716.00,4.0882
715.00,4.1690
714.00,4.1862
713.00,4.0992
712.00,3.9656
711.00,3.8861
710.00,3.8782
709.00,3.9080
708.00,3.9520
707.00,3.9925
706.00,4.0148
705.00,4.0877
704.00,4.3232
703.00,4.7101
702.00,4.5538
701.00,4.2045
700.00,4.0180
