Created as New Dataset,Sample 044 By Administrator Date Wednesday, November 24 2021
cm-1,A
7502.00,0.7154
7501.00,0.7053
7500.00,0.6955
7499.00,0.6858
7498.00,0.6764
7497.00,0.6672
7496.00,0.6582
7495.00,0.6489
7494.00,0.6393
7493.00,0.6306
7492.00,0.6240
7491.00,0.6199
7490.00,0.6174
7489.00,0.6151
7488.00,0.6114
7487.00,0.6058
7486.00,0.5983
7485.00,0.5894
7484.00,0.5796
7483.00,0.5697
7482.00,0.5604
7481.00,0.5529
7480.00,0.5473
7479.00,0.5432
7478.00,0.5398
7477.00,0.5366
7476.00,0.5336
7475.00,0.5308
7474.00,0.5281
7473.00,0.5258
7472.00,0.5238
7471.00,0.5219
7470.00,0.5196
7469.00,0.5169
7468.00,0.5141
7467.00,0.5115
7466.00,0.5096
7465.00,0.5083
7464.00,0.5071
7463.00,0.5059
7462.00,0.5048
7461.00,0.5042
7460.00,0.5039
7459.00,0.5035
7458.00,0.5032
7457.00,0.5034
7456.00,0.5048
7455.00,0.5072
7454.00,0.5102
7453.00,0.5135
7452.00,0.5170
7451.00,0.5207
7450.00,0.5247
7449.00,0.5289
7448.00,0.5333
7447.00,0.5382
7446.00,0.5435
7445.00,0.5492
7444.00,0.5554
7443.00,0.5619
7442.00,0.5686
7441.00,0.5756
7440.00,0.5827
7439.00,0.5900
7438.00,0.5975
7437.00,0.6055
7436.00,0.6139
7435.00,0.6223
7434.00,0.6308
7433.00,0.6392
7432.00,0.6474
7431.00,0.6557
7430.00,0.6645
7429.00,0.6739
7428.00,0.6835
7427.00,0.6930
7426.00,0.7026
7425.00,0.7123
7424.00,0.7221
7423.00,0.7315
7422.00,0.7406
7421.00,0.7494
7420.00,0.7583
7419.00,0.7672
7418.00,0.7763
7417.00,0.7855
7416.00,0.7947
7415.00,0.8033
7414.00,0.8112
7413.00,0.8185
7412.00,0.8259
7411.00,0.8336
7410.00,0.8420
7409.00,0.8507
7408.00,0.8593
7407.00,0.8674
7406.00,0.8754
7405.00,0.8833
7404.00,0.8909
7403.00,0.8977
7402.00,0.9034
7401.00,0.9084
7400.00,0.9134
7399.00,0.9188
7398.00,0.9245
7397.00,0.9300
7396.00,0.9349
7395.00,0.9392
7394.00,0.9431
7393.00,0.9468
7392.00,0.9502
7391.00,0.9530
7390.00,0.9555
7389.00,0.9577
7388.00,0.9598
7387.00,0.9618
7386.00,0.9641
7385.00,0.9671
7384.00,0.9704
7383.00,0.9733
7382.00,0.9750
7381.00,0.9758
7380.00,0.9765
7379.00,0.9773
7378.00,0.9777
7377.00,0.9770
7376.00,0.9752
7375.00,0.9731
7374.00,0.9712
7373.00,0.9695
7372.00,0.9673
7371.00,0.9643
7370.00,0.9608
7369.00,0.9575
7368.00,0.9544
7367.00,0.9512
7366.00,0.9473
7365.00,0.9428
7364.00,0.9378
7363.00,0.9324
7362.00,0.9267
7361.00,0.9205
7360.00,0.9141
7359.00,0.9075
7358.00,0.9009
7357.00,0.8942
7356.00,0.8877
7355.00,0.8813
7354.00,0.8749
7353.00,0.8681
7352.00,0.8609
7351.00,0.8537
7350.00,0.8465
7349.00,0.8390
7348.00,0.8309
7347.00,0.8224
7346.00,0.8140
7345.00,0.8058
7344.00,0.7977
7343.00,0.7895
7342.00,0.7815
7341.00,0.7739
7340.00,0.7664
7339.00,0.7588
7338.00,0.7511
7337.00,0.7438
7336.00,0.7369
7335.00,0.7301
7334.00,0.7232
7333.00,0.7166
7332.00,0.7102
7331.00,0.7041
7330.00,0.6982
7329.00,0.6923
7328.00,0.6864
7327.00,0.6808
7326.00,0.6757
7325.00,0.6712
7324.00,0.6671
7323.00,0.6634
7322.00,0.6600
7321.00,0.6569
7320.00,0.6541
7319.00,0.6515
7318.00,0.6493
7317.00,0.6475
7316.00,0.6463
7315.00,0.6455
7314.00,0.6452
7313.00,0.6454
7312.00,0.6463
7311.00,0.6476
7310.00,0.6494
7309.00,0.6518
7308.00,0.6545
7307.00,0.6577
7306.00,0.6615
7305.00,0.6656
7304.00,0.6698
7303.00,0.6742
7302.00,0.6787
7301.00,0.6835
7300.00,0.6887
7299.00,0.6944
7298.00,0.7006
7297.00,0.7072
7296.00,0.7140
7295.00,0.7209
7294.00,0.7281
7293.00,0.7357
7292.00,0.7435
7291.00,0.7511
7290.00,0.7587
7289.00,0.7665
7288.00,0.7748
7287.00,0.7831
7286.00,0.7913
7285.00,0.7993
7284.00,0.8074
7283.00,0.8157
7282.00,0.8247
7281.00,0.8338
7280.00,0.8427
7279.00,0.8510
7278.00,0.8594
7277.00,0.8681
7276.00,0.8768
7275.00,0.8849
7274.00,0.8928
7273.00,0.9010
7272.00,0.9094
7271.00,0.9176
7270.00,0.9252
7269.00,0.9328
7268.00,0.9404
7267.00,0.9478
7266.00,0.9547
7265.00,0.9613
7264.00,0.9678
7263.00,0.9742
7262.00,0.9805
7261.00,0.9868
7260.00,0.9928
7259.00,0.9986
7258.00,1.0043
7257.00,1.0097
7256.00,1.0146
7255.00,1.0187
7254.00,1.0220
7253.00,1.0249
7252.00,1.0276
7251.00,1.0298
7250.00,1.0316
7249.00,1.0337
7248.00,1.0359
7247.00,1.0380
7246.00,1.0394
7245.00,1.0406
7244.00,1.0419
7243.00,1.0435
7242.00,1.0450
7241.00,1.0461
7240.00,1.0468
7239.00,1.0472
7238.00,1.0472
7237.00,1.0465
7236.00,1.0450
7235.00,1.0432
7234.00,1.0411
7233.00,1.0390
7232.00,1.0366
7231.00,1.0335
7230.00,1.0298
7229.00,1.0260
7228.00,1.0225
7227.00,1.0189
7226.00,1.0148
7225.00,1.0101
7224.00,1.0050
7223.00,0.9999
7222.00,0.9948
7221.00,0.9895
7220.00,0.9842
7219.00,0.9786
7218.00,0.9727
7217.00,0.9664
7216.00,0.9597
7215.00,0.9527
7214.00,0.9455
7213.00,0.9379
7212.00,0.9296
7211.00,0.9209
7210.00,0.9121
7209.00,0.9037
7208.00,0.8955
7207.00,0.8875
7206.00,0.8795
7205.00,0.8718
7204.00,0.8644
7203.00,0.8573
7202.00,0.8502
7201.00,0.8426
7200.00,0.8345
7199.00,0.8261
7198.00,0.8178
7197.00,0.8098
7196.00,0.8021
7195.00,0.7944
7194.00,0.7869
7193.00,0.7796
7192.00,0.7726
7191.00,0.7658
7190.00,0.7590
7189.00,0.7524
7188.00,0.7463
7187.00,0.7405
7186.00,0.7347
7185.00,0.7288
7184.00,0.7231
7183.00,0.7177
7182.00,0.7128
7181.00,0.7087
7180.00,0.7053
7179.00,0.7024
7178.00,0.6998
7177.00,0.6975
7176.00,0.6955
7175.00,0.6938
7174.00,0.6922
7173.00,0.6908
7172.00,0.6898
7171.00,0.6891
7170.00,0.6889
7169.00,0.6894
7168.00,0.6906
7167.00,0.6922
7166.00,0.6940
7165.00,0.6959
7164.00,0.6986
7163.00,0.7022
7162.00,0.7064
7161.00,0.7108
7160.00,0.7151
7159.00,0.7197
7158.00,0.7247
7157.00,0.7303
7156.00,0.7363
7155.00,0.7426
7154.00,0.7492
7153.00,0.7558
7152.00,0.7626
7151.00,0.7696
7150.00,0.7771
7149.00,0.7848
7148.00,0.7925
7147.00,0.8003
7146.00,0.8086
7145.00,0.8174
7144.00,0.8264
7143.00,0.8352
7142.00,0.8438
7141.00,0.8526
7140.00,0.8616
7139.00,0.8710
7138.00,0.8805
7137.00,0.8898
7136.00,0.8988
7135.00,0.9076
7134.00,0.9166
7133.00,0.9255
7132.00,0.9340
7131.00,0.9421
7130.00,0.9499
7129.00,0.9577
7128.00,0.9655
7127.00,0.9734
7126.00,0.9815
7125.00,0.9897
7124.00,0.9976
7123.00,1.0052
7122.00,1.0126
7121.00,1.0198
7120.00,1.0263
7119.00,1.0321
7118.00,1.0378
7117.00,1.0441
7116.00,1.0509
7115.00,1.0574
7114.00,1.0632
7113.00,1.0687
7112.00,1.0741
7111.00,1.0791
7110.00,1.0833
7109.00,1.0869
7108.00,1.0905
7107.00,1.0941
7106.00,1.0976
7105.00,1.1009
7104.00,1.1039
7103.00,1.1068
7102.00,1.1095
7101.00,1.1120
7100.00,1.1142
7099.00,1.1159
7098.00,1.1168
7097.00,1.1168
7096.00,1.1165
7095.00,1.1163
7094.00,1.1160
7093.00,1.1156
7092.00,1.1151
7091.00,1.1147
7090.00,1.1146
7089.00,1.1141
7088.00,1.1128
7087.00,1.1105
7086.00,1.1077
7085.00,1.1045
7084.00,1.1009
7083.00,1.0966
7082.00,1.0921
7081.00,1.0877
7080.00,1.0832
7079.00,1.0783
7078.00,1.0731
7077.00,1.0679
7076.00,1.0628
7075.00,1.0575
7074.00,1.0516
7073.00,1.0450
7072.00,1.0381
7071.00,1.0311
7070.00,1.0238
7069.00,1.0161
7068.00,1.0078
7067.00,0.9994
7066.00,0.9913
7065.00,0.9835
7064.00,0.9755
7063.00,0.9667
7062.00,0.9577
7061.00,0.9490
7060.00,0.9409
7059.00,0.9327
7058.00,0.9242
7057.00,0.9156
7056.00,0.9072
7055.00,0.8991
7054.00,0.8909
7053.00,0.8822
7052.00,0.8734
7051.00,0.8646
7050.00,0.8563
7049.00,0.8482
7048.00,0.8403
7047.00,0.8323
7046.00,0.8244
7045.00,0.8168
7044.00,0.8097
7043.00,0.8029
7042.00,0.7964
7041.00,0.7899
7040.00,0.7836
7039.00,0.7778
7038.00,0.7726
7037.00,0.7681
7036.00,0.7640
7035.00,0.7602
7034.00,0.7568
7033.00,0.7538
7032.00,0.7510
7031.00,0.7484
7030.00,0.7459
7029.00,0.7438
7028.00,0.7424
7027.00,0.7418
7026.00,0.7419
7025.00,0.7427
7024.00,0.7440
7023.00,0.7458
7022.00,0.7479
7021.00,0.7501
7020.00,0.7527
7019.00,0.7557
7018.00,0.7593
7017.00,0.7635
7016.00,0.7680
7015.00,0.7728
7014.00,0.7779
7013.00,0.7835
7012.00,0.7894
7011.00,0.7957
7010.00,0.8022
7009.00,0.8091
7008.00,0.8161
7007.00,0.8234
7006.00,0.8311
7005.00,0.8389
7004.00,0.8468
7003.00,0.8547
7002.00,0.8629
7001.00,0.8715
7000.00,0.8804
6999.00,0.8892
6998.00,0.8977
6997.00,0.9063
6996.00,0.9150
6995.00,0.9238
6994.00,0.9325
6993.00,0.9408
6992.00,0.9487
6991.00,0.9568
6990.00,0.9653
6989.00,0.9741
6988.00,0.9827
6987.00,0.9910
6986.00,0.9992
6985.00,1.0076
6984.00,1.0160
6983.00,1.0240
6982.00,1.0315
6981.00,1.0386
6980.00,1.0454
6979.00,1.0519
6978.00,1.0585
6977.00,1.0650
6976.00,1.0712
6975.00,1.0769
6974.00,1.0824
6973.00,1.0879
6972.00,1.0934
6971.00,1.0987
6970.00,1.1036
6969.00,1.1082
6968.00,1.1125
6967.00,1.1164
6966.00,1.1200
6965.00,1.1235
6964.00,1.1266
6963.00,1.1290
6962.00,1.1309
6961.00,1.1325
6960.00,1.1340
6959.00,1.1356
6958.00,1.1371
6957.00,1.1382
6956.00,1.1388
6955.00,1.1388
6954.00,1.1384
6953.00,1.1379
6952.00,1.1371
6951.00,1.1358
6950.00,1.1342
6949.00,1.1326
6948.00,1.1310
6947.00,1.1288
6946.00,1.1257
6945.00,1.1218
6944.00,1.1174
6943.00,1.1128
6942.00,1.1082
6941.00,1.1040
6940.00,1.0999
6939.00,1.0957
6938.00,1.0910
6937.00,1.0862
6936.00,1.0811
6935.00,1.0753
6934.00,1.0687
6933.00,1.0618
6932.00,1.0549
6931.00,1.0480
6930.00,1.0408
6929.00,1.0333
6928.00,1.0256
6927.00,1.0175
6926.00,1.0091
6925.00,1.0007
6924.00,0.9923
6923.00,0.9838
6922.00,0.9751
6921.00,0.9662
6920.00,0.9570
6919.00,0.9477
6918.00,0.9384
6917.00,0.9294
6916.00,0.9205
6915.00,0.9118
6914.00,0.9030
6913.00,0.8943
6912.00,0.8857
6911.00,0.8772
6910.00,0.8686
6909.00,0.8601
6908.00,0.8517
6907.00,0.8435
6906.00,0.8355
6905.00,0.8277
6904.00,0.8201
6903.00,0.8124
6902.00,0.8050
6901.00,0.7979
6900.00,0.7916
6899.00,0.7858
6898.00,0.7805
6897.00,0.7754
6896.00,0.7705
6895.00,0.7658
6894.00,0.7614
6893.00,0.7572
6892.00,0.7533
6891.00,0.7497
6890.00,0.7467
6889.00,0.7444
6888.00,0.7427
6887.00,0.7413
6886.00,0.7403
6885.00,0.7397
6884.00,0.7394
6883.00,0.7395
6882.00,0.7400
6881.00,0.7410
6880.00,0.7426
6879.00,0.7447
6878.00,0.7473
6877.00,0.7505
6876.00,0.7542
6875.00,0.7584
6874.00,0.7631
6873.00,0.7680
6872.00,0.7731
6871.00,0.7783
6870.00,0.7838
6869.00,0.7897
6868.00,0.7961
6867.00,0.8029
6866.00,0.8101
6865.00,0.8176
6864.00,0.8252
6863.00,0.8331
6862.00,0.8412
6861.00,0.8494
6860.00,0.8578
6859.00,0.8663
6858.00,0.8749
6857.00,0.8837
6856.00,0.8924
6855.00,0.9010
6854.00,0.9095
6853.00,0.9180
6852.00,0.9265
6851.00,0.9351
6850.00,0.9441
6849.00,0.9534
6848.00,0.9629
6847.00,0.9723
6846.00,0.9814
6845.00,0.9903
6844.00,0.9992
6843.00,1.0081
6842.00,1.0169
6841.00,1.0255
6840.00,1.0339
6839.00,1.0420
6838.00,1.0501
6837.00,1.0579
6836.00,1.0657
6835.00,1.0731
6834.00,1.0803
6833.00,1.0871
6832.00,1.0936
6831.00,1.1000
6830.00,1.1065
6829.00,1.1128
6828.00,1.1189
6827.00,1.1247
6826.00,1.1303
6825.00,1.1355
6824.00,1.1405
6823.00,1.1452
6822.00,1.1496
6821.00,1.1534
6820.00,1.1567
6819.00,1.1601
6818.00,1.1636
6817.00,1.1669
6816.00,1.1698
6815.00,1.1722
6814.00,1.1746
6813.00,1.1765
6812.00,1.1778
6811.00,1.1783
6810.00,1.1785
6809.00,1.1784
6808.00,1.1779
6807.00,1.1770
6806.00,1.1760
6805.00,1.1750
6804.00,1.1737
6803.00,1.1719
6802.00,1.1694
6801.00,1.1666
6800.00,1.1638
6799.00,1.1610
6798.00,1.1579
6797.00,1.1547
6796.00,1.1511
6795.00,1.1471
6794.00,1.1424
6793.00,1.1372
6792.00,1.1317
6791.00,1.1260
6790.00,1.1200
6789.00,1.1139
6788.00,1.1075
6787.00,1.1008
6786.00,1.0940
6785.00,1.0869
6784.00,1.0795
6783.00,1.0719
6782.00,1.0641
6781.00,1.0563
6780.00,1.0484
6779.00,1.0402
6778.00,1.0314
6777.00,1.0221
6776.00,1.0126
6775.00,1.0030
6774.00,0.9936
6773.00,0.9843
6772.00,0.9752
6771.00,0.9662
6770.00,0.9572
6769.00,0.9479
6768.00,0.9384
6767.00,0.9285
6766.00,0.9188
6765.00,0.9094
6764.00,0.9003
6763.00,0.8915
6762.00,0.8829
6761.00,0.8743
6760.00,0.8660
6759.00,0.8578
6758.00,0.8497
6757.00,0.8417
6756.00,0.8340
6755.00,0.8265
6754.00,0.8197
6753.00,0.8135
6752.00,0.8076
6751.00,0.8019
6750.00,0.7966
6749.00,0.7917
6748.00,0.7873
6747.00,0.7832
6746.00,0.7795
6745.00,0.7763
6744.00,0.7738
6743.00,0.7718
6742.00,0.7703
6741.00,0.7694
6740.00,0.7688
6739.00,0.7685
6738.00,0.7687
6737.00,0.7695
6736.00,0.7709
6735.00,0.7730
6734.00,0.7757
6733.00,0.7789
6732.00,0.7824
6731.00,0.7863
6730.00,0.7905
6729.00,0.7952
6728.00,0.8002
6727.00,0.8056
6726.00,0.8115
6725.00,0.8180
6724.00,0.8248
6723.00,0.8319
6722.00,0.8391
6721.00,0.8466
6720.00,0.8542
6719.00,0.8620
6718.00,0.8700
6717.00,0.8783
6716.00,0.8868
6715.00,0.8958
6714.00,0.9049
6713.00,0.9141
6712.00,0.9230
6711.00,0.9316
6710.00,0.9403
6709.00,0.9491
6708.00,0.9578
6707.00,0.9665
6706.00,0.9755
6705.00,0.9847
6704.00,0.9941
6703.00,1.0032
6702.00,1.0120
6701.00,1.0206
6700.00,1.0291
6699.00,1.0374
6698.00,1.0455
6697.00,1.0534
6696.00,1.0612
6695.00,1.0688
6694.00,1.0765
6693.00,1.0841
6692.00,1.0916
6691.00,1.0989
6690.00,1.1059
6689.00,1.1128
6688.00,1.1192
6687.00,1.1251
6686.00,1.1304
6685.00,1.1355
6684.00,1.1404
6683.00,1.1449
6682.00,1.1488
6681.00,1.1521
6680.00,1.1554
6679.00,1.1587
6678.00,1.1621
6677.00,1.1654
6676.00,1.1687
6675.00,1.1718
6674.00,1.1746
6673.00,1.1767
6672.00,1.1780
6671.00,1.1786
6670.00,1.1787
6669.00,1.1788
6668.00,1.1785
6667.00,1.1780
6666.00,1.1773
6665.00,1.1764
6664.00,1.1750
6663.00,1.1732
6662.00,1.1710
6661.00,1.1686
6660.00,1.1662
6659.00,1.1635
6658.00,1.1605
6657.00,1.1570
6656.00,1.1529
6655.00,1.1483
6654.00,1.1435
6653.00,1.1388
6652.00,1.1340
6651.00,1.1289
6650.00,1.1234
6649.00,1.1176
6648.00,1.1112
6647.00,1.1042
6646.00,1.0969
6645.00,1.0895
6644.00,1.0822
6643.00,1.0746
6642.00,1.0666
6641.00,1.0583
6640.00,1.0496
6639.00,1.0405
6638.00,1.0313
6637.00,1.0221
6636.00,1.0129
6635.00,1.0038
6634.00,0.9949
6633.00,0.9861
6632.00,0.9771
6631.00,0.9678
6630.00,0.9584
6629.00,0.9490
6628.00,0.9396
6627.00,0.9298
6626.00,0.9200
6625.00,0.9102
6624.00,0.9008
6623.00,0.8917
6622.00,0.8827
6621.00,0.8739
6620.00,0.8653
6619.00,0.8568
6618.00,0.8484
6617.00,0.8402
6616.00,0.8324
6615.00,0.8248
6614.00,0.8176
6613.00,0.8110
6612.00,0.8047
6611.00,0.7986
6610.00,0.7926
6609.00,0.7869
6608.00,0.7813
6607.00,0.7761
6606.00,0.7712
6605.00,0.7668
6604.00,0.7630
6603.00,0.7597
6602.00,0.7570
6601.00,0.7549
6600.00,0.7533
6599.00,0.7520
6598.00,0.7512
6597.00,0.7509
6596.00,0.7512
6595.00,0.7520
6594.00,0.7534
6593.00,0.7553
6592.00,0.7575
6591.00,0.7600
6590.00,0.7631
6589.00,0.7667
6588.00,0.7708
6587.00,0.7752
6586.00,0.7801
6585.00,0.7855
6584.00,0.7914
6583.00,0.7976
6582.00,0.8041
6581.00,0.8108
6580.00,0.8180
6579.00,0.8255
6578.00,0.8334
6577.00,0.8417
6576.00,0.8504
6575.00,0.8591
6574.00,0.8679
6573.00,0.8767
6572.00,0.8856
6571.00,0.8946
6570.00,0.9038
6569.00,0.9132
6568.00,0.9227
6567.00,0.9321
6566.00,0.9414
6565.00,0.9506
6564.00,0.9598
6563.00,0.9692
6562.00,0.9787
6561.00,0.9884
6560.00,0.9981
6559.00,1.0077
6558.00,1.0171
6557.00,1.0262
6556.00,1.0350
6555.00,1.0433
6554.00,1.0515
6553.00,1.0599
6552.00,1.0686
6551.00,1.0773
6550.00,1.0857
6549.00,1.0936
6548.00,1.1013
6547.00,1.1090
6546.00,1.1165
6545.00,1.1236
6544.00,1.1303
6543.00,1.1366
6542.00,1.1427
6541.00,1.1486
6540.00,1.1543
6539.00,1.1596
6538.00,1.1647
6537.00,1.1696
6536.00,1.1741
6535.00,1.1782
6534.00,1.1819
6533.00,1.1851
6532.00,1.1879
6531.00,1.1906
6530.00,1.1931
6529.00,1.1955
6528.00,1.1975
6527.00,1.1990
6526.00,1.1999
6525.00,1.2006
6524.00,1.2011
6523.00,1.2015
6522.00,1.2018
6521.00,1.2019
6520.00,1.2019
6519.00,1.2013
6518.00,1.1999
6517.00,1.1976
6516.00,1.1950
6515.00,1.1923
6514.00,1.1894
6513.00,1.1863
6512.00,1.1831
6511.00,1.1800
6510.00,1.1767
6509.00,1.1729
6508.00,1.1683
6507.00,1.1630
6506.00,1.1571
6505.00,1.1507
6504.00,1.1439
6503.00,1.1368
6502.00,1.1298
6501.00,1.1229
6500.00,1.1160
6499.00,1.1089
6498.00,1.1017
6497.00,1.0943
6496.00,1.0864
6495.00,1.0777
6494.00,1.0686
6493.00,1.0592
6492.00,1.0498
6491.00,1.0404
6490.00,1.0308
6489.00,1.0211
6488.00,1.0113
6487.00,1.0012
6486.00,0.9910
6485.00,0.9807
6484.00,0.9704
6483.00,0.9602
6482.00,0.9500
6481.00,0.9400
6480.00,0.9299
6479.00,0.9198
6478.00,0.9098
6477.00,0.9000
6476.00,0.8904
6475.00,0.8811
6474.00,0.8719
6473.00,0.8629
6472.00,0.8541
6471.00,0.8454
6470.00,0.8371
6469.00,0.8290
6468.00,0.8213
6467.00,0.8139
6466.00,0.8068
6465.00,0.8000
6464.00,0.7937
6463.00,0.7878
6462.00,0.7825
6461.00,0.7779
6460.00,0.7739
6459.00,0.7704
6458.00,0.7675
6457.00,0.7649
6456.00,0.7627
6455.00,0.7610
6454.00,0.7599
6453.00,0.7594
6452.00,0.7595
6451.00,0.7601
6450.00,0.7612
6449.00,0.7628
6448.00,0.7651
6447.00,0.7679
6446.00,0.7713
6445.00,0.7753
6444.00,0.7798
6443.00,0.7848
6442.00,0.7902
6441.00,0.7961
6440.00,0.8023
6439.00,0.8089
6438.00,0.8159
6437.00,0.8232
6436.00,0.8306
6435.00,0.8382
6434.00,0.8459
6433.00,0.8538
6432.00,0.8620
6431.00,0.8704
6430.00,0.8791
6429.00,0.8884
6428.00,0.8979
6427.00,0.9075
6426.00,0.9171
6425.00,0.9265
6424.00,0.9358
6423.00,0.9448
6422.00,0.9539
6421.00,0.9632
6420.00,0.9727
6419.00,0.9825
6418.00,0.9923
6417.00,1.0020
6416.00,1.0116
6415.00,1.0210
6414.00,1.0302
6413.00,1.0391
6412.00,1.0476
6411.00,1.0559
6410.00,1.0642
6409.00,1.0727
6408.00,1.0810
6407.00,1.0891
6406.00,1.0967
6405.00,1.1040
6404.00,1.1110
6403.00,1.1177
6402.00,1.1239
6401.00,1.1300
6400.00,1.1361
6399.00,1.1423
6398.00,1.1484
6397.00,1.1542
6396.00,1.1596
6395.00,1.1645
6394.00,1.1691
6393.00,1.1733
6392.00,1.1770
6391.00,1.1803
6390.00,1.1831
6389.00,1.1854
6388.00,1.1873
6387.00,1.1889
6386.00,1.1903
6385.00,1.1915
6384.00,1.1922
6383.00,1.1925
6382.00,1.1924
6381.00,1.1920
6380.00,1.1914
6379.00,1.1906
6378.00,1.1897
6377.00,1.1886
6376.00,1.1871
6375.00,1.1849
6374.00,1.1821
6373.00,1.1788
6372.00,1.1753
6371.00,1.1717
6370.00,1.1679
6369.00,1.1637
6368.00,1.1591
6367.00,1.1542
6366.00,1.1490
6365.00,1.1436
6364.00,1.1378
6363.00,1.1317
6362.00,1.1254
6361.00,1.1189
6360.00,1.1120
6359.00,1.1047
6358.00,1.0972
6357.00,1.0894
6356.00,1.0814
6355.00,1.0732
6354.00,1.0649
6353.00,1.0565
6352.00,1.0479
6351.00,1.0393
6350.00,1.0306
6349.00,1.0220
6348.00,1.0132
6347.00,1.0043
6346.00,0.9952
6345.00,0.9862
6344.00,0.9771
6343.00,0.9678
6342.00,0.9584
6341.00,0.9492
6340.00,0.9399
6339.00,0.9304
6338.00,0.9208
6337.00,0.9114
6336.00,0.9021
6335.00,0.8928
6334.00,0.8836
6333.00,0.8746
6332.00,0.8657
6331.00,0.8568
6330.00,0.8479
6329.00,0.8391
6328.00,0.8303
6327.00,0.8217
6326.00,0.8133
6325.00,0.8052
6324.00,0.7972
6323.00,0.7893
6322.00,0.7817
6321.00,0.7746
6320.00,0.7681
6319.00,0.7620
6318.00,0.7566
6317.00,0.7519
6316.00,0.7479
6315.00,0.7442
6314.00,0.7411
6313.00,0.7385
6312.00,0.7366
6311.00,0.7354
6310.00,0.7348
6309.00,0.7349
6308.00,0.7357
6307.00,0.7371
6306.00,0.7390
6305.00,0.7415
6304.00,0.7444
6303.00,0.7478
6302.00,0.7517
6301.00,0.7561
6300.00,0.7611
6299.00,0.7665
6298.00,0.7724
6297.00,0.7787
6296.00,0.7854
6295.00,0.7925
6294.00,0.7999
6293.00,0.8078
6292.00,0.8159
6291.00,0.8242
6290.00,0.8328
6289.00,0.8416
6288.00,0.8508
6287.00,0.8603
6286.00,0.8699
6285.00,0.8798
6284.00,0.8897
6283.00,0.8998
6282.00,0.9098
6281.00,0.9197
6280.00,0.9294
6279.00,0.9390
6278.00,0.9487
6277.00,0.9586
6276.00,0.9686
6275.00,0.9785
6274.00,0.9884
6273.00,0.9984
6272.00,1.0084
6271.00,1.0181
6270.00,1.0275
6269.00,1.0368
6268.00,1.0461
6267.00,1.0553
6266.00,1.0643
6265.00,1.0730
6264.00,1.0815
6263.00,1.0898
6262.00,1.0978
6261.00,1.1055
6260.00,1.1128
6259.00,1.1197
6258.00,1.1265
6257.00,1.1331
6256.00,1.1395
6255.00,1.1455
6254.00,1.1514
6253.00,1.1573
6252.00,1.1633
6251.00,1.1690
6250.00,1.1743
6249.00,1.1789
6248.00,1.1832
6247.00,1.1871
6246.00,1.1907
6245.00,1.1935
6244.00,1.1958
6243.00,1.1979
6242.00,1.2001
6241.00,1.2021
6240.00,1.2038
6239.00,1.2051
6238.00,1.2061
6237.00,1.2066
6236.00,1.2065
6235.00,1.2057
6234.00,1.2045
6233.00,1.2031
6232.00,1.2015
6231.00,1.1996
6230.00,1.1978
6229.00,1.1960
6228.00,1.1939
6227.00,1.1911
6226.00,1.1876
6225.00,1.1836
6224.00,1.1796
6223.00,1.1754
6222.00,1.1708
6221.00,1.1657
6220.00,1.1602
6219.00,1.1543
6218.00,1.1480
6217.00,1.1413
6216.00,1.1342
6215.00,1.1269
6214.00,1.1193
6213.00,1.1116
6212.00,1.1037
6211.00,1.0955
6210.00,1.0869
6209.00,1.0780
6208.00,1.0691
6207.00,1.0599
6206.00,1.0504
6205.00,1.0405
6204.00,1.0302
6203.00,1.0198
6202.00,1.0093
6201.00,0.9988
6200.00,0.9882
6199.00,0.9775
6198.00,0.9668
6197.00,0.9560
6196.00,0.9451
6195.00,0.9339
6194.00,0.9227
6193.00,0.9115
6192.00,0.9006
6191.00,0.8898
6190.00,0.8792
6189.00,0.8688
6188.00,0.8586
6187.00,0.8485
6186.00,0.8387
6185.00,0.8291
6184.00,0.8198
6183.00,0.8107
6182.00,0.8019
6181.00,0.7934
6180.00,0.7853
6179.00,0.7777
6178.00,0.7706
6177.00,0.7642
6176.00,0.7583
6175.00,0.7529
6174.00,0.7480
6173.00,0.7435
6172.00,0.7397
6171.00,0.7363
6170.00,0.7335
6169.00,0.7313
6168.00,0.7297
6167.00,0.7288
6166.00,0.7286
6165.00,0.7289
6164.00,0.7299
6163.00,0.7316
6162.00,0.7339
6161.00,0.7367
6160.00,0.7401
6159.00,0.7439
6158.00,0.7482
6157.00,0.7531
6156.00,0.7585
6155.00,0.7644
6154.00,0.7709
6153.00,0.7778
6152.00,0.7851
6151.00,0.7927
6150.00,0.8005
6149.00,0.8086
6148.00,0.8170
6147.00,0.8257
6146.00,0.8347
6145.00,0.8440
6144.00,0.8536
6143.00,0.8633
6142.00,0.8730
6141.00,0.8827
6140.00,0.8925
6139.00,0.9026
6138.00,0.9129
6137.00,0.9232
6136.00,0.9333
6135.00,0.9433
6134.00,0.9532
6133.00,0.9632
6132.00,0.9732
6131.00,0.9832
6130.00,0.9933
6129.00,1.0035
6128.00,1.0135
6127.00,1.0231
6126.00,1.0324
6125.00,1.0415
6124.00,1.0504
6123.00,1.0592
6122.00,1.0680
6121.00,1.0766
6120.00,1.0849
6119.00,1.0928
6118.00,1.1006
6117.00,1.1081
6116.00,1.1153
6115.00,1.1221
6114.00,1.1285
6113.00,1.1345
6112.00,1.1401
6111.00,1.1454
6110.00,1.1507
6109.00,1.1559
6108.00,1.1610
6107.00,1.1658
6106.00,1.1702
6105.00,1.1740
6104.00,1.1771
6103.00,1.1798
6102.00,1.1822
6101.00,1.1843
6100.00,1.1860
6099.00,1.1874
6098.00,1.1886
6097.00,1.1895
6096.00,1.1900
6095.00,1.1902
6094.00,1.1904
6093.00,1.1902
6092.00,1.1895
6091.00,1.1881
6090.00,1.1866
6089.00,1.1849
6088.00,1.1829
6087.00,1.1804
6086.00,1.1776
6085.00,1.1746
6084.00,1.1711
6083.00,1.1669
6082.00,1.1624
6081.00,1.1578
6080.00,1.1529
6079.00,1.1478
6078.00,1.1425
6077.00,1.1369
6076.00,1.1311
6075.00,1.1247
6074.00,1.1180
6073.00,1.1109
6072.00,1.1036
6071.00,1.0961
6070.00,1.0885
6069.00,1.0806
6068.00,1.0724
6067.00,1.0638
6066.00,1.0550
6065.00,1.0461
6064.00,1.0369
6063.00,1.0273
6062.00,1.0174
6061.00,1.0073
6060.00,0.9968
6059.00,0.9862
6058.00,0.9754
6057.00,0.9647
6056.00,0.9541
6055.00,0.9435
6054.00,0.9329
6053.00,0.9225
6052.00,0.9120
6051.00,0.9015
6050.00,0.8909
6049.00,0.8805
6048.00,0.8699
6047.00,0.8593
6046.00,0.8487
6045.00,0.8383
6044.00,0.8282
6043.00,0.8183
6042.00,0.8087
6041.00,0.7995
6040.00,0.7906
6039.00,0.7819
6038.00,0.7735
6037.00,0.7655
6036.00,0.7580
6035.00,0.7509
6034.00,0.7443
6033.00,0.7382
6032.00,0.7327
6031.00,0.7277
6030.00,0.7231
6029.00,0.7192
6028.00,0.7158
6027.00,0.7130
6026.00,0.7108
6025.00,0.7093
6024.00,0.7084
6023.00,0.7083
6022.00,0.7088
6021.00,0.7100
6020.00,0.7119
6019.00,0.7144
6018.00,0.7176
6017.00,0.7213
6016.00,0.7255
6015.00,0.7301
6014.00,0.7354
6013.00,0.7412
6012.00,0.7475
6011.00,0.7542
6010.00,0.7616
6009.00,0.7694
6008.00,0.7777
6007.00,0.7860
6006.00,0.7946
6005.00,0.8034
6004.00,0.8126
6003.00,0.8220
6002.00,0.8317
6001.00,0.8417
6000.00,0.8518
5999.00,0.8619
5998.00,0.8721
5997.00,0.8824
5996.00,0.8929
5995.00,0.9036
5994.00,0.9144
5993.00,0.9252
5992.00,0.9360
5991.00,0.9466
5990.00,0.9569
5989.00,0.9672
5988.00,0.9774
5987.00,0.9875
5986.00,0.9975
5985.00,1.0076
5984.00,1.0179
5983.00,1.0281
5982.00,1.0381
5981.00,1.0481
5980.00,1.0579
5979.00,1.0674
5978.00,1.0765
5977.00,1.0851
5976.00,1.0934
5975.00,1.1014
5974.00,1.1092
5973.00,1.1169
5972.00,1.1245
5971.00,1.1317
5970.00,1.1387
5969.00,1.1457
5968.00,1.1523
5967.00,1.1586
5966.00,1.1644
5965.00,1.1698
5964.00,1.1748
5963.00,1.1798
5962.00,1.1844
5961.00,1.1888
5960.00,1.1928
5959.00,1.1966
5958.00,1.2002
5957.00,1.2035
5956.00,1.2065
5955.00,1.2091
5954.00,1.2112
5953.00,1.2128
5952.00,1.2137
5951.00,1.2137
5950.00,1.2133
5949.00,1.2126
5948.00,1.2116
5947.00,1.2104
5946.00,1.2088
5945.00,1.2069
5944.00,1.2046
5943.00,1.2020
5942.00,1.1992
5941.00,1.1964
5940.00,1.1933
5939.00,1.1897
5938.00,1.1857
5937.00,1.1813
5936.00,1.1765
5935.00,1.1712
5934.00,1.1654
5933.00,1.1593
5932.00,1.1529
5931.00,1.1464
5930.00,1.1397
5929.00,1.1327
5928.00,1.1253
5927.00,1.1174
5926.00,1.1089
5925.00,1.0999
5924.00,1.0903
5923.00,1.0804
5922.00,1.0703
5921.00,1.0602
5920.00,1.0500
5919.00,1.0395
5918.00,1.0289
5917.00,1.0181
5916.00,1.0073
5915.00,0.9964
5914.00,0.9854
5913.00,0.9742
5912.00,0.9628
5911.00,0.9511
5910.00,0.9393
5909.00,0.9274
5908.00,0.9155
5907.00,0.9035
5906.00,0.8918
5905.00,0.8805
5904.00,0.8692
5903.00,0.8580
5902.00,0.8467
5901.00,0.8356
5900.00,0.8247
5899.00,0.8139
5898.00,0.8035
5897.00,0.7935
5896.00,0.7841
5895.00,0.7751
5894.00,0.7664
5893.00,0.7581
5892.00,0.7503
5891.00,0.7430
5890.00,0.7363
5889.00,0.7300
5888.00,0.7243
5887.00,0.7191
5886.00,0.7146
5885.00,0.7106
5884.00,0.7073
5883.00,0.7048
5882.00,0.7030
5881.00,0.7020
5880.00,0.7016
5879.00,0.7017
5878.00,0.7025
5877.00,0.7041
5876.00,0.7063
5875.00,0.7093
5874.00,0.7130
5873.00,0.7174
5872.00,0.7223
5871.00,0.7276
5870.00,0.7334
5869.00,0.7397
5868.00,0.7466
5867.00,0.7540
5866.00,0.7618
5865.00,0.7701
5864.00,0.7787
5863.00,0.7877
5862.00,0.7970
5861.00,0.8068
5860.00,0.8169
5859.00,0.8272
5858.00,0.8375
5857.00,0.8479
5856.00,0.8584
5855.00,0.8691
5854.00,0.8801
5853.00,0.8914
5852.00,0.9028
5851.00,0.9143
5850.00,0.9257
5849.00,0.9370
5848.00,0.9482
5847.00,0.9592
5846.00,0.9702
5845.00,0.9812
5844.00,0.9923
5843.00,1.0034
5842.00,1.0141
5841.00,1.0246
5840.00,1.0349
5839.00,1.0450
5838.00,1.0549
5837.00,1.0646
5836.00,1.0739
5835.00,1.0830
5834.00,1.0920
5833.00,1.1007
5832.00,1.1091
5831.00,1.1172
5830.00,1.1250
5829.00,1.1328
5828.00,1.1404
5827.00,1.1475
5826.00,1.1541
5825.00,1.1603
5824.00,1.1661
5823.00,1.1713
5822.00,1.1760
5821.00,1.1805
5820.00,1.1848
5819.00,1.1893
5818.00,1.1938
5817.00,1.1981
5816.00,1.2020
5815.00,1.2052
5814.00,1.2078
5813.00,1.2099
5812.00,1.2117
5811.00,1.2129
5810.00,1.2140
5809.00,1.2149
5808.00,1.2157
5807.00,1.2162
5806.00,1.2162
5805.00,1.2158
5804.00,1.2149
5803.00,1.2136
5802.00,1.2119
5801.00,1.2099
5800.00,1.2077
5799.00,1.2053
5798.00,1.2026
5797.00,1.1994
5796.00,1.1957
5795.00,1.1913
5794.00,1.1865
5793.00,1.1814
5792.00,1.1761
5791.00,1.1706
5790.00,1.1648
5789.00,1.1589
5788.00,1.1528
5787.00,1.1463
5786.00,1.1394
5785.00,1.1318
5784.00,1.1235
5783.00,1.1148
5782.00,1.1060
5781.00,1.0970
5780.00,1.0878
5779.00,1.0782
5778.00,1.0683
5777.00,1.0582
5776.00,1.0477
5775.00,1.0367
5774.00,1.0256
5773.00,1.0146
5772.00,1.0034
5771.00,0.9919
5770.00,0.9802
5769.00,0.9682
5768.00,0.9562
5767.00,0.9441
5766.00,0.9320
5765.00,0.9199
5764.00,0.9078
5763.00,0.8956
5762.00,0.8834
5761.00,0.8714
5760.00,0.8595
5759.00,0.8478
5758.00,0.8363
5757.00,0.8252
5756.00,0.8143
5755.00,0.8035
5754.00,0.7928
5753.00,0.7825
5752.00,0.7727
5751.00,0.7633
5750.00,0.7545
5749.00,0.7462
5748.00,0.7383
5747.00,0.7308
5746.00,0.7239
5745.00,0.7175
5744.00,0.7118
5743.00,0.7066
5742.00,0.7021
5741.00,0.6982
5740.00,0.6950
5739.00,0.6924
5738.00,0.6906
5737.00,0.6896
5736.00,0.6894
5735.00,0.6897
5734.00,0.6907
5733.00,0.6925
5732.00,0.6950
5731.00,0.6982
5730.00,0.7021
5729.00,0.7066
5728.00,0.7117
5727.00,0.7174
5726.00,0.7236
5725.00,0.7304
5724.00,0.7377
5723.00,0.7454
5722.00,0.7534
5721.00,0.7619
5720.00,0.7708
5719.00,0.7801
5718.00,0.7898
5717.00,0.8000
5716.00,0.8104
5715.00,0.8209
5714.00,0.8314
5713.00,0.8422
5712.00,0.8530
5711.00,0.8639
5710.00,0.8748
5709.00,0.8859
5708.00,0.8970
5707.00,0.9082
5706.00,0.9196
5705.00,0.9311
5704.00,0.9426
5703.00,0.9539
5702.00,0.9650
5701.00,0.9759
5700.00,0.9868
5699.00,0.9975
5698.00,1.0081
5697.00,1.0188
5696.00,1.0295
5695.00,1.0400
5694.00,1.0503
5693.00,1.0605
5692.00,1.0706
5691.00,1.0804
5690.00,1.0897
5689.00,1.0987
5688.00,1.1073
5687.00,1.1156
5686.00,1.1237
5685.00,1.1318
5684.00,1.1398
5683.00,1.1476
5682.00,1.1552
5681.00,1.1625
5680.00,1.1693
5679.00,1.1755
5678.00,1.1811
5677.00,1.1863
5676.00,1.1910
5675.00,1.1954
5674.00,1.1994
5673.00,1.2033
5672.00,1.2072
5671.00,1.2110
5670.00,1.2143
5669.00,1.2170
5668.00,1.2193
5667.00,1.2212
5666.00,1.2226
5665.00,1.2238
5664.00,1.2247
5663.00,1.2253
5662.00,1.2254
5661.00,1.2249
5660.00,1.2240
5659.00,1.2226
5658.00,1.2210
5657.00,1.2192
5656.00,1.2170
5655.00,1.2145
5654.00,1.2116
5653.00,1.2084
5652.00,1.2048
5651.00,1.2006
5650.00,1.1961
5649.00,1.1913
5648.00,1.1864
5647.00,1.1812
5646.00,1.1756
5645.00,1.1694
5644.00,1.1629
5643.00,1.1557
5642.00,1.1480
5641.00,1.1398
5640.00,1.1315
5639.00,1.1229
5638.00,1.1140
5637.00,1.1049
5636.00,1.0954
5635.00,1.0856
5634.00,1.0754
5633.00,1.0649
5632.00,1.0539
5631.00,1.0426
5630.00,1.0311
5629.00,1.0194
5628.00,1.0075
5627.00,0.9955
5626.00,0.9834
5625.00,0.9711
5624.00,0.9586
5623.00,0.9460
5622.00,0.9334
5621.00,0.9209
5620.00,0.9084
5619.00,0.8956
5618.00,0.8829
5617.00,0.8703
5616.00,0.8580
5615.00,0.8457
5614.00,0.8336
5613.00,0.8218
5612.00,0.8102
5611.00,0.7988
5610.00,0.7877
5609.00,0.7771
5608.00,0.7669
5607.00,0.7571
5606.00,0.7478
5605.00,0.7391
5604.00,0.7309
5603.00,0.7233
5602.00,0.7164
5601.00,0.7102
5600.00,0.7045
5599.00,0.6995
5598.00,0.6952
5597.00,0.6916
5596.00,0.6888
5595.00,0.6867
5594.00,0.6854
5593.00,0.6849
5592.00,0.6851
5591.00,0.6861
5590.00,0.6879
5589.00,0.6905
5588.00,0.6938
5587.00,0.6978
5586.00,0.7025
5585.00,0.7080
5584.00,0.7140
5583.00,0.7207
5582.00,0.7279
5581.00,0.7358
5580.00,0.7441
5579.00,0.7529
5578.00,0.7622
5577.00,0.7720
5576.00,0.7821
5575.00,0.7925
5574.00,0.8032
5573.00,0.8141
5572.00,0.8254
5571.00,0.8369
5570.00,0.8486
5569.00,0.8605
5568.00,0.8726
5567.00,0.8848
5566.00,0.8970
5565.00,0.9093
5564.00,0.9215
5563.00,0.9338
5562.00,0.9461
5561.00,0.9583
5560.00,0.9704
5559.00,0.9823
5558.00,0.9942
5557.00,1.0060
5556.00,1.0177
5555.00,1.0293
5554.00,1.0409
5553.00,1.0522
5552.00,1.0633
5551.00,1.0740
5550.00,1.0844
5549.00,1.0946
5548.00,1.1045
5547.00,1.1142
5546.00,1.1238
5545.00,1.1331
5544.00,1.1421
5543.00,1.1505
5542.00,1.1584
5541.00,1.1661
5540.00,1.1735
5539.00,1.1807
5538.00,1.1875
5537.00,1.1940
5536.00,1.2001
5535.00,1.2059
5534.00,1.2114
5533.00,1.2167
5532.00,1.2216
5531.00,1.2263
5530.00,1.2303
5529.00,1.2337
5528.00,1.2366
5527.00,1.2392
5526.00,1.2416
5525.00,1.2439
5524.00,1.2460
5523.00,1.2478
5522.00,1.2492
5521.00,1.2497
5520.00,1.2496
5519.00,1.2489
5518.00,1.2479
5517.00,1.2468
5516.00,1.2454
5515.00,1.2438
5514.00,1.2417
5513.00,1.2392
5512.00,1.2362
5511.00,1.2328
5510.00,1.2291
5509.00,1.2253
5508.00,1.2212
5507.00,1.2166
5506.00,1.2114
5505.00,1.2058
5504.00,1.1999
5503.00,1.1937
5502.00,1.1871
5501.00,1.1801
5500.00,1.1727
5499.00,1.1648
5498.00,1.1566
5497.00,1.1480
5496.00,1.1390
5495.00,1.1296
5494.00,1.1200
5493.00,1.1102
5492.00,1.1001
5491.00,1.0897
5490.00,1.0787
5489.00,1.0674
5488.00,1.0555
5487.00,1.0433
5486.00,1.0307
5485.00,1.0181
5484.00,1.0055
5483.00,0.9926
5482.00,0.9797
5481.00,0.9666
5480.00,0.9534
5479.00,0.9403
5478.00,0.9270
5477.00,0.9136
5476.00,0.9002
5475.00,0.8866
5474.00,0.8730
5473.00,0.8596
5472.00,0.8464
5471.00,0.8335
5470.00,0.8208
5469.00,0.8084
5468.00,0.7963
5467.00,0.7847
5466.00,0.7735
5465.00,0.7628
5464.00,0.7524
5463.00,0.7425
5462.00,0.7330
5461.00,0.7240
5460.00,0.7157
5459.00,0.7082
5458.00,0.7014
5457.00,0.6954
5456.00,0.6901
5455.00,0.6857
5454.00,0.6820
5453.00,0.6791
5452.00,0.6770
5451.00,0.6757
5450.00,0.6752
5449.00,0.6756
5448.00,0.6768
5447.00,0.6788
5446.00,0.6817
5445.00,0.6852
5444.00,0.6895
5443.00,0.6945
5442.00,0.7002
5441.00,0.7067
5440.00,0.7139
5439.00,0.7216
5438.00,0.7298
5437.00,0.7384
5436.00,0.7477
5435.00,0.7576
5434.00,0.7682
5433.00,0.7790
5432.00,0.7899
5431.00,0.8009
5430.00,0.8123
5429.00,0.8243
5428.00,0.8366
5427.00,0.8493
5426.00,0.8621
5425.00,0.8749
5424.00,0.8877
5423.00,0.9005
5422.00,0.9135
5421.00,0.9266
5420.00,0.9397
5419.00,0.9527
5418.00,0.9654
5417.00,0.9779
5416.00,0.9903
5415.00,1.0027
5414.00,1.0151
5413.00,1.0275
5412.00,1.0397
5411.00,1.0519
5410.00,1.0638
5409.00,1.0756
5408.00,1.0872
5407.00,1.0985
5406.00,1.1095
5405.00,1.1202
5404.00,1.1306
5403.00,1.1407
5402.00,1.1505
5401.00,1.1598
5400.00,1.1688
5399.00,1.1774
5398.00,1.1856
5397.00,1.1936
5396.00,1.2014
5395.00,1.2091
5394.00,1.2165
5393.00,1.2232
5392.00,1.2294
5391.00,1.2351
5390.00,1.2405
5389.00,1.2453
5388.00,1.2499
5387.00,1.2544
5386.00,1.2586
5385.00,1.2625
5384.00,1.2659
5383.00,1.2691
5382.00,1.2719
5381.00,1.2742
5380.00,1.2758
5379.00,1.2769
5378.00,1.2776
5377.00,1.2778
5376.00,1.2775
5375.00,1.2770
5374.00,1.2762
5373.00,1.2752
5372.00,1.2741
5371.00,1.2729
5370.00,1.2712
5369.00,1.2690
5368.00,1.2661
5367.00,1.2627
5366.00,1.2589
5365.00,1.2548
5364.00,1.2504
5363.00,1.2457
5362.00,1.2406
5361.00,1.2349
5360.00,1.2287
5359.00,1.2221
5358.00,1.2153
5357.00,1.2082
5356.00,1.2007
5355.00,1.1927
5354.00,1.1843
5353.00,1.1755
5352.00,1.1663
5351.00,1.1566
5350.00,1.1465
5349.00,1.1361
5348.00,1.1254
5347.00,1.1143
5346.00,1.1028
5345.00,1.0910
5344.00,1.0788
5343.00,1.0663
5342.00,1.0536
5341.00,1.0408
5340.00,1.0277
5339.00,1.0144
5338.00,1.0007
5337.00,0.9868
5336.00,0.9728
5335.00,0.9590
5334.00,0.9451
5333.00,0.9313
5332.00,0.9173
5331.00,0.9035
5330.00,0.8898
5329.00,0.8763
5328.00,0.8630
5327.00,0.8498
5326.00,0.8368
5325.00,0.8240
5324.00,0.8116
5323.00,0.7997
5322.00,0.7882
5321.00,0.7772
5320.00,0.7667
5319.00,0.7568
5318.00,0.7474
5317.00,0.7387
5316.00,0.7306
5315.00,0.7232
5314.00,0.7166
5313.00,0.7107
5312.00,0.7056
5311.00,0.7013
5310.00,0.6978
5309.00,0.6952
5308.00,0.6936
5307.00,0.6928
5306.00,0.6929
5305.00,0.6939
5304.00,0.6958
5303.00,0.6985
5302.00,0.7021
5301.00,0.7066
5300.00,0.7119
5299.00,0.7179
5298.00,0.7247
5297.00,0.7322
5296.00,0.7404
5295.00,0.7491
5294.00,0.7584
5293.00,0.7682
5292.00,0.7784
5291.00,0.7893
5290.00,0.8007
5289.00,0.8126
5288.00,0.8247
5287.00,0.8369
5286.00,0.8493
5285.00,0.8619
5284.00,0.8748
5283.00,0.8879
5282.00,0.9012
5281.00,0.9147
5280.00,0.9282
5279.00,0.9417
5278.00,0.9553
5277.00,0.9689
5276.00,0.9826
5275.00,0.9961
5274.00,1.0096
5273.00,1.0227
5272.00,1.0356
5271.00,1.0481
5270.00,1.0606
5269.00,1.0731
5268.00,1.0854
5267.00,1.0975
5266.00,1.1095
5265.00,1.1211
5264.00,1.1325
5263.00,1.1435
5262.00,1.1543
5261.00,1.1649
5260.00,1.1752
5259.00,1.1850
5258.00,1.1943
5257.00,1.2032
5256.00,1.2119
5255.00,1.2203
5254.00,1.2285
5253.00,1.2364
5252.00,1.2438
5251.00,1.2506
5250.00,1.2568
5249.00,1.2624
5248.00,1.2678
5247.00,1.2732
5246.00,1.2785
5245.00,1.2836
5244.00,1.2885
5243.00,1.2928
5242.00,1.2965
5241.00,1.2996
5240.00,1.3022
5239.00,1.3043
5238.00,1.3060
5237.00,1.3073
5236.00,1.3082
5235.00,1.3087
5234.00,1.3090
5233.00,1.3092
5232.00,1.3092
5231.00,1.3088
5230.00,1.3080
5229.00,1.3066
5228.00,1.3046
5227.00,1.3020
5226.00,1.2989
5225.00,1.2954
5224.00,1.2916
5223.00,1.2876
5222.00,1.2835
5221.00,1.2793
5220.00,1.2748
5219.00,1.2698
5218.00,1.2642
5217.00,1.2580
5216.00,1.2511
5215.00,1.2437
5214.00,1.2361
5213.00,1.2282
5212.00,1.2199
5211.00,1.2111
5210.00,1.2020
5209.00,1.1925
5208.00,1.1825
5207.00,1.1722
5206.00,1.1614
5205.00,1.1502
5204.00,1.1387
5203.00,1.1269
5202.00,1.1149
5201.00,1.1027
5200.00,1.0904
5199.00,1.0778
5198.00,1.0648
5197.00,1.0518
5196.00,1.0386
5195.00,1.0251
5194.00,1.0115
5193.00,0.9974
5192.00,0.9831
5191.00,0.9684
5190.00,0.9535
5189.00,0.9384
5188.00,0.9233
5187.00,0.9082
5186.00,0.8931
5185.00,0.8782
5184.00,0.8635
5183.00,0.8491
5182.00,0.8351
5181.00,0.8214
5180.00,0.8081
5179.00,0.7953
5178.00,0.7830
5177.00,0.7714
5176.00,0.7605
5175.00,0.7503
5174.00,0.7407
5173.00,0.7318
5172.00,0.7236
5171.00,0.7162
5170.00,0.7096
5169.00,0.7039
5168.00,0.6991
5167.00,0.6951
5166.00,0.6921
5165.00,0.6901
5164.00,0.6891
5163.00,0.6890
5162.00,0.6897
5161.00,0.6914
5160.00,0.6939
5159.00,0.6973
5158.00,0.7016
5157.00,0.7068
5156.00,0.7128
5155.00,0.7197
5154.00,0.7273
5153.00,0.7357
5152.00,0.7447
5151.00,0.7544
5150.00,0.7647
5149.00,0.7754
5148.00,0.7866
5147.00,0.7983
5146.00,0.8103
5145.00,0.8228
5144.00,0.8355
5143.00,0.8485
5142.00,0.8619
5141.00,0.8756
5140.00,0.8896
5139.00,0.9038
5138.00,0.9181
5137.00,0.9324
5136.00,0.9467
5135.00,0.9608
5134.00,0.9749
5133.00,0.9889
5132.00,1.0030
5131.00,1.0171
5130.00,1.0312
5129.00,1.0451
5128.00,1.0587
5127.00,1.0722
5126.00,1.0856
5125.00,1.0990
5124.00,1.1121
5123.00,1.1250
5122.00,1.1376
5121.00,1.1497
5120.00,1.1613
5119.00,1.1725
5118.00,1.1834
5117.00,1.1941
5116.00,1.2046
5115.00,1.2147
5114.00,1.2247
5113.00,1.2343
5112.00,1.2436
5111.00,1.2525
5110.00,1.2610
5109.00,1.2689
5108.00,1.2764
5107.00,1.2833
5106.00,1.2898
5105.00,1.2959
5104.00,1.3017
5103.00,1.3073
5102.00,1.3127
5101.00,1.3178
5100.00,1.3224
5099.00,1.3264
5098.00,1.3298
5097.00,1.3329
5096.00,1.3356
5095.00,1.3380
5094.00,1.3399
5093.00,1.3412
5092.00,1.3421
5091.00,1.3426
5090.00,1.3429
5089.00,1.3430
5088.00,1.3427
5087.00,1.3420
5086.00,1.3407
5085.00,1.3391
5084.00,1.3373
5083.00,1.3351
5082.00,1.3326
5081.00,1.3295
5080.00,1.3259
5079.00,1.3218
5078.00,1.3171
5077.00,1.3122
5076.00,1.3069
5075.00,1.3012
5074.00,1.2952
5073.00,1.2888
5072.00,1.2819
5071.00,1.2746
5070.00,1.2667
5069.00,1.2584
5068.00,1.2498
5067.00,1.2408
5066.00,1.2315
5065.00,1.2218
5064.00,1.2115
5063.00,1.2008
5062.00,1.1895
5061.00,1.1779
5060.00,1.1660
5059.00,1.1538
5058.00,1.1414
5057.00,1.1286
5056.00,1.1153
5055.00,1.1015
5054.00,1.0873
5053.00,1.0727
5052.00,1.0578
5051.00,1.0428
5050.00,1.0277
5049.00,1.0126
5048.00,0.9974
5047.00,0.9821
5046.00,0.9667
5045.00,0.9511
5044.00,0.9355
5043.00,0.9199
5042.00,0.9046
5041.00,0.8895
5040.00,0.8748
5039.00,0.8602
5038.00,0.8460
5037.00,0.8322
5036.00,0.8187
5035.00,0.8056
5034.00,0.7930
5033.00,0.7811
5032.00,0.7699
5031.00,0.7594
5030.00,0.7496
5029.00,0.7406
5028.00,0.7324
5027.00,0.7250
5026.00,0.7185
5025.00,0.7130
5024.00,0.7085
5023.00,0.7050
5022.00,0.7025
5021.00,0.7010
5020.00,0.7005
5019.00,0.7010
5018.00,0.7026
5017.00,0.7053
5016.00,0.7090
5015.00,0.7136
5014.00,0.7192
5013.00,0.7256
5012.00,0.7328
5011.00,0.7408
5010.00,0.7497
5009.00,0.7593
5008.00,0.7696
5007.00,0.7805
5006.00,0.7921
5005.00,0.8042
5004.00,0.8169
5003.00,0.8299
5002.00,0.8434
5001.00,0.8572
5000.00,0.8713
4999.00,0.8855
4998.00,0.8999
4997.00,0.9145
4996.00,0.9292
4995.00,0.9440
4994.00,0.9589
4993.00,0.9738
4992.00,0.9886
4991.00,1.0034
4990.00,1.0180
4989.00,1.0326
4988.00,1.0471
4987.00,1.0615
4986.00,1.0758
4985.00,1.0897
4984.00,1.1035
4983.00,1.1170
4982.00,1.1303
4981.00,1.1436
4980.00,1.1566
4979.00,1.1693
4978.00,1.1816
4977.00,1.1933
4976.00,1.2047
4975.00,1.2159
4974.00,1.2270
4973.00,1.2380
4972.00,1.2488
4971.00,1.2594
4970.00,1.2696
4969.00,1.2794
4968.00,1.2886
4967.00,1.2971
4966.00,1.3050
4965.00,1.3123
4964.00,1.3191
4963.00,1.3254
4962.00,1.3314
4961.00,1.3371
4960.00,1.3427
4959.00,1.3480
4958.00,1.3529
4957.00,1.3573
4956.00,1.3611
4955.00,1.3643
4954.00,1.3671
4953.00,1.3694
4952.00,1.3714
4951.00,1.3730
4950.00,1.3743
4949.00,1.3755
4948.00,1.3764
4947.00,1.3768
4946.00,1.3768
4945.00,1.3764
4944.00,1.3756
4943.00,1.3745
4942.00,1.3728
4941.00,1.3705
4940.00,1.3676
4939.00,1.3642
4938.00,1.3604
4937.00,1.3564
4936.00,1.3524
4935.00,1.3480
4934.00,1.3431
4933.00,1.3373
4932.00,1.3310
4931.00,1.3243
4930.00,1.3173
4929.00,1.3102
4928.00,1.3028
4927.00,1.2949
4926.00,1.2864
4925.00,1.2772
4924.00,1.2675
4923.00,1.2573
4922.00,1.2467
4921.00,1.2359
4920.00,1.2248
4919.00,1.2134
4918.00,1.2016
4917.00,1.1893
4916.00,1.1765
4915.00,1.1632
4914.00,1.1495
4913.00,1.1354
4912.00,1.1209
4911.00,1.1059
4910.00,1.0905
4909.00,1.0748
4908.00,1.0590
4907.00,1.0431
4906.00,1.0271
4905.00,1.0111
4904.00,0.9950
4903.00,0.9787
4902.00,0.9622
4901.00,0.9457
4900.00,0.9294
4899.00,0.9132
4898.00,0.8973
4897.00,0.8818
4896.00,0.8665
4895.00,0.8515
4894.00,0.8369
4893.00,0.8227
4892.00,0.8091
4891.00,0.7962
4890.00,0.7838
4889.00,0.7722
4888.00,0.7612
4887.00,0.7510
4886.00,0.7416
4885.00,0.7331
4884.00,0.7254
4883.00,0.7186
4882.00,0.7127
4881.00,0.7079
4880.00,0.7042
4879.00,0.7016
4878.00,0.7002
4877.00,0.6998
4876.00,0.7005
4875.00,0.7023
4874.00,0.7051
4873.00,0.7090
4872.00,0.7140
4871.00,0.7199
4870.00,0.7268
4869.00,0.7347
4868.00,0.7433
4867.00,0.7528
4866.00,0.7631
4865.00,0.7741
4864.00,0.7858
4863.00,0.7982
4862.00,0.8110
4861.00,0.8243
4860.00,0.8380
4859.00,0.8522
4858.00,0.8667
4857.00,0.8815
4856.00,0.8968
4855.00,0.9122
4854.00,0.9277
4853.00,0.9434
4852.00,0.9592
4851.00,0.9751
4850.00,0.9910
4849.00,1.0069
4848.00,1.0226
4847.00,1.0383
4846.00,1.0539
4845.00,1.0693
4844.00,1.0846
4843.00,1.0997
4842.00,1.1147
4841.00,1.1295
4840.00,1.1441
4839.00,1.1584
4838.00,1.1723
4837.00,1.1860
4836.00,1.1993
4835.00,1.2124
4834.00,1.2251
4833.00,1.2375
4832.00,1.2494
4831.00,1.2609
4830.00,1.2721
4829.00,1.2830
4828.00,1.2935
4827.00,1.3036
4826.00,1.3131
4825.00,1.3221
4824.00,1.3306
4823.00,1.3387
4822.00,1.3465
4821.00,1.3540
4820.00,1.3611
4819.00,1.3677
4818.00,1.3738
4817.00,1.3796
4816.00,1.3851
4815.00,1.3902
4814.00,1.3949
4813.00,1.3991
4812.00,1.4026
4811.00,1.4056
4810.00,1.4082
4809.00,1.4104
4808.00,1.4125
4807.00,1.4141
4806.00,1.4155
4805.00,1.4165
4804.00,1.4173
4803.00,1.4176
4802.00,1.4174
4801.00,1.4165
4800.00,1.4149
4799.00,1.4128
4798.00,1.4104
4797.00,1.4079
4796.00,1.4053
4795.00,1.4024
4794.00,1.3991
4793.00,1.3955
4792.00,1.3913
4791.00,1.3865
4790.00,1.3810
4789.00,1.3748
4788.00,1.3682
4787.00,1.3612
4786.00,1.3540
4785.00,1.3468
4784.00,1.3393
4783.00,1.3311
4782.00,1.3222
4781.00,1.3126
4780.00,1.3026
4779.00,1.2922
4778.00,1.2814
4777.00,1.2701
4776.00,1.2583
4775.00,1.2460
4774.00,1.2333
4773.00,1.2203
4772.00,1.2068
4771.00,1.1930
4770.00,1.1787
4769.00,1.1640
4768.00,1.1489
4767.00,1.1334
4766.00,1.1174
4765.00,1.1010
4764.00,1.0843
4763.00,1.0674
4762.00,1.0504
4761.00,1.0333
4760.00,1.0161
4759.00,0.9987
4758.00,0.9813
4757.00,0.9639
4756.00,0.9465
4755.00,0.9293
4754.00,0.9124
4753.00,0.8958
4752.00,0.8794
4751.00,0.8634
4750.00,0.8478
4749.00,0.8328
4748.00,0.8184
4747.00,0.8046
4746.00,0.7916
4745.00,0.7793
4744.00,0.7679
4743.00,0.7573
4742.00,0.7477
4741.00,0.7392
4740.00,0.7316
4739.00,0.7251
4738.00,0.7197
4737.00,0.7155
4736.00,0.7124
4735.00,0.7107
4734.00,0.7102
4733.00,0.7110
4732.00,0.7129
4731.00,0.7159
4730.00,0.7201
4729.00,0.7254
4728.00,0.7318
4727.00,0.7393
4726.00,0.7479
4725.00,0.7574
4724.00,0.7677
4723.00,0.7788
4722.00,0.7906
4721.00,0.8031
4720.00,0.8163
4719.00,0.8302
4718.00,0.8445
4717.00,0.8594
4716.00,0.8746
4715.00,0.8902
4714.00,0.9060
4713.00,0.9220
4712.00,0.9383
4711.00,0.9547
4710.00,0.9713
4709.00,0.9881
4708.00,1.0048
4707.00,1.0215
4706.00,1.0381
4705.00,1.0546
4704.00,1.0711
4703.00,1.0875
4702.00,1.1039
4701.00,1.1201
4700.00,1.1361
4699.00,1.1518
4698.00,1.1673
4697.00,1.1823
4696.00,1.1970
4695.00,1.2114
4694.00,1.2255
4693.00,1.2393
4692.00,1.2528
4691.00,1.2659
4690.00,1.2784
4689.00,1.2904
4688.00,1.3018
4687.00,1.3129
4686.00,1.3238
4685.00,1.3345
4684.00,1.3449
4683.00,1.3550
4682.00,1.3644
4681.00,1.3731
4680.00,1.3813
4679.00,1.3891
4678.00,1.3965
4677.00,1.4037
4676.00,1.4105
4675.00,1.4166
4674.00,1.4222
4673.00,1.4272
4672.00,1.4318
4671.00,1.4361
4670.00,1.4401
4669.00,1.4437
4668.00,1.4470
4667.00,1.4498
4666.00,1.4521
4665.00,1.4539
4664.00,1.4551
4663.00,1.4559
4662.00,1.4563
4661.00,1.4565
4660.00,1.4562
4659.00,1.4556
4658.00,1.4545
4657.00,1.4531
4656.00,1.4512
4655.00,1.4488
4654.00,1.4459
4653.00,1.4423
4652.00,1.4383
4651.00,1.4340
4650.00,1.4295
4649.00,1.4248
4648.00,1.4199
4647.00,1.4147
4646.00,1.4089
4645.00,1.4025
4644.00,1.3954
4643.00,1.3875
4642.00,1.3791
4641.00,1.3705
4640.00,1.3616
4639.00,1.3523
4638.00,1.3424
4637.00,1.3317
4636.00,1.3205
4635.00,1.3088
4634.00,1.2968
4633.00,1.2845
4632.00,1.2719
4631.00,1.2588
4630.00,1.2451
4629.00,1.2309
4628.00,1.2163
4627.00,1.2013
4626.00,1.1861
4625.00,1.1706
4624.00,1.1548
4623.00,1.1387
4622.00,1.1223
4621.00,1.1056
4620.00,1.0887
4619.00,1.0714
4618.00,1.0539
4617.00,1.0362
4616.00,1.0184
4615.00,1.0006
4614.00,0.9828
4613.00,0.9650
4612.00,0.9473
4611.00,0.9298
4610.00,0.9124
4609.00,0.8955
4608.00,0.8789
4607.00,0.8628
4606.00,0.8471
4605.00,0.8321
4604.00,0.8177
4603.00,0.8041
4602.00,0.7912
4601.00,0.7793
4600.00,0.7683
4599.00,0.7583
4598.00,0.7493
4597.00,0.7415
4596.00,0.7348
4595.00,0.7294
4594.00,0.7252
4593.00,0.7223
4592.00,0.7208
4591.00,0.7206
4590.00,0.7217
4589.00,0.7241
4588.00,0.7278
4587.00,0.7327
4586.00,0.7389
4585.00,0.7463
4584.00,0.7547
4583.00,0.7642
4582.00,0.7747
4581.00,0.7861
4580.00,0.7985
4579.00,0.8115
4578.00,0.8252
4577.00,0.8395
4576.00,0.8544
4575.00,0.8698
4574.00,0.8856
4573.00,0.9019
4572.00,0.9185
4571.00,0.9353
4570.00,0.9524
4569.00,0.9698
4568.00,0.9873
4567.00,1.0049
4566.00,1.0226
4565.00,1.0402
4564.00,1.0578
4563.00,1.0752
4562.00,1.0927
4561.00,1.1101
4560.00,1.1273
4559.00,1.1444
4558.00,1.1612
4557.00,1.1777
4556.00,1.1938
4555.00,1.2096
4554.00,1.2251
4553.00,1.2403
4552.00,1.2552
4551.00,1.2699
4550.00,1.2841
4549.00,1.2980
4548.00,1.3115
4547.00,1.3247
4546.00,1.3373
4545.00,1.3494
4544.00,1.3610
4543.00,1.3721
4542.00,1.3829
4541.00,1.3934
4540.00,1.4035
4539.00,1.4132
4538.00,1.4223
4537.00,1.4308
4536.00,1.4387
4535.00,1.4461
4534.00,1.4531
4533.00,1.4597
4532.00,1.4659
4531.00,1.4719
4530.00,1.4773
4529.00,1.4822
4528.00,1.4864
4527.00,1.4901
4526.00,1.4934
4525.00,1.4964
4524.00,1.4991
4523.00,1.5015
4522.00,1.5036
4521.00,1.5052
4520.00,1.5063
4519.00,1.5069
4518.00,1.5071
4517.00,1.5067
4516.00,1.5060
4515.00,1.5048
4514.00,1.5032
4513.00,1.5012
4512.00,1.4988
4511.00,1.4962
4510.00,1.4933
4509.00,1.4900
4508.00,1.4860
4507.00,1.4815
4506.00,1.4763
4505.00,1.4706
4504.00,1.4648
4503.00,1.4587
4502.00,1.4521
4501.00,1.4451
4500.00,1.4373
4499.00,1.4290
4498.00,1.4202
4497.00,1.4111
4496.00,1.4015
4495.00,1.3914
4494.00,1.3806
4493.00,1.3693
4492.00,1.3574
4491.00,1.3451
4490.00,1.3325
4489.00,1.3195
4488.00,1.3060
4487.00,1.2920
4486.00,1.2774
4485.00,1.2623
4484.00,1.2468
4483.00,1.2310
4482.00,1.2149
4481.00,1.1984
4480.00,1.1815
4479.00,1.1640
4478.00,1.1462
4477.00,1.1281
4476.00,1.1098
4475.00,1.0915
4474.00,1.0731
4473.00,1.0547
4472.00,1.0363
4471.00,1.0179
4470.00,0.9997
4469.00,0.9819
4468.00,0.9645
4467.00,0.9476
4466.00,0.9313
4465.00,0.9157
4464.00,0.9006
4463.00,0.8863
4462.00,0.8730
4461.00,0.8606
4460.00,0.8493
4459.00,0.8391
4458.00,0.8302
4457.00,0.8226
4456.00,0.8163
4455.00,0.8115
4454.00,0.8081
4453.00,0.8061
4452.00,0.8055
4451.00,0.8064
4450.00,0.8088
4449.00,0.8125
4448.00,0.8175
4447.00,0.8238
4446.00,0.8311
4445.00,0.8393
4444.00,0.8483
4443.00,0.8579
4442.00,0.8680
4441.00,0.8783
4440.00,0.8887
4439.00,0.8990
4438.00,0.9093
4437.00,0.9195
4436.00,0.9296
4435.00,0.9396
4434.00,0.9496
4433.00,0.9599
4432.00,0.9703
4431.00,0.9812
4430.00,0.9925
4429.00,1.0044
4428.00,1.0170
4427.00,1.0303
4426.00,1.0442
4425.00,1.0588
4424.00,1.0739
4423.00,1.0895
4422.00,1.1054
4421.00,1.1217
4420.00,1.1382
4419.00,1.1550
4418.00,1.1719
4417.00,1.1889
4416.00,1.2059
4415.00,1.2229
4414.00,1.2399
4413.00,1.2566
4412.00,1.2729
4411.00,1.2890
4410.00,1.3047
4409.00,1.3202
4408.00,1.3355
4407.00,1.3504
4406.00,1.3648
4405.00,1.3787
4404.00,1.3919
4403.00,1.4046
4402.00,1.4167
4401.00,1.4283
4400.00,1.4394
4399.00,1.4498
4398.00,1.4597
4397.00,1.4692
4396.00,1.4782
4395.00,1.4867
4394.00,1.4945
4393.00,1.5017
4392.00,1.5085
4391.00,1.5150
4390.00,1.5211
4389.00,1.5269
4388.00,1.5325
4387.00,1.5377
4386.00,1.5426
4385.00,1.5469
4384.00,1.5508
4383.00,1.5544
4382.00,1.5579
4381.00,1.5613
4380.00,1.5642
4379.00,1.5666
4378.00,1.5683
4377.00,1.5695
4376.00,1.5706
4375.00,1.5716
4374.00,1.5724
4373.00,1.5729
4372.00,1.5730
4371.00,1.5725
4370.00,1.5715
4369.00,1.5702
4368.00,1.5686
4367.00,1.5667
4366.00,1.5644
4365.00,1.5615
4364.00,1.5582
4363.00,1.5543
4362.00,1.5500
4361.00,1.5453
4360.00,1.5401
4359.00,1.5344
4358.00,1.5283
4357.00,1.5218
4356.00,1.5149
4355.00,1.5074
4354.00,1.4993
4353.00,1.4904
4352.00,1.4809
4351.00,1.4710
4350.00,1.4606
4349.00,1.4500
4348.00,1.4388
4347.00,1.4271
4346.00,1.4147
4345.00,1.4017
4344.00,1.3882
4343.00,1.3742
4342.00,1.3597
4341.00,1.3446
4340.00,1.3289
4339.00,1.3127
4338.00,1.2959
4337.00,1.2786
4336.00,1.2608
4335.00,1.2426
4334.00,1.2240
4333.00,1.2050
4332.00,1.1857
4331.00,1.1660
4330.00,1.1460
4329.00,1.1260
4328.00,1.1061
4327.00,1.0864
4326.00,1.0668
4325.00,1.0474
4324.00,1.0283
4323.00,1.0095
4322.00,0.9910
4321.00,0.9727
4320.00,0.9547
4319.00,0.9368
4318.00,0.9191
4317.00,0.9017
4316.00,0.8848
4315.00,0.8684
4314.00,0.8527
4313.00,0.8378
4312.00,0.8239
4311.00,0.8112
4310.00,0.7998
4309.00,0.7898
4308.00,0.7812
4307.00,0.7742
4306.00,0.7689
4305.00,0.7651
4304.00,0.7629
4303.00,0.7623
4302.00,0.7634
4301.00,0.7662
4300.00,0.7705
4299.00,0.7764
4298.00,0.7837
4297.00,0.7924
4296.00,0.8023
4295.00,0.8134
4294.00,0.8256
4293.00,0.8388
4292.00,0.8530
4291.00,0.8681
4290.00,0.8839
4289.00,0.9003
4288.00,0.9173
4287.00,0.9348
4286.00,0.9528
4285.00,0.9712
4284.00,0.9900
4283.00,1.0090
4282.00,1.0281
4281.00,1.0473
4280.00,1.0666
4279.00,1.0859
4278.00,1.1052
4277.00,1.1245
4276.00,1.1438
4275.00,1.1631
4274.00,1.1821
4273.00,1.2010
4272.00,1.2196
4271.00,1.2378
4270.00,1.2557
4269.00,1.2733
4268.00,1.2906
4267.00,1.3075
4266.00,1.3242
4265.00,1.3404
4264.00,1.3563
4263.00,1.3716
4262.00,1.3864
4261.00,1.4009
4260.00,1.4149
4259.00,1.4285
4258.00,1.4415
4257.00,1.4538
4256.00,1.4655
4255.00,1.4765
4254.00,1.4871
4253.00,1.4975
4252.00,1.5075
4251.00,1.5171
4250.00,1.5261
4249.00,1.5345
4248.00,1.5424
4247.00,1.5499
4246.00,1.5573
4245.00,1.5644
4244.00,1.5709
4243.00,1.5764
4242.00,1.5809
4241.00,1.5849
4240.00,1.5886
4239.00,1.5925
4238.00,1.5964
4237.00,1.6000
4236.00,1.6030
4235.00,1.6052
4234.00,1.6068
4233.00,1.6078
4232.00,1.6086
4231.00,1.6091
4230.00,1.6092
4229.00,1.6089
4228.00,1.6081
4227.00,1.6066
4226.00,1.6045
4225.00,1.6018
4224.00,1.5989
4223.00,1.5959
4222.00,1.5926
4221.00,1.5889
4220.00,1.5847
4219.00,1.5797
4218.00,1.5743
4217.00,1.5685
4216.00,1.5623
4215.00,1.5557
4214.00,1.5486
4213.00,1.5410
4212.00,1.5330
4211.00,1.5245
4210.00,1.5154
4209.00,1.5058
4208.00,1.4956
4207.00,1.4849
4206.00,1.4737
4205.00,1.4620
4204.00,1.4497
4203.00,1.4368
4202.00,1.4234
4201.00,1.4095
4200.00,1.3950
4199.00,1.3799
4198.00,1.3641
4197.00,1.3476
4196.00,1.3305
4195.00,1.3129
4194.00,1.2947
4193.00,1.2760
4192.00,1.2567
4191.00,1.2369
4190.00,1.2166
4189.00,1.1957
4188.00,1.1746
4187.00,1.1532
4186.00,1.1316
4185.00,1.1098
4184.00,1.0880
4183.00,1.0660
4182.00,1.0441
4181.00,1.0223
4180.00,1.0008
4179.00,0.9796
4178.00,0.9589
4177.00,0.9388
4176.00,0.9193
4175.00,0.9005
4174.00,0.8824
4173.00,0.8652
4172.00,0.8491
4171.00,0.8341
4170.00,0.8203
4169.00,0.8078
4168.00,0.7967
4167.00,0.7872
4166.00,0.7791
4165.00,0.7727
4164.00,0.7679
4163.00,0.7648
4162.00,0.7634
4161.00,0.7637
4160.00,0.7657
4159.00,0.7695
4158.00,0.7749
4157.00,0.7820
4156.00,0.7906
4155.00,0.8005
4154.00,0.8118
4153.00,0.8243
4152.00,0.8380
4151.00,0.8527
4150.00,0.8685
4149.00,0.8852
4148.00,0.9027
4147.00,0.9208
4146.00,0.9395
4145.00,0.9588
4144.00,0.9784
4143.00,0.9984
4142.00,1.0187
4141.00,1.0393
4140.00,1.0601
4139.00,1.0810
4138.00,1.1020
4137.00,1.1230
4136.00,1.1438
4135.00,1.1646
4134.00,1.1853
4133.00,1.2060
4132.00,1.2265
4131.00,1.2466
4130.00,1.2664
4129.00,1.2857
4128.00,1.3046
4127.00,1.3230
4126.00,1.3409
4125.00,1.3586
4124.00,1.3758
4123.00,1.3925
4122.00,1.4088
4121.00,1.4246
4120.00,1.4400
4119.00,1.4549
4118.00,1.4694
4117.00,1.4834
4116.00,1.4969
4115.00,1.5099
4114.00,1.5222
4113.00,1.5339
4112.00,1.5449
4111.00,1.5555
4110.00,1.5657
4109.00,1.5754
4108.00,1.5844
4107.00,1.5927
4106.00,1.6003
4105.00,1.6073
4104.00,1.6139
4103.00,1.6204
4102.00,1.6267
4101.00,1.6328
4100.00,1.6386
4099.00,1.6438
4098.00,1.6481
4097.00,1.6516
4096.00,1.6545
4095.00,1.6570
4094.00,1.6593
4093.00,1.6614
4092.00,1.6633
4091.00,1.6648
4090.00,1.6658
4089.00,1.6663
4088.00,1.6661
4087.00,1.6655
4086.00,1.6645
4085.00,1.6633
4084.00,1.6618
4083.00,1.6598
4082.00,1.6573
4081.00,1.6542
4080.00,1.6506
4079.00,1.6465
4078.00,1.6421
4077.00,1.6373
4076.00,1.6322
4075.00,1.6265
4074.00,1.6202
4073.00,1.6133
4072.00,1.6062
4071.00,1.5989
4070.00,1.5912
4069.00,1.5831
4068.00,1.5744
4067.00,1.5651
4066.00,1.5553
4065.00,1.5449
4064.00,1.5339
4063.00,1.5223
4062.00,1.5100
4061.00,1.4971
4060.00,1.4835
4059.00,1.4695
4058.00,1.4549
4057.00,1.4397
4056.00,1.4239
4055.00,1.4076
4054.00,1.3905
4053.00,1.3726
4052.00,1.3541
4051.00,1.3350
4050.00,1.3154
4049.00,1.2955
4048.00,1.2751
4047.00,1.2544
4046.00,1.2332
4045.00,1.2117
4044.00,1.1899
4043.00,1.1681
4042.00,1.1463
4041.00,1.1247
4040.00,1.1033
4039.00,1.0825
4038.00,1.0621
4037.00,1.0423
4036.00,1.0232
4035.00,1.0048
4034.00,0.9872
4033.00,0.9704
4032.00,0.9543
4031.00,0.9390
4030.00,0.9243
4029.00,0.9102
4028.00,0.8967
4027.00,0.8838
4026.00,0.8716
4025.00,0.8601
4024.00,0.8496
4023.00,0.8402
4022.00,0.8321
4021.00,0.8253
4020.00,0.8202
4019.00,0.8167
4018.00,0.8149
4017.00,0.8150
4016.00,0.8169
4015.00,0.8207
4014.00,0.8264
4013.00,0.8338
4012.00,0.8429
4011.00,0.8535
4010.00,0.8655
4009.00,0.8790
4008.00,0.8937
4007.00,0.9096
4006.00,0.9266
4005.00,0.9444
4004.00,0.9632
4003.00,0.9827
4002.00,1.0030
4001.00,1.0238
4000.00,1.0451
3999.00,1.0667
3998.00,1.0886
3997.00,1.1106
3996.00,1.1327
3995.00,1.1550
3994.00,1.1773
3993.00,1.1995
3992.00,1.2216
3991.00,1.2435
3990.00,1.2652
3989.00,1.2867
3988.00,1.3081
3987.00,1.3290
3986.00,1.3494
3985.00,1.3694
3984.00,1.3890
3983.00,1.4081
3982.00,1.4265
3981.00,1.4441
3980.00,1.4610
3979.00,1.4774
3978.00,1.4933
3977.00,1.5087
3976.00,1.5234
3975.00,1.5375
3974.00,1.5508
3973.00,1.5635
3972.00,1.5754
3971.00,1.5869
3970.00,1.5980
3969.00,1.6087
3968.00,1.6189
3967.00,1.6286
3966.00,1.6377
3965.00,1.6465
3964.00,1.6548
3963.00,1.6627
3962.00,1.6701
3961.00,1.6770
3960.00,1.6832
3959.00,1.6891
3958.00,1.6948
3957.00,1.7003
3956.00,1.7055
3955.00,1.7101
3954.00,1.7140
3953.00,1.7173
3952.00,1.7199
3951.00,1.7222
3950.00,1.7243
3949.00,1.7262
3948.00,1.7280
3947.00,1.7296
3946.00,1.7307
3945.00,1.7312
3944.00,1.7310
3943.00,1.7302
3942.00,1.7292
3941.00,1.7278
3940.00,1.7261
3939.00,1.7238
3938.00,1.7208
3937.00,1.7174
3936.00,1.7137
3935.00,1.7098
3934.00,1.7054
3933.00,1.7003
3932.00,1.6946
3931.00,1.6884
3930.00,1.6818
3929.00,1.6746
3928.00,1.6668
3927.00,1.6586
3926.00,1.6498
3925.00,1.6405
3924.00,1.6307
3923.00,1.6206
3922.00,1.6101
3921.00,1.5992
3920.00,1.5880
3919.00,1.5763
3918.00,1.5639
3917.00,1.5508
3916.00,1.5367
3915.00,1.5218
3914.00,1.5061
3913.00,1.4895
3912.00,1.4722
3911.00,1.4542
3910.00,1.4358
3909.00,1.4171
3908.00,1.3981
3907.00,1.3787
3906.00,1.3584
3905.00,1.3370
3904.00,1.3143
3903.00,1.2907
3902.00,1.2665
3901.00,1.2417
3900.00,1.2162
3899.00,1.1903
3898.00,1.1644
3897.00,1.1390
3896.00,1.1140
3895.00,1.0894
3894.00,1.0649
3893.00,1.0404
3892.00,1.0155
3891.00,0.9905
3890.00,0.9666
3889.00,0.9448
3888.00,0.9247
3887.00,0.9053
3886.00,0.8859
3885.00,0.8674
3884.00,0.8509
3883.00,0.8367
3882.00,0.8240
3881.00,0.8125
3880.00,0.8027
3879.00,0.7955
3878.00,0.7911
3877.00,0.7890
3876.00,0.7887
3875.00,0.7902
3874.00,0.7938
3873.00,0.7995
3872.00,0.8071
3871.00,0.8166
3870.00,0.8282
3869.00,0.8419
3868.00,0.8570
3867.00,0.8730
3866.00,0.8899
3865.00,0.9082
3864.00,0.9283
3863.00,0.9499
3862.00,0.9719
3861.00,0.9942
3860.00,1.0168
3859.00,1.0395
3858.00,1.0614
3857.00,1.0819
3856.00,1.1012
3855.00,1.1213
3854.00,1.1447
3853.00,1.1731
3852.00,1.2045
3851.00,1.2347
3850.00,1.2608
3849.00,1.2835
3848.00,1.3046
3847.00,1.3253
3846.00,1.3461
3845.00,1.3670
3844.00,1.3880
3843.00,1.4086
3842.00,1.4287
3841.00,1.4479
3840.00,1.4661
3839.00,1.4837
3838.00,1.5011
3837.00,1.5189
3836.00,1.5366
3835.00,1.5540
3834.00,1.5709
3833.00,1.5871
3832.00,1.6025
3831.00,1.6173
3830.00,1.6315
3829.00,1.6449
3828.00,1.6573
3827.00,1.6689
3826.00,1.6798
3825.00,1.6900
3824.00,1.6992
3823.00,1.7075
3822.00,1.7154
3821.00,1.7234
3820.00,1.7314
3819.00,1.7387
3818.00,1.7449
3817.00,1.7501
3816.00,1.7548
3815.00,1.7597
3814.00,1.7653
3813.00,1.7710
3812.00,1.7761
3811.00,1.7804
3810.00,1.7843
3809.00,1.7875
3808.00,1.7896
3807.00,1.7908
3806.00,1.7915
3805.00,1.7919
3804.00,1.7917
3803.00,1.7906
3802.00,1.7888
3801.00,1.7866
3800.00,1.7842
3799.00,1.7819
3798.00,1.7796
3797.00,1.7774
3796.00,1.7750
3795.00,1.7728
3794.00,1.7705
3793.00,1.7674
3792.00,1.7633
3791.00,1.7584
3790.00,1.7531
3789.00,1.7472
3788.00,1.7404
3787.00,1.7329
3786.00,1.7249
3785.00,1.7161
3784.00,1.7066
3783.00,1.6966
3782.00,1.6864
3781.00,1.6756
3780.00,1.6641
3779.00,1.6517
3778.00,1.6387
3777.00,1.6252
3776.00,1.6112
3775.00,1.5969
3774.00,1.5824
3773.00,1.5673
3772.00,1.5512
3771.00,1.5338
3770.00,1.5151
3769.00,1.4953
3768.00,1.4749
3767.00,1.4539
3766.00,1.4322
3765.00,1.4095
3764.00,1.3866
3763.00,1.3639
3762.00,1.3408
3761.00,1.3163
3760.00,1.2900
3759.00,1.2628
3758.00,1.2353
3757.00,1.2080
3756.00,1.1814
3755.00,1.1559
3754.00,1.1309
3753.00,1.1050
3752.00,1.0777
3751.00,1.0489
3750.00,1.0196
3749.00,0.9918
3748.00,0.9678
3747.00,0.9483
3746.00,0.9313
3745.00,0.9142
3744.00,0.8968
3743.00,0.8818
3742.00,0.8709
3741.00,0.8628
3740.00,0.8560
3739.00,0.8510
3738.00,0.8488
3737.00,0.8489
3736.00,0.8506
3735.00,0.8538
3734.00,0.8586
3733.00,0.8647
3732.00,0.8721
3731.00,0.8812
3730.00,0.8919
3729.00,0.9038
3728.00,0.9174
3727.00,0.9329
3726.00,0.9502
3725.00,0.9688
3724.00,0.9884
3723.00,1.0090
3722.00,1.0306
3721.00,1.0535
3720.00,1.0774
3719.00,1.1022
3718.00,1.1275
3717.00,1.1510
3716.00,1.1698
3715.00,1.1843
3714.00,1.1997
3713.00,1.2235
3712.00,1.2582
3711.00,1.2996
3710.00,1.3393
3709.00,1.3733
3708.00,1.4025
3707.00,1.4295
3706.00,1.4551
3705.00,1.4792
3704.00,1.5023
3703.00,1.5248
3702.00,1.5475
3701.00,1.5703
3700.00,1.5929
3699.00,1.6142
3698.00,1.6343
3697.00,1.6532
3696.00,1.6714
3695.00,1.6885
3694.00,1.7042
3693.00,1.7185
3692.00,1.7318
3691.00,1.7446
3690.00,1.7569
3689.00,1.7695
3688.00,1.7820
3687.00,1.7944
3686.00,1.8063
3685.00,1.8174
3684.00,1.8274
3683.00,1.8365
3682.00,1.8448
3681.00,1.8524
3680.00,1.8594
3679.00,1.8652
3678.00,1.8700
3677.00,1.8737
3676.00,1.8771
3675.00,1.8805
3674.00,1.8840
3673.00,1.8876
3672.00,1.8911
3671.00,1.8939
3670.00,1.8964
3669.00,1.8992
3668.00,1.9022
3667.00,1.9049
3666.00,1.9067
3665.00,1.9079
3664.00,1.9088
3663.00,1.9095
3662.00,1.9098
3661.00,1.9098
3660.00,1.9094
3659.00,1.9084
3658.00,1.9065
3657.00,1.9041
3656.00,1.9015
3655.00,1.8989
3654.00,1.8962
3653.00,1.8934
3652.00,1.8900
3651.00,1.8857
3650.00,1.8805
3649.00,1.8745
3648.00,1.8681
3647.00,1.8616
3646.00,1.8560
3645.00,1.8515
3644.00,1.8474
3643.00,1.8427
3642.00,1.8373
3641.00,1.8316
3640.00,1.8256
3639.00,1.8192
3638.00,1.8122
3637.00,1.8045
3636.00,1.7964
3635.00,1.7877
3634.00,1.7785
3633.00,1.7693
3632.00,1.7599
3631.00,1.7494
3630.00,1.7368
3629.00,1.7225
3628.00,1.7078
3627.00,1.6931
3626.00,1.6782
3625.00,1.6628
3624.00,1.6470
3623.00,1.6313
3622.00,1.6160
3621.00,1.6005
3620.00,1.5840
3619.00,1.5665
3618.00,1.5483
3617.00,1.5299
3616.00,1.5112
3615.00,1.4906
3614.00,1.4665
3613.00,1.4401
3612.00,1.4156
3611.00,1.3969
3610.00,1.3841
3609.00,1.3737
3608.00,1.3613
3607.00,1.3457
3606.00,1.3283
3605.00,1.3108
3604.00,1.2937
3603.00,1.2772
3602.00,1.2614
3601.00,1.2463
3600.00,1.2321
3599.00,1.2186
3598.00,1.2064
3597.00,1.1954
3596.00,1.1858
3595.00,1.1775
3594.00,1.1707
3593.00,1.1654
3592.00,1.1616
3591.00,1.1593
3590.00,1.1584
3589.00,1.1593
3588.00,1.1619
3587.00,1.1663
3586.00,1.1718
3585.00,1.1783
3584.00,1.1855
3583.00,1.1935
3582.00,1.2029
3581.00,1.2140
3580.00,1.2273
3579.00,1.2421
3578.00,1.2582
3577.00,1.2751
3576.00,1.2930
3575.00,1.3118
3574.00,1.3312
3573.00,1.3509
3572.00,1.3707
3571.00,1.3906
3570.00,1.4105
3569.00,1.4309
3568.00,1.4521
3567.00,1.4742
3566.00,1.4964
3565.00,1.5178
3564.00,1.5377
3563.00,1.5565
3562.00,1.5747
3561.00,1.5928
3560.00,1.6111
3559.00,1.6294
3558.00,1.6475
3557.00,1.6650
3556.00,1.6818
3555.00,1.6980
3554.00,1.7136
3553.00,1.7291
3552.00,1.7442
3551.00,1.7586
3550.00,1.7722
3549.00,1.7851
3548.00,1.7976
3547.00,1.8100
3546.00,1.8224
3545.00,1.8347
3544.00,1.8464
3543.00,1.8569
3542.00,1.8663
3541.00,1.8750
3540.00,1.8835
3539.00,1.8918
3538.00,1.8999
3537.00,1.9077
3536.00,1.9150
3535.00,1.9218
3534.00,1.9279
3533.00,1.9337
3532.00,1.9393
3531.00,1.9445
3530.00,1.9493
3529.00,1.9538
3528.00,1.9582
3527.00,1.9620
3526.00,1.9650
3525.00,1.9675
3524.00,1.9699
3523.00,1.9725
3522.00,1.9753
3521.00,1.9779
3520.00,1.9801
3519.00,1.9815
3518.00,1.9821
3517.00,1.9824
3516.00,1.9825
3515.00,1.9822
3514.00,1.9814
3513.00,1.9800
3512.00,1.9780
3511.00,1.9753
3510.00,1.9724
3509.00,1.9696
3508.00,1.9670
3507.00,1.9642
3506.00,1.9606
3505.00,1.9563
3504.00,1.9515
3503.00,1.9466
3502.00,1.9414
3501.00,1.9358
3500.00,1.9297
3499.00,1.9231
3498.00,1.9159
3497.00,1.9081
3496.00,1.8994
3495.00,1.8901
3494.00,1.8804
3493.00,1.8705
3492.00,1.8604
3491.00,1.8497
3490.00,1.8385
3489.00,1.8272
3488.00,1.8158
3487.00,1.8039
3486.00,1.7912
3485.00,1.7778
3484.00,1.7634
3483.00,1.7483
3482.00,1.7325
3481.00,1.7161
3480.00,1.6990
3479.00,1.6811
3478.00,1.6626
3477.00,1.6435
3476.00,1.6238
3475.00,1.6034
3474.00,1.5822
3473.00,1.5603
3472.00,1.5378
3471.00,1.5146
3470.00,1.4911
3469.00,1.4671
3468.00,1.4426
3467.00,1.4176
3466.00,1.3923
3465.00,1.3670
3464.00,1.3418
3463.00,1.3167
3462.00,1.2918
3461.00,1.2673
3460.00,1.2434
3459.00,1.2203
3458.00,1.1982
3457.00,1.1773
3456.00,1.1575
3455.00,1.1391
3454.00,1.1220
3453.00,1.1065
3452.00,1.0927
3451.00,1.0809
3450.00,1.0711
3449.00,1.0633
3448.00,1.0576
3447.00,1.0539
3446.00,1.0525
3445.00,1.0534
3444.00,1.0567
3443.00,1.0622
3442.00,1.0699
3441.00,1.0796
3440.00,1.0913
3439.00,1.1048
3438.00,1.1198
3437.00,1.1364
3436.00,1.1543
3435.00,1.1735
3434.00,1.1938
3433.00,1.2152
3432.00,1.2373
3431.00,1.2601
3430.00,1.2835
3429.00,1.3074
3428.00,1.3317
3427.00,1.3561
3426.00,1.3806
3425.00,1.4049
3424.00,1.4292
3423.00,1.4535
3422.00,1.4777
3421.00,1.5018
3420.00,1.5257
3419.00,1.5493
3418.00,1.5727
3417.00,1.5955
3416.00,1.6177
3415.00,1.6393
3414.00,1.6603
3413.00,1.6809
3412.00,1.7010
3411.00,1.7203
3410.00,1.7389
3409.00,1.7567
3408.00,1.7736
3407.00,1.7898
3406.00,1.8052
3405.00,1.8203
3404.00,1.8349
3403.00,1.8490
3402.00,1.8623
3401.00,1.8750
3400.00,1.8871
3399.00,1.8984
3398.00,1.9088
3397.00,1.9186
3396.00,1.9278
3395.00,1.9368
3394.00,1.9458
3393.00,1.9550
3392.00,1.9643
3391.00,1.9730
3390.00,1.9803
3389.00,1.9864
3388.00,1.9916
3387.00,1.9963
3386.00,2.0006
3385.00,2.0047
3384.00,2.0087
3383.00,2.0127
3382.00,2.0166
3381.00,2.0208
3380.00,2.0250
3379.00,2.0291
3378.00,2.0327
3377.00,2.0352
3376.00,2.0365
3375.00,2.0366
3374.00,2.0362
3373.00,2.0354
3372.00,2.0344
3371.00,2.0330
3370.00,2.0314
3369.00,2.0298
3368.00,2.0280
3367.00,2.0256
3366.00,2.0224
3365.00,2.0185
3364.00,2.0139
3363.00,2.0088
3362.00,2.0036
3361.00,1.9988
3360.00,1.9940
3359.00,1.9886
3358.00,1.9821
3357.00,1.9747
3356.00,1.9670
3355.00,1.9590
3354.00,1.9507
3353.00,1.9420
3352.00,1.9326
3351.00,1.9223
3350.00,1.9111
3349.00,1.8994
3348.00,1.8874
3347.00,1.8749
3346.00,1.8621
3345.00,1.8490
3344.00,1.8353
3343.00,1.8208
3342.00,1.8056
3341.00,1.7895
3340.00,1.7726
3339.00,1.7549
3338.00,1.7364
3337.00,1.7172
3336.00,1.6975
3335.00,1.6772
3334.00,1.6562
3333.00,1.6343
3332.00,1.6116
3331.00,1.5885
3330.00,1.5650
3329.00,1.5411
3328.00,1.5168
3327.00,1.4920
3326.00,1.4669
3325.00,1.4416
3324.00,1.4158
3323.00,1.3898
3322.00,1.3637
3321.00,1.3378
3320.00,1.3122
3319.00,1.2869
3318.00,1.2622
3317.00,1.2381
3316.00,1.2148
3315.00,1.1927
3314.00,1.1719
3313.00,1.1527
3312.00,1.1352
3311.00,1.1197
3310.00,1.1062
3309.00,1.0948
3308.00,1.0857
3307.00,1.0790
3306.00,1.0748
3305.00,1.0731
3304.00,1.0740
3303.00,1.0775
3302.00,1.0833
3301.00,1.0914
3300.00,1.1017
3299.00,1.1141
3298.00,1.1285
3297.00,1.1446
3296.00,1.1623
3295.00,1.1814
3294.00,1.2017
3293.00,1.2230
3292.00,1.2453
3291.00,1.2685
3290.00,1.2924
3289.00,1.3169
3288.00,1.3418
3287.00,1.3670
3286.00,1.3923
3285.00,1.4178
3284.00,1.4435
3283.00,1.4689
3282.00,1.4941
3281.00,1.5190
3280.00,1.5437
3279.00,1.5683
3278.00,1.5927
3277.00,1.6166
3276.00,1.6398
3275.00,1.6622
3274.00,1.6841
3273.00,1.7059
3272.00,1.7275
3271.00,1.7485
3270.00,1.7686
3269.00,1.7878
3268.00,1.8064
3267.00,1.8244
3266.00,1.8415
3265.00,1.8577
3264.00,1.8731
3263.00,1.8881
3262.00,1.9026
3261.00,1.9170
3260.00,1.9311
3259.00,1.9444
3258.00,1.9566
3257.00,1.9679
3256.00,1.9786
3255.00,1.9891
3254.00,1.9994
3253.00,2.0091
3252.00,2.0183
3251.00,2.0269
3250.00,2.0350
3249.00,2.0426
3248.00,2.0497
3247.00,2.0560
3246.00,2.0618
3245.00,2.0670
3244.00,2.0720
3243.00,2.0768
3242.00,2.0816
3241.00,2.0864
3240.00,2.0906
3239.00,2.0937
3238.00,2.0958
3237.00,2.0972
3236.00,2.0984
3235.00,2.0995
3234.00,2.1004
3233.00,2.1011
3232.00,2.1016
3231.00,2.1017
3230.00,2.1013
3229.00,2.1004
3228.00,2.0986
3227.00,2.0961
3226.00,2.0930
3225.00,2.0899
3224.00,2.0868
3223.00,2.0832
3222.00,2.0790
3221.00,2.0743
3220.00,2.0692
3219.00,2.0637
3218.00,2.0580
3217.00,2.0519
3216.00,2.0453
3215.00,2.0381
3214.00,2.0301
3213.00,2.0214
3212.00,2.0124
3211.00,2.0034
3210.00,1.9943
3209.00,1.9851
3208.00,1.9755
3207.00,1.9655
3206.00,1.9552
3205.00,1.9445
3204.00,1.9336
3203.00,1.9224
3202.00,1.9110
3201.00,1.8991
3200.00,1.8859
3199.00,1.8712
3198.00,1.8551
3197.00,1.8376
3196.00,1.8190
3195.00,1.7991
3194.00,1.7782
3193.00,1.7565
3192.00,1.7340
3191.00,1.7108
3190.00,1.6868
3189.00,1.6622
3188.00,1.6369
3187.00,1.6111
3186.00,1.5848
3185.00,1.5581
3184.00,1.5311
3183.00,1.5039
3182.00,1.4770
3181.00,1.4505
3180.00,1.4249
3179.00,1.4003
3178.00,1.3773
3177.00,1.3563
3176.00,1.3382
3175.00,1.3234
3174.00,1.3126
3173.00,1.3065
3172.00,1.3059
3171.00,1.3115
3170.00,1.3239
3169.00,1.3429
3168.00,1.3674
3167.00,1.3949
3166.00,1.4215
3165.00,1.4419
3164.00,1.4509
3163.00,1.4454
3162.00,1.4263
3161.00,1.3979
3160.00,1.3657
3159.00,1.3351
3158.00,1.3095
3157.00,1.2907
3156.00,1.2791
3155.00,1.2745
3154.00,1.2761
3153.00,1.2830
3152.00,1.2944
3151.00,1.3092
3150.00,1.3268
3149.00,1.3465
3148.00,1.3681
3147.00,1.3910
3146.00,1.4152
3145.00,1.4401
3144.00,1.4656
3143.00,1.4913
3142.00,1.5171
3141.00,1.5429
3140.00,1.5687
3139.00,1.5944
3138.00,1.6201
3137.00,1.6458
3136.00,1.6713
3135.00,1.6964
3134.00,1.7207
3133.00,1.7444
3132.00,1.7674
3131.00,1.7897
3130.00,1.8112
3129.00,1.8320
3128.00,1.8522
3127.00,1.8720
3126.00,1.8913
3125.00,1.9103
3124.00,1.9286
3123.00,1.9459
3122.00,1.9620
3121.00,1.9774
3120.00,1.9922
3119.00,2.0062
3118.00,2.0194
3117.00,2.0320
3116.00,2.0441
3115.00,2.0556
3114.00,2.0669
3113.00,2.0779
3112.00,2.0886
3111.00,2.0987
3110.00,2.1078
3109.00,2.1159
3108.00,2.1232
3107.00,2.1301
3106.00,2.1371
3105.00,2.1445
3104.00,2.1520
3103.00,2.1587
3102.00,2.1642
3101.00,2.1685
3100.00,2.1722
3099.00,2.1757
3098.00,2.1792
3097.00,2.1824
3096.00,2.1850
3095.00,2.1871
3094.00,2.1891
3093.00,2.1913
3092.00,2.1935
3091.00,2.1947
3090.00,2.1949
3089.00,2.1941
3088.00,2.1928
3087.00,2.1914
3086.00,2.1903
3085.00,2.1895
3084.00,2.1886
3083.00,2.1871
3082.00,2.1845
3081.00,2.1807
3080.00,2.1760
3079.00,2.1710
3078.00,2.1664
3077.00,2.1621
3076.00,2.1573
3075.00,2.1513
3074.00,2.1440
3073.00,2.1361
3072.00,2.1280
3071.00,2.1199
3070.00,2.1116
3069.00,2.1029
3068.00,2.0937
3067.00,2.0836
3066.00,2.0726
3065.00,2.0609
3064.00,2.0486
3063.00,2.0359
3062.00,2.0229
3061.00,2.0094
3060.00,1.9954
3059.00,1.9807
3058.00,1.9656
3057.00,1.9500
3056.00,1.9336
3055.00,1.9165
3054.00,1.8987
3053.00,1.8805
3052.00,1.8617
3051.00,1.8423
3050.00,1.8224
3049.00,1.8021
3048.00,1.7813
3047.00,1.7601
3046.00,1.7386
3045.00,1.7169
3044.00,1.6950
3043.00,1.6730
3042.00,1.6511
3041.00,1.6296
3040.00,1.6089
3039.00,1.5891
3038.00,1.5703
3037.00,1.5524
3036.00,1.5357
3035.00,1.5204
3034.00,1.5067
3033.00,1.4949
3032.00,1.4851
3031.00,1.4774
3030.00,1.4719
3029.00,1.4687
3028.00,1.4680
3027.00,1.4698
3026.00,1.4740
3025.00,1.4808
3024.00,1.4898
3023.00,1.5011
3022.00,1.5144
3021.00,1.5297
3020.00,1.5468
3019.00,1.5657
3018.00,1.5862
3017.00,1.6081
3016.00,1.6309
3015.00,1.6544
3014.00,1.6784
3013.00,1.7031
3012.00,1.7282
3011.00,1.7533
3010.00,1.7780
3009.00,1.8016
3008.00,1.8235
3007.00,1.8437
3006.00,1.8623
3005.00,1.8793
3004.00,1.8946
3003.00,1.9079
3002.00,1.9190
3001.00,1.9279
3000.00,1.9349
2999.00,1.9406
2998.00,1.9455
2997.00,1.9501
2996.00,1.9550
2995.00,1.9607
2994.00,1.9673
2993.00,1.9750
2992.00,1.9838
2991.00,1.9939
2990.00,2.0054
2989.00,2.0180
2988.00,2.0316
2987.00,2.0462
2986.00,2.0618
2985.00,2.0782
2984.00,2.0950
2983.00,2.1117
2982.00,2.1286
2981.00,2.1458
2980.00,2.1632
2979.00,2.1801
2978.00,2.1964
2977.00,2.2123
2976.00,2.2276
2975.00,2.2421
2974.00,2.2563
2973.00,2.2707
2972.00,2.2856
2971.00,2.3004
2970.00,2.3146
2969.00,2.3276
2968.00,2.3392
2967.00,2.3498
2966.00,2.3602
2965.00,2.3708
2964.00,2.3816
2963.00,2.3920
2962.00,2.4017
2961.00,2.4108
2960.00,2.4193
2959.00,2.4273
2958.00,2.4354
2957.00,2.4437
2956.00,2.4521
2955.00,2.4604
2954.00,2.4693
2953.00,2.4798
2952.00,2.4920
2951.00,2.5055
2950.00,2.5200
2949.00,2.5347
2948.00,2.5486
2947.00,2.5609
2946.00,2.5726
2945.00,2.5843
2944.00,2.5934
2943.00,2.5958
2942.00,2.5895
2941.00,2.5766
2940.00,2.5602
2939.00,2.5428
2938.00,2.5258
2937.00,2.5101
2936.00,2.4953
2935.00,2.4805
2934.00,2.4663
2933.00,2.4543
2932.00,2.4449
2931.00,2.4369
2930.00,2.4292
2929.00,2.4214
2928.00,2.4141
2927.00,2.4073
2926.00,2.4008
2925.00,2.3943
2924.00,2.3877
2923.00,2.3808
2922.00,2.3743
2921.00,2.3680
2920.00,2.3615
2919.00,2.3538
2918.00,2.3450
2917.00,2.3361
2916.00,2.3274
2915.00,2.3186
2914.00,2.3095
2913.00,2.3000
2912.00,2.2903
2911.00,2.2803
2910.00,2.2699
2909.00,2.2592
2908.00,2.2484
2907.00,2.2370
2906.00,2.2248
2905.00,2.2119
2904.00,2.1988
2903.00,2.1854
2902.00,2.1715
2901.00,2.1568
2900.00,2.1412
2899.00,2.1247
2898.00,2.1074
2897.00,2.0891
2896.00,2.0698
2895.00,2.0492
2894.00,2.0275
2893.00,2.0050
2892.00,1.9818
2891.00,1.9583
2890.00,1.9346
2889.00,1.9108
2888.00,1.8870
2887.00,1.8632
2886.00,1.8397
2885.00,1.8167
2884.00,1.7947
2883.00,1.7739
2882.00,1.7549
2881.00,1.7381
2880.00,1.7240
2879.00,1.7130
2878.00,1.7055
2877.00,1.7016
2876.00,1.7013
2875.00,1.7041
2874.00,1.7094
2873.00,1.7167
2872.00,1.7250
2871.00,1.7328
2870.00,1.7390
2869.00,1.7423
2868.00,1.7422
2867.00,1.7387
2866.00,1.7320
2865.00,1.7225
2864.00,1.7104
2863.00,1.6958
2862.00,1.6785
2861.00,1.6587
2860.00,1.6366
2859.00,1.6129
2858.00,1.5890
2857.00,1.5661
2856.00,1.5456
2855.00,1.5282
2854.00,1.5147
2853.00,1.5056
2852.00,1.5012
2851.00,1.5016
2850.00,1.5066
2849.00,1.5160
2848.00,1.5293
2847.00,1.5458
2846.00,1.5651
2845.00,1.5868
2844.00,1.6105
2843.00,1.6357
2842.00,1.6620
2841.00,1.6890
2840.00,1.7162
2839.00,1.7431
2838.00,1.7699
2837.00,1.7967
2836.00,1.8235
2835.00,1.8501
2834.00,1.8761
2833.00,1.9016
2832.00,1.9263
2831.00,1.9503
2830.00,1.9734
2829.00,1.9961
2828.00,2.0182
2827.00,2.0397
2826.00,2.0602
2825.00,2.0797
2824.00,2.0982
2823.00,2.1158
2822.00,2.1329
2821.00,2.1494
2820.00,2.1652
2819.00,2.1799
2818.00,2.1937
2817.00,2.2070
2816.00,2.2199
2815.00,2.2325
2814.00,2.2449
2813.00,2.2571
2812.00,2.2686
2811.00,2.2788
2810.00,2.2878
2809.00,2.2963
2808.00,2.3050
2807.00,2.3134
2806.00,2.3209
2805.00,2.3272
2804.00,2.3326
2803.00,2.3376
2802.00,2.3427
2801.00,2.3482
2800.00,2.3539
2799.00,2.3589
2798.00,2.3622
2797.00,2.3641
2796.00,2.3655
2795.00,2.3672
2794.00,2.3691
2793.00,2.3704
2792.00,2.3708
2791.00,2.3705
2790.00,2.3700
2789.00,2.3696
2788.00,2.3688
2787.00,2.3674
2786.00,2.3652
2785.00,2.3627
2784.00,2.3598
2783.00,2.3562
2782.00,2.3518
2781.00,2.3468
2780.00,2.3416
2779.00,2.3360
2778.00,2.3296
2777.00,2.3226
2776.00,2.3155
2775.00,2.3086
2774.00,2.3015
2773.00,2.2935
2772.00,2.2841
2771.00,2.2737
2770.00,2.2627
2769.00,2.2509
2768.00,2.2384
2767.00,2.2254
2766.00,2.2123
2765.00,2.1992
2764.00,2.1857
2763.00,2.1714
2762.00,2.1559
2761.00,2.1390
2760.00,2.1205
2759.00,2.1010
2758.00,2.0811
2757.00,2.0608
2756.00,2.0398
2755.00,2.0176
2754.00,1.9941
2753.00,1.9696
2752.00,1.9440
2751.00,1.9171
2750.00,1.8888
2749.00,1.8592
2748.00,1.8283
2747.00,1.7959
2746.00,1.7619
2745.00,1.7264
2744.00,1.6895
2743.00,1.6517
2742.00,1.6130
2741.00,1.5738
2740.00,1.5342
2739.00,1.4944
2738.00,1.4549
2737.00,1.4159
2736.00,1.3780
2735.00,1.3413
2734.00,1.3062
2733.00,1.2731
2732.00,1.2424
2731.00,1.2144
2730.00,1.1895
2729.00,1.1680
2728.00,1.1502
2727.00,1.1364
2726.00,1.1271
2725.00,1.1224
2724.00,1.1224
2723.00,1.1272
2722.00,1.1366
2721.00,1.1504
2720.00,1.1684
2719.00,1.1900
2718.00,1.2148
2717.00,1.2425
2716.00,1.2725
2715.00,1.3046
2714.00,1.3384
2713.00,1.3736
2712.00,1.4099
2711.00,1.4469
2710.00,1.4844
2709.00,1.5223
2708.00,1.5602
2707.00,1.5981
2706.00,1.6358
2705.00,1.6732
2704.00,1.7101
2703.00,1.7463
2702.00,1.7816
2701.00,1.8160
2700.00,1.8494
2699.00,1.8819
2698.00,1.9135
2697.00,1.9441
2696.00,1.9735
2695.00,2.0014
2694.00,2.0281
2693.00,2.0535
2692.00,2.0778
2691.00,2.1011
2690.00,2.1235
2689.00,2.1449
2688.00,2.1650
2687.00,2.1838
2686.00,2.2017
2685.00,2.2191
2684.00,2.2364
2683.00,2.2536
2682.00,2.2702
2681.00,2.2857
2680.00,2.2997
2679.00,2.3125
2678.00,2.3246
2677.00,2.3358
2676.00,2.3458
2675.00,2.3550
2674.00,2.3643
2673.00,2.3742
2672.00,2.3839
2671.00,2.3924
2670.00,2.4000
2669.00,2.4077
2668.00,2.4157
2667.00,2.4233
2666.00,2.4299
2665.00,2.4355
2664.00,2.4401
2663.00,2.4441
2662.00,2.4478
2661.00,2.4513
2660.00,2.4541
2659.00,2.4566
2658.00,2.4594
2657.00,2.4621
2656.00,2.4636
2655.00,2.4637
2654.00,2.4635
2653.00,2.4642
2652.00,2.4652
2651.00,2.4654
2650.00,2.4642
2649.00,2.4623
2648.00,2.4602
2647.00,2.4579
2646.00,2.4560
2645.00,2.4543
2644.00,2.4515
2643.00,2.4467
2642.00,2.4403
2641.00,2.4339
2640.00,2.4284
2639.00,2.4228
2638.00,2.4161
2637.00,2.4082
2636.00,2.3996
2635.00,2.3909
2634.00,2.3825
2633.00,2.3747
2632.00,2.3672
2631.00,2.3599
2630.00,2.3526
2629.00,2.3454
2628.00,2.3373
2627.00,2.3279
2626.00,2.3170
2625.00,2.3052
2624.00,2.2927
2623.00,2.2793
2622.00,2.2650
2621.00,2.2499
2620.00,2.2340
2619.00,2.2169
2618.00,2.1983
2617.00,2.1781
2616.00,2.1561
2615.00,2.1326
2614.00,2.1082
2613.00,2.0835
2612.00,2.0583
2611.00,2.0318
2610.00,2.0036
2609.00,1.9737
2608.00,1.9423
2607.00,1.9091
2606.00,1.8740
2605.00,1.8371
2604.00,1.7985
2603.00,1.7583
2602.00,1.7165
2601.00,1.6733
2600.00,1.6291
2599.00,1.5842
2598.00,1.5388
2597.00,1.4936
2596.00,1.4491
2595.00,1.4056
2594.00,1.3639
2593.00,1.3241
2592.00,1.2870
2591.00,1.2530
2590.00,1.2224
2589.00,1.1959
2588.00,1.1739
2587.00,1.1567
2586.00,1.1449
2585.00,1.1387
2584.00,1.1380
2583.00,1.1430
2582.00,1.1534
2581.00,1.1689
2580.00,1.1894
2579.00,1.2141
2578.00,1.2426
2577.00,1.2742
2576.00,1.3084
2575.00,1.3447
2574.00,1.3825
2573.00,1.4216
2572.00,1.4615
2571.00,1.5020
2570.00,1.5427
2569.00,1.5836
2568.00,1.6242
2567.00,1.6646
2566.00,1.7047
2565.00,1.7443
2564.00,1.7833
2563.00,1.8213
2562.00,1.8582
2561.00,1.8938
2560.00,1.9283
2559.00,1.9619
2558.00,1.9945
2557.00,2.0260
2556.00,2.0560
2555.00,2.0846
2554.00,2.1121
2553.00,2.1383
2552.00,2.1632
2551.00,2.1867
2550.00,2.2095
2549.00,2.2316
2548.00,2.2530
2547.00,2.2730
2546.00,2.2916
2545.00,2.3093
2544.00,2.3267
2543.00,2.3438
2542.00,2.3603
2541.00,2.3757
2540.00,2.3895
2539.00,2.4020
2538.00,2.4139
2537.00,2.4261
2536.00,2.4386
2535.00,2.4506
2534.00,2.4613
2533.00,2.4708
2532.00,2.4798
2531.00,2.4884
2530.00,2.4964
2529.00,2.5034
2528.00,2.5096
2527.00,2.5160
2526.00,2.5230
2525.00,2.5304
2524.00,2.5375
2523.00,2.5437
2522.00,2.5493
2521.00,2.5539
2520.00,2.5572
2519.00,2.5588
2518.00,2.5596
2517.00,2.5610
2516.00,2.5632
2515.00,2.5652
2514.00,2.5665
2513.00,2.5668
2512.00,2.5664
2511.00,2.5656
2510.00,2.5646
2509.00,2.5640
2508.00,2.5638
2507.00,2.5635
2506.00,2.5622
2505.00,2.5600
2504.00,2.5573
2503.00,2.5541
2502.00,2.5502
2501.00,2.5453
2500.00,2.5395
2499.00,2.5331
2498.00,2.5266
2497.00,2.5198
2496.00,2.5126
2495.00,2.5050
2494.00,2.4973
2493.00,2.4897
2492.00,2.4817
2491.00,2.4729
2490.00,2.4629
2489.00,2.4519
2488.00,2.4395
2487.00,2.4256
2486.00,2.4110
2485.00,2.3968
2484.00,2.3834
2483.00,2.3703
2482.00,2.3565
2481.00,2.3415
2480.00,2.3254
2479.00,2.3081
2478.00,2.2894
2477.00,2.2693
2476.00,2.2483
2475.00,2.2264
2474.00,2.2038
2473.00,2.1804
2472.00,2.1561
2471.00,2.1305
2470.00,2.1034
2469.00,2.0744
2468.00,2.0433
2467.00,2.0103
2466.00,1.9759
2465.00,1.9402
2464.00,1.9030
2463.00,1.8642
2462.00,1.8236
2461.00,1.7815
2460.00,1.7383
2459.00,1.6944
2458.00,1.6500
2457.00,1.6057
2456.00,1.5619
2455.00,1.5194
2454.00,1.4785
2453.00,1.4397
2452.00,1.4036
2451.00,1.3707
2450.00,1.3417
2449.00,1.3169
2448.00,1.2968
2447.00,1.2817
2446.00,1.2719
2445.00,1.2675
2444.00,1.2688
2443.00,1.2754
2442.00,1.2873
2441.00,1.3042
2440.00,1.3255
2439.00,1.3509
2438.00,1.3796
2437.00,1.4114
2436.00,1.4455
2435.00,1.4815
2434.00,1.5192
2433.00,1.5581
2432.00,1.5982
2431.00,1.6391
2430.00,1.6803
2429.00,1.7214
2428.00,1.7620
2427.00,1.8022
2426.00,1.8418
2425.00,1.8811
2424.00,1.9200
2423.00,1.9580
2422.00,1.9949
2421.00,2.0302
2420.00,2.0639
2419.00,2.0959
2418.00,2.1262
2417.00,2.1549
2416.00,2.1822
2415.00,2.2082
2414.00,2.2333
2413.00,2.2572
2412.00,2.2797
2411.00,2.3005
2410.00,2.3202
2409.00,2.3393
2408.00,2.3580
2407.00,2.3760
2406.00,2.3930
2405.00,2.4090
2404.00,2.4244
2403.00,2.4390
2402.00,2.4525
2401.00,2.4649
2400.00,2.4769
2399.00,2.4893
2398.00,2.5021
2397.00,2.5147
2396.00,2.5269
2395.00,2.5387
2394.00,2.5509
2393.00,2.5623
2392.00,2.5740
2391.00,2.5837
2390.00,2.5911
2389.00,2.6012
2388.00,2.6093
2387.00,2.6161
2386.00,2.6220
2385.00,2.6284
2384.00,2.6348
2383.00,2.6401
2382.00,2.6442
2381.00,2.6485
2380.00,2.6539
2379.00,2.6601
2378.00,2.6658
2377.00,2.6699
2376.00,2.6724
2375.00,2.6740
2374.00,2.6754
2373.00,2.6762
2372.00,2.6752
2371.00,2.6721
2370.00,2.6690
2369.00,2.6683
2368.00,2.6701
2367.00,2.6720
2366.00,2.6717
2365.00,2.6689
2364.00,2.6648
2363.00,2.6604
2362.00,2.6560
2361.00,2.6512
2360.00,2.6459
2359.00,2.6403
2358.00,2.6341
2357.00,2.6269
2356.00,2.6185
2355.00,2.6089
2354.00,2.5986
2353.00,2.5877
2352.00,2.5767
2351.00,2.5662
2350.00,2.5566
2349.00,2.5475
2348.00,2.5378
2347.00,2.5270
2346.00,2.5150
2345.00,2.5018
2344.00,2.4868
2343.00,2.4699
2342.00,2.4513
2341.00,2.4321
2340.00,2.4109
2339.00,2.3937
2338.00,2.3687
2337.00,2.3573
2336.00,2.3193
2335.00,2.3234
2334.00,2.2275
2333.00,2.1336
2332.00,2.2013
2331.00,2.2408
2330.00,2.2773
2329.00,2.2760
2328.00,2.2492
2327.00,2.2076
2326.00,2.1746
2325.00,2.1613
2324.00,2.1785
2323.00,2.1941
2322.00,2.2002
2321.00,2.1818
2320.00,2.1491
2319.00,2.1048
2318.00,2.0510
2317.00,1.9995
2316.00,1.9606
2315.00,1.9525
2314.00,1.9690
2313.00,2.0029
2312.00,2.0355
2311.00,2.0610
2310.00,2.0787
2309.00,2.0935
2308.00,2.1097
2307.00,2.1282
2306.00,2.1494
2305.00,2.1734
2304.00,2.2022
2303.00,2.2376
2302.00,2.2792
2301.00,2.3269
2300.00,2.3751
2299.00,2.4233
2298.00,2.4678
2297.00,2.5095
2296.00,2.5431
2295.00,2.5654
2294.00,2.5703
2293.00,2.5551
2292.00,2.5185
2291.00,2.4637
2290.00,2.3990
2289.00,2.3340
2288.00,2.2774
2287.00,2.2325
2286.00,2.2004
2285.00,2.1798
2284.00,2.1710
2283.00,2.1740
2282.00,2.1896
2281.00,2.2155
2280.00,2.2479
2279.00,2.2830
2278.00,2.3193
2277.00,2.3568
2276.00,2.3944
2275.00,2.4312
2274.00,2.4662
2273.00,2.4997
2272.00,2.5316
2271.00,2.5619
2270.00,2.5912
2269.00,2.6208
2268.00,2.6521
2267.00,2.6840
2266.00,2.7143
2265.00,2.7420
2264.00,2.7681
2263.00,2.7955
2262.00,2.8260
2261.00,2.8593
2260.00,2.8968
2259.00,2.9443
2258.00,3.0134
2257.00,3.1161
2256.00,3.2590
2255.00,3.4360
2254.00,3.6087
2253.00,3.6914
2252.00,3.6216
2251.00,3.4518
2250.00,3.2584
2249.00,3.0764
2248.00,2.9160
2247.00,2.7801
2246.00,2.6699
2245.00,2.5853
2244.00,2.5255
2243.00,2.4886
2242.00,2.4721
2241.00,2.4725
2240.00,2.4854
2239.00,2.5060
2238.00,2.5304
2237.00,2.5561
2236.00,2.5814
2235.00,2.6057
2234.00,2.6285
2233.00,2.6496
2232.00,2.6686
2231.00,2.6857
2230.00,2.7013
2229.00,2.7163
2228.00,2.7300
2227.00,2.7417
2226.00,2.7508
2225.00,2.7580
2224.00,2.7640
2223.00,2.7693
2222.00,2.7747
2221.00,2.7804
2220.00,2.7852
2219.00,2.7872
2218.00,2.7864
2217.00,2.7845
2216.00,2.7836
2215.00,2.7834
2214.00,2.7828
2213.00,2.7812
2212.00,2.7792
2211.00,2.7773
2210.00,2.7755
2209.00,2.7731
2208.00,2.7698
2207.00,2.7657
2206.00,2.7608
2205.00,2.7551
2204.00,2.7484
2203.00,2.7406
2202.00,2.7323
2201.00,2.7238
2200.00,2.7149
2199.00,2.7050
2198.00,2.6946
2197.00,2.6849
2196.00,2.6762
2195.00,2.6674
2194.00,2.6568
2193.00,2.6435
2192.00,2.6279
2191.00,2.6109
2190.00,2.5933
2189.00,2.5756
2188.00,2.5577
2187.00,2.5389
2186.00,2.5190
2185.00,2.4982
2184.00,2.4768
2183.00,2.4547
2182.00,2.4315
2181.00,2.4070
2180.00,2.3814
2179.00,2.3546
2178.00,2.3264
2177.00,2.2964
2176.00,2.2644
2175.00,2.2304
2174.00,2.1943
2173.00,2.1562
2172.00,2.1160
2171.00,2.0733
2170.00,2.0278
2169.00,1.9796
2168.00,1.9293
2167.00,1.8773
2166.00,1.8237
2165.00,1.7690
2164.00,1.7136
2163.00,1.6584
2162.00,1.6042
2161.00,1.5522
2160.00,1.5033
2159.00,1.4585
2158.00,1.4186
2157.00,1.3843
2156.00,1.3564
2155.00,1.3356
2154.00,1.3224
2153.00,1.3173
2152.00,1.3204
2151.00,1.3315
2150.00,1.3501
2149.00,1.3758
2148.00,1.4075
2147.00,1.4444
2146.00,1.4854
2145.00,1.5297
2144.00,1.5764
2143.00,1.6249
2142.00,1.6744
2141.00,1.7246
2140.00,1.7752
2139.00,1.8256
2138.00,1.8755
2137.00,1.9245
2136.00,1.9724
2135.00,2.0191
2134.00,2.0644
2133.00,2.1083
2132.00,2.1507
2131.00,2.1914
2130.00,2.2300
2129.00,2.2666
2128.00,2.3011
2127.00,2.3336
2126.00,2.3646
2125.00,2.3943
2124.00,2.4227
2123.00,2.4502
2122.00,2.4769
2121.00,2.5029
2120.00,2.5276
2119.00,2.5503
2118.00,2.5704
2117.00,2.5882
2116.00,2.6049
2115.00,2.6214
2114.00,2.6381
2113.00,2.6546
2112.00,2.6706
2111.00,2.6859
2110.00,2.7003
2109.00,2.7137
2108.00,2.7261
2107.00,2.7379
2106.00,2.7495
2105.00,2.7610
2104.00,2.7722
2103.00,2.7831
2102.00,2.7939
2101.00,2.8047
2100.00,2.8155
2099.00,2.8257
2098.00,2.8348
2097.00,2.8429
2096.00,2.8504
2095.00,2.8565
2094.00,2.8599
2093.00,2.8595
2092.00,2.8574
2091.00,2.8575
2090.00,2.8620
2089.00,2.8695
2088.00,2.8762
2087.00,2.8800
2086.00,2.8818
2085.00,2.8825
2084.00,2.8826
2083.00,2.8822
2082.00,2.8822
2081.00,2.8830
2080.00,2.8843
2079.00,2.8850
2078.00,2.8847
2077.00,2.8834
2076.00,2.8815
2075.00,2.8797
2074.00,2.8782
2073.00,2.8769
2072.00,2.8751
2071.00,2.8730
2070.00,2.8709
2069.00,2.8683
2068.00,2.8631
2067.00,2.8540
2066.00,2.8418
2065.00,2.8295
2064.00,2.8197
2063.00,2.8131
2062.00,2.8086
2061.00,2.8039
2060.00,2.7969
2059.00,2.7866
2058.00,2.7740
2057.00,2.7608
2056.00,2.7484
2055.00,2.7364
2054.00,2.7234
2053.00,2.7085
2052.00,2.6923
2051.00,2.6756
2050.00,2.6583
2049.00,2.6402
2048.00,2.6216
2047.00,2.6028
2046.00,2.5839
2045.00,2.5641
2044.00,2.5429
2043.00,2.5198
2042.00,2.4950
2041.00,2.4686
2040.00,2.4411
2039.00,2.4124
2038.00,2.3823
2037.00,2.3503
2036.00,2.3165
2035.00,2.2811
2034.00,2.2439
2033.00,2.2045
2032.00,2.1628
2031.00,2.1186
2030.00,2.0717
2029.00,2.0221
2028.00,1.9699
2027.00,1.9158
2026.00,1.8603
2025.00,1.8043
2024.00,1.7486
2023.00,1.6939
2022.00,1.6411
2021.00,1.5912
2020.00,1.5450
2019.00,1.5031
2018.00,1.4668
2017.00,1.4370
2016.00,1.4145
2015.00,1.3996
2014.00,1.3927
2013.00,1.3944
2012.00,1.4049
2011.00,1.4234
2010.00,1.4490
2009.00,1.4805
2008.00,1.5175
2007.00,1.5590
2006.00,1.6041
2005.00,1.6519
2004.00,1.7018
2003.00,1.7530
2002.00,1.8048
2001.00,1.8565
2000.00,1.9079
1999.00,1.9586
1998.00,2.0086
1997.00,2.0580
1996.00,2.1062
1995.00,2.1524
1994.00,2.1964
1993.00,2.2390
1992.00,2.2810
1991.00,2.3214
1990.00,2.3593
1989.00,2.3947
1988.00,2.4287
1987.00,2.4620
1986.00,2.4941
1985.00,2.5242
1984.00,2.5520
1983.00,2.5781
1982.00,2.6034
1981.00,2.6278
1980.00,2.6509
1979.00,2.6725
1978.00,2.6929
1977.00,2.7121
1976.00,2.7286
1975.00,2.7420
1974.00,2.7538
1973.00,2.7667
1972.00,2.7817
1971.00,2.7976
1970.00,2.8130
1969.00,2.8272
1968.00,2.8404
1967.00,2.8528
1966.00,2.8652
1965.00,2.8782
1964.00,2.8917
1963.00,2.9046
1962.00,2.9156
1961.00,2.9237
1960.00,2.9291
1959.00,2.9338
1958.00,2.9399
1957.00,2.9480
1956.00,2.9567
1955.00,2.9649
1954.00,2.9726
1953.00,2.9802
1952.00,2.9866
1951.00,2.9897
1950.00,2.9891
1949.00,2.9868
1948.00,2.9860
1947.00,2.9885
1946.00,2.9927
1945.00,2.9953
1944.00,2.9953
1943.00,2.9950
1942.00,2.9971
1941.00,3.0005
1940.00,3.0016
1939.00,2.9986
1938.00,2.9932
1937.00,2.9888
1936.00,2.9868
1935.00,2.9872
1934.00,2.9883
1933.00,2.9880
1932.00,2.9851
1931.00,2.9812
1930.00,2.9785
1929.00,2.9756
1928.00,2.9695
1927.00,2.9590
1926.00,2.9468
1925.00,2.9363
1924.00,2.9281
1923.00,2.9210
1922.00,2.9127
1921.00,2.9016
1920.00,2.8894
1919.00,2.8792
1918.00,2.8725
1917.00,2.8666
1916.00,2.8567
1915.00,2.8417
1914.00,2.8251
1913.00,2.8098
1912.00,2.7958
1911.00,2.7809
1910.00,2.7643
1909.00,2.7461
1908.00,2.7270
1907.00,2.7068
1906.00,2.6864
1905.00,2.6669
1904.00,2.6475
1903.00,2.6265
1902.00,2.6027
1901.00,2.5761
1900.00,2.5484
1899.00,2.5199
1898.00,2.4900
1897.00,2.4575
1896.00,2.4219
1895.00,2.3842
1894.00,2.3448
1893.00,2.3034
1892.00,2.2590
1891.00,2.2118
1890.00,2.1628
1889.00,2.1124
1888.00,2.0596
1887.00,2.0039
1886.00,1.9468
1885.00,1.8906
1884.00,1.8364
1883.00,1.7833
1882.00,1.7314
1881.00,1.6823
1880.00,1.6382
1879.00,1.5998
1878.00,1.5678
1877.00,1.5432
1876.00,1.5265
1875.00,1.5177
1874.00,1.5168
1873.00,1.5231
1872.00,1.5352
1871.00,1.5529
1870.00,1.5781
1869.00,1.6127
1868.00,1.6548
1867.00,1.7002
1866.00,1.7468
1865.00,1.7963
1864.00,1.8500
1863.00,1.9062
1862.00,1.9625
1861.00,2.0181
1860.00,2.0728
1859.00,2.1260
1858.00,2.1774
1857.00,2.2271
1856.00,2.2750
1855.00,2.3209
1854.00,2.3650
1853.00,2.4073
1852.00,2.4471
1851.00,2.4834
1850.00,2.5170
1849.00,2.5504
1848.00,2.5820
1847.00,2.6082
1846.00,2.6302
1845.00,2.6545
1844.00,2.6852
1843.00,2.7182
1842.00,2.7459
1841.00,2.7674
1840.00,2.7873
1839.00,2.8082
1838.00,2.8295
1837.00,2.8492
1836.00,2.8662
1835.00,2.8814
1834.00,2.8960
1833.00,2.9100
1832.00,2.9225
1831.00,2.9340
1830.00,2.9469
1829.00,2.9612
1828.00,2.9720
1827.00,2.9783
1826.00,2.9866
1825.00,3.0007
1824.00,3.0157
1823.00,3.0258
1822.00,3.0336
1821.00,3.0452
1820.00,3.0597
1819.00,3.0712
1818.00,3.0779
1817.00,3.0829
1816.00,3.0885
1815.00,3.0945
1814.00,3.1002
1813.00,3.1048
1812.00,3.1073
1811.00,3.1078
1810.00,3.1096
1809.00,3.1129
1808.00,3.1148
1807.00,3.1128
1806.00,3.1085
1805.00,3.1041
1804.00,3.0996
1803.00,3.0954
1802.00,3.0932
1801.00,3.0955
1800.00,3.1003
1799.00,3.1045
1798.00,3.1077
1797.00,3.1111
1796.00,3.1134
1795.00,3.1126
1794.00,3.1083
1793.00,3.1023
1792.00,3.0947
1791.00,3.0843
1790.00,3.0711
1789.00,3.0570
1788.00,3.0444
1787.00,3.0349
1786.00,3.0300
1785.00,3.0281
1784.00,3.0232
1783.00,3.0101
1782.00,2.9902
1781.00,2.9715
1780.00,2.9579
1779.00,2.9462
1778.00,2.9335
1777.00,2.9195
1776.00,2.9048
1775.00,2.8872
1774.00,2.8659
1773.00,2.8438
1772.00,2.8236
1771.00,2.8025
1770.00,2.7774
1769.00,2.7514
1768.00,2.7283
1767.00,2.7072
1766.00,2.6834
1765.00,2.6548
1764.00,2.6230
1763.00,2.5907
1762.00,2.5573
1761.00,2.5200
1760.00,2.4766
1759.00,2.4296
1758.00,2.3841
1757.00,2.3424
1756.00,2.3036
1755.00,2.2635
1754.00,2.2209
1753.00,2.1801
1752.00,2.1448
1751.00,2.1141
1750.00,2.0861
1749.00,2.0614
1748.00,2.0453
1747.00,2.0418
1746.00,2.0482
1745.00,2.0618
1744.00,2.0813
1743.00,2.1055
1742.00,2.1330
1741.00,2.1637
1740.00,2.2004
1739.00,2.2432
1738.00,2.2830
1737.00,2.3126
1736.00,2.3391
1735.00,2.3775
1734.00,2.4337
1733.00,2.4952
1732.00,2.5433
1731.00,2.5828
1730.00,2.6315
1729.00,2.6932
1728.00,2.7599
1727.00,2.8229
1726.00,2.8801
1725.00,2.9343
1724.00,2.9877
1723.00,3.0422
1722.00,3.0970
1721.00,3.1477
1720.00,3.1955
1719.00,3.2519
1718.00,3.3321
1717.00,3.4373
1716.00,3.5460
1715.00,3.6347
1714.00,3.6935
1713.00,3.7195
1712.00,3.7227
1711.00,3.7286
1710.00,3.7619
1709.00,3.8293
1708.00,3.9074
1707.00,3.9351
1706.00,3.8509
1705.00,3.6858
1704.00,3.5154
1703.00,3.3633
1702.00,3.2160
1701.00,3.0590
1700.00,2.9063
1699.00,2.7752
1698.00,2.6609
1697.00,2.5700
1696.00,2.5158
1695.00,2.4974
1694.00,2.4974
1693.00,2.5037
1692.00,2.5227
1691.00,2.5590
1690.00,2.6051
1689.00,2.6502
1688.00,2.6880
1687.00,2.7175
1686.00,2.7445
1685.00,2.7781
1684.00,2.8233
1683.00,2.8687
1682.00,2.8973
1681.00,2.9192
1680.00,2.9501
1679.00,2.9837
1678.00,3.0060
1677.00,3.0160
1676.00,3.0261
1675.00,3.0452
1674.00,3.0652
1673.00,3.0752
1672.00,3.0792
1671.00,3.0907
1670.00,3.1149
1669.00,3.1444
1668.00,3.1692
1667.00,3.1856
1666.00,3.1980
1665.00,3.2107
1664.00,3.2236
1663.00,3.2352
1662.00,3.2402
1661.00,3.2360
1660.00,3.2280
1659.00,3.2253
1658.00,3.2303
1657.00,3.2338
1656.00,3.2245
1655.00,3.2042
1654.00,3.1914
1653.00,3.2039
1652.00,3.2303
1651.00,3.2385
1650.00,3.2322
1649.00,3.2327
1648.00,3.2390
1647.00,3.2405
1646.00,3.2341
1645.00,3.2250
1644.00,3.2199
1643.00,3.2228
1642.00,3.2318
1641.00,3.2434
1640.00,3.2511
1639.00,3.2462
1638.00,3.2271
1637.00,3.2028
1636.00,3.1876
1635.00,3.1860
1634.00,3.1887
1633.00,3.1861
1632.00,3.1809
1631.00,3.1772
1630.00,3.1716
1629.00,3.1602
1628.00,3.1430
1627.00,3.1231
1626.00,3.1030
1625.00,3.0857
1624.00,3.0729
1623.00,3.0632
1622.00,3.0517
1621.00,3.0351
1620.00,3.0153
1619.00,2.9970
1618.00,2.9824
1617.00,2.9686
1616.00,2.9498
1615.00,2.9217
1614.00,2.8892
1613.00,2.8621
1612.00,2.8427
1611.00,2.8246
1610.00,2.8002
1609.00,2.7686
1608.00,2.7336
1607.00,2.6981
1606.00,2.6613
1605.00,2.6230
1604.00,2.5840
1603.00,2.5438
1602.00,2.5015
1601.00,2.4559
1600.00,2.4068
1599.00,2.3559
1598.00,2.3053
1597.00,2.2561
1596.00,2.2081
1595.00,2.1623
1594.00,2.1198
1593.00,2.0815
1592.00,2.0484
1591.00,2.0213
1590.00,2.0012
1589.00,1.9885
1588.00,1.9832
1587.00,1.9860
1586.00,1.9977
1585.00,2.0177
1584.00,2.0453
1583.00,2.0789
1582.00,2.1182
1581.00,2.1622
1580.00,2.2059
1579.00,2.2446
1578.00,2.2808
1577.00,2.3228
1576.00,2.3747
1575.00,2.4293
1574.00,2.4742
1573.00,2.5101
1572.00,2.5461
1571.00,2.5874
1570.00,2.6342
1569.00,2.6815
1568.00,2.7224
1567.00,2.7554
1566.00,2.7882
1565.00,2.8261
1564.00,2.8637
1563.00,2.8896
1562.00,2.8996
1561.00,2.9029
1560.00,2.9151
1559.00,2.9475
1558.00,2.9912
1557.00,3.0197
1556.00,3.0347
1555.00,3.0559
1554.00,3.0867
1553.00,3.1192
1552.00,3.1443
1551.00,3.1632
1550.00,3.1827
1549.00,3.2013
1548.00,3.2124
1547.00,3.2168
1546.00,3.2238
1545.00,3.2388
1544.00,3.2550
1543.00,3.2624
1542.00,3.2631
1541.00,3.2677
1540.00,3.2820
1539.00,3.3002
1538.00,3.3123
1537.00,3.3181
1536.00,3.3232
1535.00,3.3287
1534.00,3.3352
1533.00,3.3477
1532.00,3.3658
1531.00,3.3856
1530.00,3.4031
1529.00,3.4112
1528.00,3.4076
1527.00,3.4002
1526.00,3.3993
1525.00,3.4053
1524.00,3.4061
1523.00,3.3944
1522.00,3.3803
1521.00,3.3780
1520.00,3.3848
1519.00,3.3875
1518.00,3.3844
1517.00,3.3816
1516.00,3.3797
1515.00,3.3779
1514.00,3.3807
1513.00,3.3925
1512.00,3.4037
1511.00,3.3999
1510.00,3.3800
1509.00,3.3579
1508.00,3.3464
1507.00,3.3479
1506.00,3.3549
1505.00,3.3576
1504.00,3.3533
1503.00,3.3469
1502.00,3.3444
1501.00,3.3492
1500.00,3.3591
1499.00,3.3633
1498.00,3.3509
1497.00,3.3234
1496.00,3.2946
1495.00,3.2747
1494.00,3.2615
1493.00,3.2515
1492.00,3.2446
1491.00,3.2400
1490.00,3.2323
1489.00,3.2150
1488.00,3.1905
1487.00,3.1707
1486.00,3.1620
1485.00,3.1603
1484.00,3.1591
1483.00,3.1547
1482.00,3.1492
1481.00,3.1436
1480.00,3.1319
1479.00,3.1098
1478.00,3.0817
1477.00,3.0572
1476.00,3.0398
1475.00,3.0263
1474.00,3.0124
1473.00,2.9996
1472.00,2.9915
1471.00,2.9897
1470.00,2.9953
1469.00,3.0092
1468.00,3.0291
1467.00,3.0512
1466.00,3.0745
1465.00,3.1006
1464.00,3.1270
1463.00,3.1477
1462.00,3.1651
1461.00,3.1862
1460.00,3.2126
1459.00,3.2377
1458.00,3.2573
1457.00,3.2771
1456.00,3.3048
1455.00,3.3386
1454.00,3.3777
1453.00,3.4265
1452.00,3.4794
1451.00,3.5235
1450.00,3.5552
1449.00,3.5833
1448.00,3.6058
1447.00,3.6043
1446.00,3.5780
1445.00,3.5544
1444.00,3.5502
1443.00,3.5568
1442.00,3.5564
1441.00,3.5456
1440.00,3.5321
1439.00,3.5140
1438.00,3.4906
1437.00,3.4746
1436.00,3.4801
1435.00,3.5013
1434.00,3.5219
1433.00,3.5381
1432.00,3.5528
1431.00,3.5584
1430.00,3.5428
1429.00,3.5110
1428.00,3.4839
1427.00,3.4738
1426.00,3.4748
1425.00,3.4773
1424.00,3.4784
1423.00,3.4773
1422.00,3.4715
1421.00,3.4586
1420.00,3.4413
1419.00,3.4271
1418.00,3.4224
1417.00,3.4273
1416.00,3.4356
1415.00,3.4351
1414.00,3.4172
1413.00,3.3898
1412.00,3.3690
1411.00,3.3623
1410.00,3.3621
1409.00,3.3563
1408.00,3.3438
1407.00,3.3322
1406.00,3.3246
1405.00,3.3192
1404.00,3.3163
1403.00,3.3202
1402.00,3.3328
1401.00,3.3490
1400.00,3.3626
1399.00,3.3733
1398.00,3.3854
1397.00,3.4035
1396.00,3.4273
1395.00,3.4478
1394.00,3.4549
1393.00,3.4530
1392.00,3.4590
1391.00,3.4851
1390.00,3.5279
1389.00,3.5708
1388.00,3.5989
1387.00,3.6106
1386.00,3.6118
1385.00,3.6091
1384.00,3.6149
1383.00,3.6454
1382.00,3.7030
1381.00,3.7666
1380.00,3.8164
1379.00,3.8523
1378.00,3.8802
1377.00,3.9047
1376.00,3.9126
1375.00,3.8788
1374.00,3.8044
1373.00,3.7168
1372.00,3.6368
1371.00,3.5757
1370.00,3.5402
1369.00,3.5307
1368.00,3.5356
1367.00,3.5372
1366.00,3.5280
1365.00,3.5173
1364.00,3.5179
1363.00,3.5297
1362.00,3.5376
1361.00,3.5288
1360.00,3.5106
1359.00,3.4997
1358.00,3.5053
1357.00,3.5256
1356.00,3.5530
1355.00,3.5790
1354.00,3.5976
1353.00,3.6052
1352.00,3.6030
1351.00,3.5990
1350.00,3.6006
1349.00,3.6079
1348.00,3.6164
1347.00,3.6265
1346.00,3.6435
1345.00,3.6691
1344.00,3.6931
1343.00,3.7006
1342.00,3.6917
1341.00,3.6840
1340.00,3.6870
1339.00,3.6893
1338.00,3.6810
1337.00,3.6701
1336.00,3.6652
1335.00,3.6628
1334.00,3.6521
1333.00,3.6213
1332.00,3.5691
1331.00,3.5092
1330.00,3.4616
1329.00,3.4392
1328.00,3.4417
1327.00,3.4549
1326.00,3.4620
1325.00,3.4601
1324.00,3.4592
1323.00,3.4636
1322.00,3.4627
1321.00,3.4455
1320.00,3.4188
1319.00,3.3987
1318.00,3.3914
1317.00,3.3906
1316.00,3.3888
1315.00,3.3876
1314.00,3.3923
1313.00,3.4009
1312.00,3.4037
1311.00,3.3943
1310.00,3.3760
1309.00,3.3544
1308.00,3.3305
1307.00,3.3017
1306.00,3.2658
1305.00,3.2228
1304.00,3.1756
1303.00,3.1285
1302.00,3.0846
1301.00,3.0433
1300.00,3.0022
1299.00,2.9591
1298.00,2.9130
1297.00,2.8626
1296.00,2.8073
1295.00,2.7481
1294.00,2.6866
1293.00,2.6244
1292.00,2.5625
1291.00,2.5027
1290.00,2.4474
1289.00,2.3984
1288.00,2.3575
1287.00,2.3262
1286.00,2.3059
1285.00,2.2975
1284.00,2.3016
1283.00,2.3182
1282.00,2.3472
1281.00,2.3871
1280.00,2.4346
1279.00,2.4853
1278.00,2.5362
1277.00,2.5861
1276.00,2.6348
1275.00,2.6810
1274.00,2.7235
1273.00,2.7622
1272.00,2.7991
1271.00,2.8370
1270.00,2.8788
1269.00,2.9258
1268.00,2.9761
1267.00,3.0242
1266.00,3.0653
1265.00,3.0996
1264.00,3.1304
1263.00,3.1598
1262.00,3.1883
1261.00,3.2169
1260.00,3.2458
1259.00,3.2728
1258.00,3.2960
1257.00,3.3186
1256.00,3.3469
1255.00,3.3841
1254.00,3.4267
1253.00,3.4683
1252.00,3.5055
1251.00,3.5377
1250.00,3.5615
1249.00,3.5688
1248.00,3.5580
1247.00,3.5433
1246.00,3.5405
1245.00,3.5527
1244.00,3.5710
1243.00,3.5851
1242.00,3.5983
1241.00,3.6276
1240.00,3.6841
1239.00,3.7527
1238.00,3.7928
1237.00,3.7832
1236.00,3.7472
1235.00,3.7191
1234.00,3.7168
1233.00,3.7351
1232.00,3.7518
1231.00,3.7482
1230.00,3.7302
1229.00,3.7177
1228.00,3.7195
1227.00,3.7288
1226.00,3.7353
1225.00,3.7393
1224.00,3.7476
1223.00,3.7611
1222.00,3.7688
1221.00,3.7586
1220.00,3.7355
1219.00,3.7171
1218.00,3.7170
1217.00,3.7365
1216.00,3.7636
1215.00,3.7815
1214.00,3.7836
1213.00,3.7773
1212.00,3.7730
1211.00,3.7681
1210.00,3.7526
1209.00,3.7352
1208.00,3.7342
1207.00,3.7575
1206.00,3.7987
1205.00,3.8430
1204.00,3.8774
1203.00,3.8827
1202.00,3.8515
1201.00,3.8172
1200.00,3.8202
1199.00,3.8682
1198.00,3.9229
1197.00,3.9288
1196.00,3.8788
1195.00,3.8073
1194.00,3.7386
1193.00,3.6875
1192.00,3.6719
1191.00,3.7018
1190.00,3.7591
1189.00,3.7911
1188.00,3.7671
1187.00,3.7273
1186.00,3.7169
1185.00,3.7380
1184.00,3.7584
1183.00,3.7401
1182.00,3.6862
1181.00,3.6336
1180.00,3.6004
1179.00,3.5826
1178.00,3.5698
1177.00,3.5552
1176.00,3.5391
1175.00,3.5238
1174.00,3.5053
1173.00,3.4748
1172.00,3.4335
1171.00,3.3945
1170.00,3.3664
1169.00,3.3433
1168.00,3.3121
1167.00,3.2686
1166.00,3.2213
1165.00,3.1773
1164.00,3.1357
1163.00,3.0932
1162.00,3.0507
1161.00,3.0096
1160.00,2.9681
1159.00,2.9220
1158.00,2.8706
1157.00,2.8178
1156.00,2.7678
1155.00,2.7217
1154.00,2.6787
1153.00,2.6390
1152.00,2.6048
1151.00,2.5795
1150.00,2.5656
1149.00,2.5645
1148.00,2.5761
1147.00,2.5989
1146.00,2.6301
1145.00,2.6678
1144.00,2.7117
1143.00,2.7619
1142.00,2.8165
1141.00,2.8721
1140.00,2.9266
1139.00,2.9806
1138.00,3.0342
1137.00,3.0848
1136.00,3.1341
1135.00,3.1901
1134.00,3.2581
1133.00,3.3297
1132.00,3.3875
1131.00,3.4283
1130.00,3.4707
1129.00,3.5301
1128.00,3.5997
1127.00,3.6525
1126.00,3.6752
1125.00,3.6916
1124.00,3.7155
1123.00,3.7141
1122.00,3.6634
1121.00,3.6050
1120.00,3.5779
1119.00,3.5958
1118.00,3.6605
1117.00,3.7500
1116.00,3.8158
1115.00,3.8245
1114.00,3.8036
1113.00,3.8113
1112.00,3.8908
1111.00,4.0518
1110.00,4.2033
1109.00,4.1837
1108.00,4.0824
1107.00,4.0445
1106.00,4.0981
1105.00,4.1495
1104.00,4.0914
1103.00,3.9740
1102.00,3.8726
1101.00,3.8144
1100.00,3.7927
1099.00,3.8026
1098.00,3.8639
1097.00,4.0035
1096.00,4.1913
1095.00,4.2601
1094.00,4.1651
1093.00,4.0851
1092.00,4.0899
1091.00,4.1408
1090.00,4.1908
1089.00,4.1886
1088.00,4.0747
1087.00,3.9688
1086.00,3.9683
1085.00,4.0294
1084.00,3.9929
1083.00,3.9190
1082.00,3.9276
1081.00,3.9736
1080.00,3.9856
1079.00,4.0586
1078.00,4.3597
1077.00,4.5088
1076.00,4.2164
1075.00,4.1355
1074.00,4.0844
1073.00,4.0768
1072.00,4.1993
1071.00,4.4762
1070.00,4.9917
1069.00,5.5698
1068.00,5.3146
1067.00,5.0896
1066.00,4.6108
1065.00,4.2689
1064.00,4.1245
1063.00,4.1388
1062.00,4.2508
1061.00,4.2646
1060.00,4.2021
1059.00,4.2071
1058.00,4.2634
1057.00,4.3339
1056.00,4.3901
1055.00,4.4847
1054.00,4.8361
1053.00,4.8514
1052.00,4.3643
1051.00,4.1557
1050.00,4.0517
1049.00,4.0082
1048.00,4.0651
1047.00,4.2737
1046.00,4.5179
1045.00,4.5008
1044.00,4.5718
1043.00,4.6715
1042.00,4.6003
1041.00,4.7273
1040.00,4.6320
1039.00,4.2426
1038.00,4.0837
1037.00,4.0607
1036.00,4.0818
1035.00,4.0866
1034.00,4.0446
1033.00,3.9945
1032.00,3.9710
1031.00,3.9735
1030.00,4.0137
1029.00,4.1109
1028.00,4.2289
1027.00,4.2895
1026.00,4.3299
1025.00,4.3686
1024.00,4.2686
1023.00,4.1077
1022.00,3.9958
1021.00,3.9385
1020.00,3.9384
1019.00,3.9792
1018.00,4.0276
1017.00,4.0515
1016.00,4.0029
1015.00,3.9207
1014.00,3.8615
1013.00,3.8146
1012.00,3.7726
1011.00,3.7471
1010.00,3.7262
1009.00,3.6666
1008.00,3.5573
1007.00,3.4447
1006.00,3.3690
1005.00,3.3389
1004.00,3.3459
1003.00,3.3731
1002.00,3.3943
1001.00,3.3804
1000.00,3.3343
999.00,3.2893
998.00,3.2727
997.00,3.2933
996.00,3.3424
995.00,3.4025
994.00,3.4606
993.00,3.5117
992.00,3.5528
991.00,3.5832
990.00,3.6103
989.00,3.6450
988.00,3.6948
987.00,3.7624
986.00,3.8348
985.00,3.8845
984.00,3.8991
983.00,3.8952
982.00,3.9056
981.00,3.9609
980.00,4.0628
979.00,4.1952
978.00,4.3557
977.00,4.4751
976.00,4.4104
975.00,4.2432
974.00,4.1661
973.00,4.2204
972.00,4.4331
971.00,4.6445
970.00,4.3331
969.00,4.1340
968.00,4.1074
967.00,4.2612
966.00,4.4862
965.00,4.2782
964.00,4.1383
963.00,4.1483
962.00,4.2389
961.00,4.2861
960.00,4.1784
959.00,4.0776
958.00,4.0322
957.00,4.0353
956.00,4.1038
955.00,4.2598
954.00,4.5540
953.00,4.9602
952.00,5.0478
951.00,4.7684
950.00,4.3130
949.00,4.0225
948.00,3.8856
947.00,3.8766
946.00,3.9906
945.00,4.2159
944.00,4.5041
943.00,4.6515
942.00,4.6398
941.00,4.5621
940.00,4.4345
939.00,4.3410
938.00,4.2744
937.00,4.2401
936.00,4.2765
935.00,4.4056
934.00,4.5688
933.00,4.4843
932.00,4.2485
931.00,4.0910
930.00,4.0247
929.00,4.0270
928.00,4.0704
927.00,4.1171
926.00,4.1292
925.00,4.1188
924.00,4.1161
923.00,4.0837
922.00,4.0560
921.00,4.1013
920.00,4.2981
919.00,4.5210
918.00,4.3020
917.00,4.1643
916.00,4.1792
915.00,4.2203
914.00,4.1879
913.00,4.0984
912.00,4.0513
911.00,4.0913
910.00,4.1721
909.00,4.1825
908.00,4.1723
907.00,4.2080
906.00,4.2982
905.00,4.5762
904.00,4.9055
903.00,4.7441
902.00,4.7118
901.00,4.5587
900.00,4.3435
899.00,4.3863
898.00,4.6740
897.00,4.4462
896.00,4.3502
895.00,4.7233
894.00,4.7126
893.00,4.4980
892.00,4.6156
891.00,4.4562
890.00,4.3200
889.00,4.3373
888.00,4.2738
887.00,4.2576
886.00,4.3599
885.00,4.3476
884.00,4.2450
883.00,4.2377
882.00,4.2789
881.00,4.3272
880.00,4.3563
879.00,4.3452
878.00,4.3462
877.00,4.2352
876.00,4.0821
875.00,4.0703
874.00,4.1851
873.00,4.2647
872.00,4.2257
871.00,4.1717
870.00,4.1495
869.00,4.1599
868.00,4.1497
867.00,4.0885
866.00,4.0269
865.00,3.9912
864.00,3.9746
863.00,3.9583
862.00,3.9352
861.00,3.9377
860.00,4.0143
859.00,4.1698
858.00,4.2917
857.00,4.2419
856.00,4.1302
855.00,4.0577
854.00,4.0211
853.00,4.0512
852.00,4.1828
851.00,4.3105
850.00,4.2897
849.00,4.2701
848.00,4.2179
847.00,4.1491
846.00,4.1545
845.00,4.4273
844.00,5.1320
843.00,4.5849
842.00,4.6130
841.00,4.6643
840.00,4.2450
839.00,4.0375
838.00,3.9769
837.00,4.0178
836.00,4.1138
835.00,4.2742
834.00,4.4318
833.00,4.3962
832.00,4.2373
831.00,4.1753
830.00,4.2273
829.00,4.1781
828.00,4.0871
827.00,4.0435
826.00,3.9666
825.00,3.9019
824.00,3.9397
823.00,4.0796
822.00,4.1340
821.00,4.0923
820.00,4.2337
819.00,4.5157
818.00,4.3539
817.00,4.1828
816.00,4.2094
815.00,4.2184
814.00,4.0897
813.00,4.0493
812.00,4.1180
811.00,4.1491
810.00,4.0948
809.00,4.0292
808.00,3.9894
807.00,3.9572
806.00,3.9249
805.00,3.9174
804.00,3.9617
803.00,4.0369
802.00,4.1079
801.00,4.1712
800.00,4.3284
799.00,4.4749
798.00,4.2375
797.00,4.2544
796.00,4.5230
795.00,4.2990
794.00,4.1692
793.00,4.1106
792.00,3.9393
791.00,3.7999
790.00,3.7233
789.00,3.7047
788.00,3.7404
787.00,3.8295
786.00,3.9471
785.00,4.0538
784.00,4.1723
783.00,4.3966
782.00,4.6942
781.00,4.5337
780.00,4.5579
779.00,5.2100
778.00,4.7891
777.00,4.6224
776.00,4.8523
775.00,4.4743
774.00,4.1839
773.00,4.1229
772.00,4.2041
771.00,4.2981
770.00,4.4113
769.00,4.5425
768.00,4.7375
767.00,4.6556
766.00,4.1415
765.00,3.9355
764.00,3.9194
763.00,4.0061
762.00,4.1064
761.00,4.0601
760.00,3.9543
759.00,3.9035
758.00,3.9025
757.00,3.9189
756.00,3.9529
755.00,4.0603
754.00,4.2394
753.00,4.1467
752.00,4.0103
751.00,4.0567
750.00,4.0863
749.00,4.0419
748.00,4.1366
747.00,4.4366
746.00,4.7245
745.00,4.5028
744.00,4.1980
743.00,3.9804
742.00,3.8366
741.00,3.7607
740.00,3.7431
739.00,3.7875
738.00,3.9195
737.00,4.1427
736.00,4.4753
735.00,4.6954
734.00,4.4749
733.00,4.3839
732.00,4.2427
731.00,4.0587
730.00,3.9986
729.00,4.0562
728.00,4.1643
727.00,4.1716
726.00,4.0390
725.00,3.9409
724.00,3.9629
723.00,4.1542
722.00,4.5930
721.00,4.4974
720.00,4.2237
719.00,4.1433
718.00,4.3879
717.00,4.6746
716.00,4.1119
715.00,3.9724
714.00,3.8974
713.00,3.7955
712.00,3.7811
711.00,3.8203
710.00,3.8723
709.00,3.8537
708.00,3.8102
707.00,3.7896
706.00,3.7973
705.00,3.8327
704.00,3.9127
703.00,4.0647
702.00,4.3124
701.00,4.7387
700.00,4.9053
