Created as New Dataset,Sample 045 By Administrator Date Wednesday, November 24 2021
cm-1,A
7502.00,0.7686
7501.00,0.7596
7500.00,0.7507
7499.00,0.7420
7498.00,0.7335
7497.00,0.7252
7496.00,0.7170
7495.00,0.7089
7494.00,0.7004
7493.00,0.6922
7492.00,0.6855
7491.00,0.6806
7490.00,0.6769
7489.00,0.6731
7488.00,0.6678
7487.00,0.6606
7486.00,0.6515
7485.00,0.6409
7484.00,0.6295
7483.00,0.6179
7482.00,0.6068
7481.00,0.5972
7480.00,0.5894
7479.00,0.5832
7478.00,0.5780
7477.00,0.5731
7476.00,0.5684
7475.00,0.5641
7474.00,0.5602
7473.00,0.5565
7472.00,0.5527
7471.00,0.5487
7470.00,0.5445
7469.00,0.5404
7468.00,0.5361
7467.00,0.5320
7466.00,0.5283
7465.00,0.5250
7464.00,0.5217
7463.00,0.5182
7462.00,0.5145
7461.00,0.5113
7460.00,0.5087
7459.00,0.5064
7458.00,0.5043
7457.00,0.5028
7456.00,0.5023
7455.00,0.5028
7454.00,0.5040
7453.00,0.5052
7452.00,0.5061
7451.00,0.5068
7450.00,0.5080
7449.00,0.5099
7448.00,0.5122
7447.00,0.5148
7446.00,0.5178
7445.00,0.5213
7444.00,0.5256
7443.00,0.5301
7442.00,0.5345
7441.00,0.5391
7440.00,0.5441
7439.00,0.5497
7438.00,0.5558
7437.00,0.5623
7436.00,0.5690
7435.00,0.5759
7434.00,0.5830
7433.00,0.5905
7432.00,0.5980
7431.00,0.6056
7430.00,0.6130
7429.00,0.6206
7428.00,0.6286
7427.00,0.6373
7426.00,0.6466
7425.00,0.6560
7424.00,0.6652
7423.00,0.6743
7422.00,0.6838
7421.00,0.6934
7420.00,0.7029
7419.00,0.7116
7418.00,0.7199
7417.00,0.7284
7416.00,0.7376
7415.00,0.7475
7414.00,0.7574
7413.00,0.7665
7412.00,0.7747
7411.00,0.7824
7410.00,0.7903
7409.00,0.7983
7408.00,0.8060
7407.00,0.8131
7406.00,0.8202
7405.00,0.8282
7404.00,0.8373
7403.00,0.8467
7402.00,0.8554
7401.00,0.8630
7400.00,0.8703
7399.00,0.8779
7398.00,0.8857
7397.00,0.8932
7396.00,0.8998
7395.00,0.9058
7394.00,0.9115
7393.00,0.9171
7392.00,0.9226
7391.00,0.9280
7390.00,0.9332
7389.00,0.9381
7388.00,0.9429
7387.00,0.9477
7386.00,0.9525
7385.00,0.9570
7384.00,0.9612
7383.00,0.9650
7382.00,0.9687
7381.00,0.9723
7380.00,0.9758
7379.00,0.9792
7378.00,0.9821
7377.00,0.9840
7376.00,0.9846
7375.00,0.9840
7374.00,0.9826
7373.00,0.9812
7372.00,0.9801
7371.00,0.9793
7370.00,0.9787
7369.00,0.9779
7368.00,0.9770
7367.00,0.9758
7366.00,0.9745
7365.00,0.9729
7364.00,0.9706
7363.00,0.9676
7362.00,0.9639
7361.00,0.9601
7360.00,0.9562
7359.00,0.9523
7358.00,0.9484
7357.00,0.9442
7356.00,0.9396
7355.00,0.9348
7354.00,0.9296
7353.00,0.9240
7352.00,0.9176
7351.00,0.9104
7350.00,0.9024
7349.00,0.8941
7348.00,0.8855
7347.00,0.8770
7346.00,0.8690
7345.00,0.8617
7344.00,0.8549
7343.00,0.8481
7342.00,0.8410
7341.00,0.8335
7340.00,0.8254
7339.00,0.8168
7338.00,0.8080
7337.00,0.7994
7336.00,0.7912
7335.00,0.7829
7334.00,0.7746
7333.00,0.7665
7332.00,0.7588
7331.00,0.7515
7330.00,0.7443
7329.00,0.7371
7328.00,0.7298
7327.00,0.7227
7326.00,0.7159
7325.00,0.7095
7324.00,0.7033
7323.00,0.6970
7322.00,0.6908
7321.00,0.6851
7320.00,0.6797
7319.00,0.6748
7318.00,0.6702
7317.00,0.6659
7316.00,0.6619
7315.00,0.6584
7314.00,0.6555
7313.00,0.6531
7312.00,0.6511
7311.00,0.6492
7310.00,0.6477
7309.00,0.6471
7308.00,0.6471
7307.00,0.6475
7306.00,0.6480
7305.00,0.6489
7304.00,0.6502
7303.00,0.6519
7302.00,0.6540
7301.00,0.6566
7300.00,0.6596
7299.00,0.6630
7298.00,0.6668
7297.00,0.6713
7296.00,0.6763
7295.00,0.6819
7294.00,0.6876
7293.00,0.6935
7292.00,0.6995
7291.00,0.7058
7290.00,0.7124
7289.00,0.7194
7288.00,0.7267
7287.00,0.7342
7286.00,0.7419
7285.00,0.7500
7284.00,0.7584
7283.00,0.7667
7282.00,0.7750
7281.00,0.7831
7280.00,0.7913
7279.00,0.7995
7278.00,0.8076
7277.00,0.8157
7276.00,0.8238
7275.00,0.8322
7274.00,0.8406
7273.00,0.8491
7272.00,0.8573
7271.00,0.8652
7270.00,0.8729
7269.00,0.8807
7268.00,0.8889
7267.00,0.8972
7266.00,0.9052
7265.00,0.9129
7264.00,0.9205
7263.00,0.9281
7262.00,0.9356
7261.00,0.9429
7260.00,0.9504
7259.00,0.9583
7258.00,0.9663
7257.00,0.9739
7256.00,0.9807
7255.00,0.9869
7254.00,0.9926
7253.00,0.9980
7252.00,1.0027
7251.00,1.0068
7250.00,1.0105
7249.00,1.0143
7248.00,1.0186
7247.00,1.0230
7246.00,1.0273
7245.00,1.0312
7244.00,1.0346
7243.00,1.0375
7242.00,1.0399
7241.00,1.0419
7240.00,1.0439
7239.00,1.0461
7238.00,1.0483
7237.00,1.0501
7236.00,1.0514
7235.00,1.0519
7234.00,1.0520
7233.00,1.0517
7232.00,1.0507
7231.00,1.0488
7230.00,1.0463
7229.00,1.0441
7228.00,1.0425
7227.00,1.0413
7226.00,1.0397
7225.00,1.0373
7224.00,1.0342
7223.00,1.0308
7222.00,1.0273
7221.00,1.0238
7220.00,1.0201
7219.00,1.0165
7218.00,1.0129
7217.00,1.0089
7216.00,1.0040
7215.00,0.9983
7214.00,0.9920
7213.00,0.9855
7212.00,0.9785
7211.00,0.9710
7210.00,0.9631
7209.00,0.9555
7208.00,0.9486
7207.00,0.9422
7206.00,0.9357
7205.00,0.9288
7204.00,0.9213
7203.00,0.9133
7202.00,0.9049
7201.00,0.8966
7200.00,0.8882
7199.00,0.8795
7198.00,0.8707
7197.00,0.8620
7196.00,0.8534
7195.00,0.8450
7194.00,0.8368
7193.00,0.8288
7192.00,0.8210
7191.00,0.8133
7190.00,0.8055
7189.00,0.7977
7188.00,0.7899
7187.00,0.7819
7186.00,0.7738
7185.00,0.7658
7184.00,0.7581
7183.00,0.7508
7182.00,0.7441
7181.00,0.7379
7180.00,0.7323
7179.00,0.7271
7178.00,0.7223
7177.00,0.7175
7176.00,0.7128
7175.00,0.7082
7174.00,0.7040
7173.00,0.7001
7172.00,0.6966
7171.00,0.6936
7170.00,0.6910
7169.00,0.6891
7168.00,0.6877
7167.00,0.6868
7166.00,0.6864
7165.00,0.6864
7164.00,0.6867
7163.00,0.6875
7162.00,0.6886
7161.00,0.6902
7160.00,0.6921
7159.00,0.6944
7158.00,0.6969
7157.00,0.6999
7156.00,0.7035
7155.00,0.7076
7154.00,0.7121
7153.00,0.7171
7152.00,0.7225
7151.00,0.7282
7150.00,0.7340
7149.00,0.7401
7148.00,0.7465
7147.00,0.7532
7146.00,0.7602
7145.00,0.7676
7144.00,0.7752
7143.00,0.7830
7142.00,0.7909
7141.00,0.7989
7140.00,0.8072
7139.00,0.8158
7138.00,0.8248
7137.00,0.8339
7136.00,0.8431
7135.00,0.8523
7134.00,0.8615
7133.00,0.8706
7132.00,0.8791
7131.00,0.8870
7130.00,0.8945
7129.00,0.9022
7128.00,0.9101
7127.00,0.9184
7126.00,0.9268
7125.00,0.9353
7124.00,0.9437
7123.00,0.9521
7122.00,0.9606
7121.00,0.9690
7120.00,0.9774
7119.00,0.9856
7118.00,0.9934
7117.00,1.0010
7116.00,1.0085
7115.00,1.0158
7114.00,1.0225
7113.00,1.0286
7112.00,1.0346
7111.00,1.0411
7110.00,1.0479
7109.00,1.0549
7108.00,1.0616
7107.00,1.0679
7106.00,1.0734
7105.00,1.0781
7104.00,1.0820
7103.00,1.0855
7102.00,1.0887
7101.00,1.0918
7100.00,1.0950
7099.00,1.0985
7098.00,1.1024
7097.00,1.1065
7096.00,1.1102
7095.00,1.1132
7094.00,1.1158
7093.00,1.1180
7092.00,1.1201
7091.00,1.1218
7090.00,1.1227
7089.00,1.1226
7088.00,1.1219
7087.00,1.1211
7086.00,1.1204
7085.00,1.1193
7084.00,1.1177
7083.00,1.1157
7082.00,1.1138
7081.00,1.1119
7080.00,1.1095
7079.00,1.1062
7078.00,1.1023
7077.00,1.0982
7076.00,1.0942
7075.00,1.0901
7074.00,1.0858
7073.00,1.0816
7072.00,1.0775
7071.00,1.0734
7070.00,1.0688
7069.00,1.0634
7068.00,1.0573
7067.00,1.0509
7066.00,1.0443
7065.00,1.0372
7064.00,1.0296
7063.00,1.0218
7062.00,1.0141
7061.00,1.0065
7060.00,0.9990
7059.00,0.9911
7058.00,0.9827
7057.00,0.9739
7056.00,0.9647
7055.00,0.9555
7054.00,0.9465
7053.00,0.9375
7052.00,0.9284
7051.00,0.9192
7050.00,0.9101
7049.00,0.9012
7048.00,0.8923
7047.00,0.8833
7046.00,0.8743
7045.00,0.8656
7044.00,0.8574
7043.00,0.8492
7042.00,0.8409
7041.00,0.8327
7040.00,0.8245
7039.00,0.8165
7038.00,0.8085
7037.00,0.8008
7036.00,0.7937
7035.00,0.7873
7034.00,0.7815
7033.00,0.7761
7032.00,0.7710
7031.00,0.7661
7030.00,0.7617
7029.00,0.7576
7028.00,0.7537
7027.00,0.7502
7026.00,0.7473
7025.00,0.7450
7024.00,0.7433
7023.00,0.7421
7022.00,0.7413
7021.00,0.7409
7020.00,0.7410
7019.00,0.7416
7018.00,0.7426
7017.00,0.7439
7016.00,0.7457
7015.00,0.7479
7014.00,0.7506
7013.00,0.7540
7012.00,0.7577
7011.00,0.7617
7010.00,0.7662
7009.00,0.7712
7008.00,0.7766
7007.00,0.7823
7006.00,0.7883
7005.00,0.7946
7004.00,0.8011
7003.00,0.8078
7002.00,0.8147
7001.00,0.8221
7000.00,0.8298
6999.00,0.8376
6998.00,0.8457
6997.00,0.8542
6996.00,0.8628
6995.00,0.8713
6994.00,0.8796
6993.00,0.8878
6992.00,0.8961
6991.00,0.9041
6990.00,0.9120
6989.00,0.9199
6988.00,0.9279
6987.00,0.9361
6986.00,0.9443
6985.00,0.9528
6984.00,0.9614
6983.00,0.9699
6982.00,0.9784
6981.00,0.9868
6980.00,0.9951
6979.00,1.0032
6978.00,1.0112
6977.00,1.0190
6976.00,1.0267
6975.00,1.0339
6974.00,1.0409
6973.00,1.0477
6972.00,1.0545
6971.00,1.0609
6970.00,1.0668
6969.00,1.0724
6968.00,1.0781
6967.00,1.0835
6966.00,1.0887
6965.00,1.0937
6964.00,1.0988
6963.00,1.1040
6962.00,1.1091
6961.00,1.1138
6960.00,1.1182
6959.00,1.1223
6958.00,1.1258
6957.00,1.1284
6956.00,1.1302
6955.00,1.1316
6954.00,1.1329
6953.00,1.1342
6952.00,1.1354
6951.00,1.1362
6950.00,1.1369
6949.00,1.1376
6948.00,1.1382
6947.00,1.1386
6946.00,1.1386
6945.00,1.1381
6944.00,1.1371
6943.00,1.1352
6942.00,1.1327
6941.00,1.1296
6940.00,1.1264
6939.00,1.1229
6938.00,1.1191
6937.00,1.1151
6936.00,1.1113
6935.00,1.1077
6934.00,1.1041
6933.00,1.1001
6932.00,1.0955
6931.00,1.0904
6930.00,1.0851
6929.00,1.0796
6928.00,1.0737
6927.00,1.0672
6926.00,1.0601
6925.00,1.0526
6924.00,1.0448
6923.00,1.0370
6922.00,1.0292
6921.00,1.0213
6920.00,1.0133
6919.00,1.0049
6918.00,0.9962
6917.00,0.9875
6916.00,0.9787
6915.00,0.9697
6914.00,0.9605
6913.00,0.9512
6912.00,0.9422
6911.00,0.9333
6910.00,0.9244
6909.00,0.9152
6908.00,0.9058
6907.00,0.8964
6906.00,0.8871
6905.00,0.8780
6904.00,0.8690
6903.00,0.8600
6902.00,0.8512
6901.00,0.8427
6900.00,0.8346
6899.00,0.8266
6898.00,0.8188
6897.00,0.8114
6896.00,0.8043
6895.00,0.7974
6894.00,0.7908
6893.00,0.7844
6892.00,0.7783
6891.00,0.7725
6890.00,0.7669
6889.00,0.7617
6888.00,0.7570
6887.00,0.7529
6886.00,0.7494
6885.00,0.7462
6884.00,0.7434
6883.00,0.7411
6882.00,0.7394
6881.00,0.7380
6880.00,0.7370
6879.00,0.7363
6878.00,0.7363
6877.00,0.7367
6876.00,0.7375
6875.00,0.7386
6874.00,0.7402
6873.00,0.7423
6872.00,0.7449
6871.00,0.7479
6870.00,0.7514
6869.00,0.7554
6868.00,0.7599
6867.00,0.7646
6866.00,0.7698
6865.00,0.7754
6864.00,0.7815
6863.00,0.7879
6862.00,0.7945
6861.00,0.8013
6860.00,0.8085
6859.00,0.8158
6858.00,0.8232
6857.00,0.8308
6856.00,0.8386
6855.00,0.8466
6854.00,0.8547
6853.00,0.8631
6852.00,0.8718
6851.00,0.8806
6850.00,0.8894
6849.00,0.8982
6848.00,0.9071
6847.00,0.9162
6846.00,0.9254
6845.00,0.9343
6844.00,0.9429
6843.00,0.9515
6842.00,0.9604
6841.00,0.9695
6840.00,0.9786
6839.00,0.9874
6838.00,0.9960
6837.00,1.0048
6836.00,1.0135
6835.00,1.0221
6834.00,1.0304
6833.00,1.0388
6832.00,1.0472
6831.00,1.0554
6830.00,1.0633
6829.00,1.0709
6828.00,1.0782
6827.00,1.0851
6826.00,1.0915
6825.00,1.0979
6824.00,1.1045
6823.00,1.1113
6822.00,1.1179
6821.00,1.1241
6820.00,1.1297
6819.00,1.1349
6818.00,1.1397
6817.00,1.1440
6816.00,1.1478
6815.00,1.1515
6814.00,1.1553
6813.00,1.1589
6812.00,1.1620
6811.00,1.1648
6810.00,1.1675
6809.00,1.1701
6808.00,1.1723
6807.00,1.1739
6806.00,1.1754
6805.00,1.1770
6804.00,1.1783
6803.00,1.1791
6802.00,1.1794
6801.00,1.1793
6800.00,1.1789
6799.00,1.1780
6798.00,1.1766
6797.00,1.1748
6796.00,1.1728
6795.00,1.1704
6794.00,1.1676
6793.00,1.1646
6792.00,1.1616
6791.00,1.1584
6790.00,1.1546
6789.00,1.1500
6788.00,1.1450
6787.00,1.1398
6786.00,1.1344
6785.00,1.1285
6784.00,1.1224
6783.00,1.1161
6782.00,1.1098
6781.00,1.1032
6780.00,1.0965
6779.00,1.0896
6778.00,1.0826
6777.00,1.0751
6776.00,1.0672
6775.00,1.0590
6774.00,1.0507
6773.00,1.0423
6772.00,1.0335
6771.00,1.0243
6770.00,1.0150
6769.00,1.0058
6768.00,0.9963
6767.00,0.9866
6766.00,0.9767
6765.00,0.9668
6764.00,0.9570
6763.00,0.9471
6762.00,0.9373
6761.00,0.9277
6760.00,0.9182
6759.00,0.9087
6758.00,0.8993
6757.00,0.8901
6756.00,0.8810
6755.00,0.8720
6754.00,0.8629
6753.00,0.8540
6752.00,0.8455
6751.00,0.8374
6750.00,0.8297
6749.00,0.8225
6748.00,0.8157
6747.00,0.8093
6746.00,0.8032
6745.00,0.7974
6744.00,0.7919
6743.00,0.7868
6742.00,0.7823
6741.00,0.7784
6740.00,0.7752
6739.00,0.7725
6738.00,0.7702
6737.00,0.7684
6736.00,0.7669
6735.00,0.7657
6734.00,0.7651
6733.00,0.7652
6732.00,0.7659
6731.00,0.7673
6730.00,0.7694
6729.00,0.7719
6728.00,0.7750
6727.00,0.7784
6726.00,0.7820
6725.00,0.7860
6724.00,0.7902
6723.00,0.7949
6722.00,0.8000
6721.00,0.8056
6720.00,0.8116
6719.00,0.8178
6718.00,0.8244
6717.00,0.8313
6716.00,0.8386
6715.00,0.8461
6714.00,0.8537
6713.00,0.8618
6712.00,0.8703
6711.00,0.8788
6710.00,0.8873
6709.00,0.8957
6708.00,0.9042
6707.00,0.9128
6706.00,0.9216
6705.00,0.9304
6704.00,0.9392
6703.00,0.9481
6702.00,0.9571
6701.00,0.9663
6700.00,0.9754
6699.00,0.9842
6698.00,0.9929
6697.00,1.0017
6696.00,1.0105
6695.00,1.0191
6694.00,1.0273
6693.00,1.0353
6692.00,1.0433
6691.00,1.0515
6690.00,1.0597
6689.00,1.0676
6688.00,1.0754
6687.00,1.0831
6686.00,1.0907
6685.00,1.0978
6684.00,1.1041
6683.00,1.1099
6682.00,1.1155
6681.00,1.1209
6680.00,1.1263
6679.00,1.1314
6678.00,1.1365
6677.00,1.1414
6676.00,1.1460
6675.00,1.1504
6674.00,1.1547
6673.00,1.1589
6672.00,1.1627
6671.00,1.1659
6670.00,1.1687
6669.00,1.1713
6668.00,1.1734
6667.00,1.1748
6666.00,1.1758
6665.00,1.1766
6664.00,1.1773
6663.00,1.1778
6662.00,1.1779
6661.00,1.1778
6660.00,1.1774
6659.00,1.1765
6658.00,1.1752
6657.00,1.1736
6656.00,1.1720
6655.00,1.1700
6654.00,1.1674
6653.00,1.1643
6652.00,1.1609
6651.00,1.1574
6650.00,1.1537
6649.00,1.1498
6648.00,1.1455
6647.00,1.1408
6646.00,1.1356
6645.00,1.1298
6644.00,1.1236
6643.00,1.1171
6642.00,1.1103
6641.00,1.1033
6640.00,1.0962
6639.00,1.0891
6638.00,1.0820
6637.00,1.0748
6636.00,1.0673
6635.00,1.0594
6634.00,1.0509
6633.00,1.0421
6632.00,1.0329
6631.00,1.0235
6630.00,1.0141
6629.00,1.0047
6628.00,0.9954
6627.00,0.9861
6626.00,0.9767
6625.00,0.9672
6624.00,0.9575
6623.00,0.9478
6622.00,0.9381
6621.00,0.9284
6620.00,0.9187
6619.00,0.9090
6618.00,0.8995
6617.00,0.8902
6616.00,0.8810
6615.00,0.8719
6614.00,0.8629
6613.00,0.8541
6612.00,0.8455
6611.00,0.8370
6610.00,0.8289
6609.00,0.8210
6608.00,0.8134
6607.00,0.8061
6606.00,0.7993
6605.00,0.7929
6604.00,0.7868
6603.00,0.7811
6602.00,0.7758
6601.00,0.7711
6600.00,0.7667
6599.00,0.7626
6598.00,0.7588
6597.00,0.7556
6596.00,0.7528
6595.00,0.7504
6594.00,0.7486
6593.00,0.7474
6592.00,0.7468
6591.00,0.7468
6590.00,0.7474
6589.00,0.7484
6588.00,0.7501
6587.00,0.7522
6586.00,0.7548
6585.00,0.7578
6584.00,0.7612
6583.00,0.7650
6582.00,0.7693
6581.00,0.7741
6580.00,0.7795
6579.00,0.7852
6578.00,0.7911
6577.00,0.7974
6576.00,0.8039
6575.00,0.8108
6574.00,0.8179
6573.00,0.8252
6572.00,0.8330
6571.00,0.8411
6570.00,0.8494
6569.00,0.8580
6568.00,0.8666
6567.00,0.8753
6566.00,0.8840
6565.00,0.8929
6564.00,0.9019
6563.00,0.9110
6562.00,0.9203
6561.00,0.9298
6560.00,0.9394
6559.00,0.9491
6558.00,0.9588
6557.00,0.9684
6556.00,0.9779
6555.00,0.9872
6554.00,0.9964
6553.00,1.0054
6552.00,1.0143
6551.00,1.0232
6550.00,1.0320
6549.00,1.0407
6548.00,1.0494
6547.00,1.0581
6546.00,1.0668
6545.00,1.0753
6544.00,1.0835
6543.00,1.0914
6542.00,1.0990
6541.00,1.1062
6540.00,1.1129
6539.00,1.1194
6538.00,1.1259
6537.00,1.1327
6536.00,1.1394
6535.00,1.1461
6534.00,1.1526
6533.00,1.1585
6532.00,1.1636
6531.00,1.1681
6530.00,1.1723
6529.00,1.1765
6528.00,1.1804
6527.00,1.1840
6526.00,1.1873
6525.00,1.1905
6524.00,1.1936
6523.00,1.1963
6522.00,1.1982
6521.00,1.1994
6520.00,1.1999
6519.00,1.2004
6518.00,1.2011
6517.00,1.2018
6516.00,1.2021
6515.00,1.2020
6514.00,1.2017
6513.00,1.2012
6512.00,1.2002
6511.00,1.1984
6510.00,1.1961
6509.00,1.1935
6508.00,1.1907
6507.00,1.1875
6506.00,1.1838
6505.00,1.1797
6504.00,1.1751
6503.00,1.1703
6502.00,1.1654
6501.00,1.1604
6500.00,1.1552
6499.00,1.1498
6498.00,1.1442
6497.00,1.1384
6496.00,1.1321
6495.00,1.1254
6494.00,1.1184
6493.00,1.1110
6492.00,1.1032
6491.00,1.0949
6490.00,1.0862
6489.00,1.0773
6488.00,1.0681
6487.00,1.0588
6486.00,1.0493
6485.00,1.0398
6484.00,1.0299
6483.00,1.0199
6482.00,1.0097
6481.00,0.9994
6480.00,0.9890
6479.00,0.9784
6478.00,0.9681
6477.00,0.9580
6476.00,0.9479
6475.00,0.9376
6474.00,0.9271
6473.00,0.9166
6472.00,0.9063
6471.00,0.8961
6470.00,0.8860
6469.00,0.8761
6468.00,0.8664
6467.00,0.8568
6466.00,0.8475
6465.00,0.8385
6464.00,0.8300
6463.00,0.8220
6462.00,0.8145
6461.00,0.8076
6460.00,0.8010
6459.00,0.7946
6458.00,0.7885
6457.00,0.7829
6456.00,0.7776
6455.00,0.7729
6454.00,0.7688
6453.00,0.7654
6452.00,0.7626
6451.00,0.7602
6450.00,0.7583
6449.00,0.7571
6448.00,0.7564
6447.00,0.7562
6446.00,0.7566
6445.00,0.7577
6444.00,0.7593
6443.00,0.7614
6442.00,0.7638
6441.00,0.7669
6440.00,0.7705
6439.00,0.7746
6438.00,0.7792
6437.00,0.7844
6436.00,0.7901
6435.00,0.7963
6434.00,0.8026
6433.00,0.8092
6432.00,0.8161
6431.00,0.8234
6430.00,0.8311
6429.00,0.8390
6428.00,0.8471
6427.00,0.8554
6426.00,0.8638
6425.00,0.8725
6424.00,0.8813
6423.00,0.8903
6422.00,0.8995
6421.00,0.9087
6420.00,0.9179
6419.00,0.9272
6418.00,0.9366
6417.00,0.9461
6416.00,0.9555
6415.00,0.9648
6414.00,0.9741
6413.00,0.9834
6412.00,0.9928
6411.00,1.0021
6410.00,1.0114
6409.00,1.0206
6408.00,1.0296
6407.00,1.0385
6406.00,1.0471
6405.00,1.0552
6404.00,1.0630
6403.00,1.0709
6402.00,1.0790
6401.00,1.0872
6400.00,1.0950
6399.00,1.1025
6398.00,1.1097
6397.00,1.1166
6396.00,1.1230
6395.00,1.1292
6394.00,1.1353
6393.00,1.1415
6392.00,1.1474
6391.00,1.1527
6390.00,1.1576
6389.00,1.1622
6388.00,1.1663
6387.00,1.1700
6386.00,1.1732
6385.00,1.1763
6384.00,1.1795
6383.00,1.1825
6382.00,1.1852
6381.00,1.1875
6380.00,1.1889
6379.00,1.1896
6378.00,1.1901
6377.00,1.1906
6376.00,1.1910
6375.00,1.1910
6374.00,1.1906
6373.00,1.1902
6372.00,1.1895
6371.00,1.1883
6370.00,1.1864
6369.00,1.1843
6368.00,1.1819
6367.00,1.1792
6366.00,1.1759
6365.00,1.1722
6364.00,1.1679
6363.00,1.1633
6362.00,1.1584
6361.00,1.1534
6360.00,1.1485
6359.00,1.1433
6358.00,1.1376
6357.00,1.1315
6356.00,1.1252
6355.00,1.1187
6354.00,1.1119
6353.00,1.1047
6352.00,1.0973
6351.00,1.0898
6350.00,1.0820
6349.00,1.0738
6348.00,1.0652
6347.00,1.0562
6346.00,1.0471
6345.00,1.0383
6344.00,1.0296
6343.00,1.0211
6342.00,1.0127
6341.00,1.0043
6340.00,0.9956
6339.00,0.9865
6338.00,0.9770
6337.00,0.9675
6336.00,0.9581
6335.00,0.9487
6334.00,0.9392
6333.00,0.9297
6332.00,0.9201
6331.00,0.9103
6330.00,0.9003
6329.00,0.8902
6328.00,0.8801
6327.00,0.8702
6326.00,0.8603
6325.00,0.8504
6324.00,0.8404
6323.00,0.8305
6322.00,0.8207
6321.00,0.8112
6320.00,0.8021
6319.00,0.7935
6318.00,0.7853
6317.00,0.7776
6316.00,0.7705
6315.00,0.7639
6314.00,0.7579
6313.00,0.7526
6312.00,0.7478
6311.00,0.7435
6310.00,0.7399
6309.00,0.7369
6308.00,0.7344
6307.00,0.7324
6306.00,0.7311
6305.00,0.7306
6304.00,0.7306
6303.00,0.7311
6302.00,0.7322
6301.00,0.7339
6300.00,0.7363
6299.00,0.7392
6298.00,0.7427
6297.00,0.7467
6296.00,0.7512
6295.00,0.7561
6294.00,0.7614
6293.00,0.7671
6292.00,0.7732
6291.00,0.7798
6290.00,0.7868
6289.00,0.7943
6288.00,0.8022
6287.00,0.8103
6286.00,0.8186
6285.00,0.8269
6284.00,0.8354
6283.00,0.8442
6282.00,0.8531
6281.00,0.8622
6280.00,0.8714
6279.00,0.8807
6278.00,0.8900
6277.00,0.8995
6276.00,0.9092
6275.00,0.9190
6274.00,0.9291
6273.00,0.9394
6272.00,0.9496
6271.00,0.9599
6270.00,0.9700
6269.00,0.9800
6268.00,0.9898
6267.00,0.9995
6266.00,1.0091
6265.00,1.0184
6264.00,1.0275
6263.00,1.0365
6262.00,1.0455
6261.00,1.0544
6260.00,1.0631
6259.00,1.0717
6258.00,1.0803
6257.00,1.0890
6256.00,1.0973
6255.00,1.1054
6254.00,1.1133
6253.00,1.1210
6252.00,1.1283
6251.00,1.1349
6250.00,1.1411
6249.00,1.1470
6248.00,1.1527
6247.00,1.1582
6246.00,1.1635
6245.00,1.1684
6244.00,1.1730
6243.00,1.1771
6242.00,1.1812
6241.00,1.1852
6240.00,1.1890
6239.00,1.1923
6238.00,1.1951
6237.00,1.1973
6236.00,1.1989
6235.00,1.2001
6234.00,1.2011
6233.00,1.2023
6232.00,1.2035
6231.00,1.2044
6230.00,1.2051
6229.00,1.2054
6228.00,1.2050
6227.00,1.2038
6226.00,1.2021
6225.00,1.2003
6224.00,1.1985
6223.00,1.1964
6222.00,1.1938
6221.00,1.1905
6220.00,1.1868
6219.00,1.1826
6218.00,1.1780
6217.00,1.1731
6216.00,1.1679
6215.00,1.1624
6214.00,1.1567
6213.00,1.1510
6212.00,1.1449
6211.00,1.1383
6210.00,1.1316
6209.00,1.1249
6208.00,1.1178
6207.00,1.1101
6206.00,1.1018
6205.00,1.0932
6204.00,1.0843
6203.00,1.0749
6202.00,1.0652
6201.00,1.0553
6200.00,1.0454
6199.00,1.0353
6198.00,1.0250
6197.00,1.0146
6196.00,1.0041
6195.00,0.9934
6194.00,0.9825
6193.00,0.9714
6192.00,0.9603
6191.00,0.9489
6190.00,0.9374
6189.00,0.9258
6188.00,0.9144
6187.00,0.9033
6186.00,0.8925
6185.00,0.8818
6184.00,0.8711
6183.00,0.8605
6182.00,0.8501
6181.00,0.8398
6180.00,0.8296
6179.00,0.8197
6178.00,0.8102
6177.00,0.8012
6176.00,0.7926
6175.00,0.7843
6174.00,0.7765
6173.00,0.7692
6172.00,0.7625
6171.00,0.7563
6170.00,0.7506
6169.00,0.7454
6168.00,0.7407
6167.00,0.7364
6166.00,0.7327
6165.00,0.7299
6164.00,0.7278
6163.00,0.7262
6162.00,0.7253
6161.00,0.7250
6160.00,0.7254
6159.00,0.7262
6158.00,0.7275
6157.00,0.7294
6156.00,0.7320
6155.00,0.7354
6154.00,0.7393
6153.00,0.7438
6152.00,0.7488
6151.00,0.7543
6150.00,0.7602
6149.00,0.7666
6148.00,0.7731
6147.00,0.7800
6146.00,0.7872
6145.00,0.7948
6144.00,0.8029
6143.00,0.8113
6142.00,0.8200
6141.00,0.8290
6140.00,0.8382
6139.00,0.8474
6138.00,0.8566
6137.00,0.8660
6136.00,0.8756
6135.00,0.8856
6134.00,0.8958
6133.00,0.9060
6132.00,0.9163
6131.00,0.9265
6130.00,0.9367
6129.00,0.9468
6128.00,0.9567
6127.00,0.9666
6126.00,0.9765
6125.00,0.9864
6124.00,0.9961
6123.00,1.0057
6122.00,1.0154
6121.00,1.0250
6120.00,1.0345
6119.00,1.0438
6118.00,1.0527
6117.00,1.0615
6116.00,1.0701
6115.00,1.0786
6114.00,1.0868
6113.00,1.0946
6112.00,1.1021
6111.00,1.1092
6110.00,1.1158
6109.00,1.1222
6108.00,1.1283
6107.00,1.1340
6106.00,1.1395
6105.00,1.1447
6104.00,1.1496
6103.00,1.1543
6102.00,1.1588
6101.00,1.1632
6100.00,1.1676
6099.00,1.1718
6098.00,1.1757
6097.00,1.1793
6096.00,1.1821
6095.00,1.1842
6094.00,1.1859
6093.00,1.1873
6092.00,1.1885
6091.00,1.1894
6090.00,1.1898
6089.00,1.1899
6088.00,1.1894
6087.00,1.1884
6086.00,1.1869
6085.00,1.1851
6084.00,1.1832
6083.00,1.1811
6082.00,1.1789
6081.00,1.1764
6080.00,1.1736
6079.00,1.1706
6078.00,1.1674
6077.00,1.1641
6076.00,1.1606
6075.00,1.1565
6074.00,1.1518
6073.00,1.1465
6072.00,1.1407
6071.00,1.1343
6070.00,1.1278
6069.00,1.1213
6068.00,1.1146
6067.00,1.1075
6066.00,1.1002
6065.00,1.0926
6064.00,1.0847
6063.00,1.0763
6062.00,1.0675
6061.00,1.0587
6060.00,1.0498
6059.00,1.0407
6058.00,1.0313
6057.00,1.0215
6056.00,1.0115
6055.00,1.0013
6054.00,0.9908
6053.00,0.9803
6052.00,0.9697
6051.00,0.9591
6050.00,0.9484
6049.00,0.9377
6048.00,0.9270
6047.00,0.9162
6046.00,0.9051
6045.00,0.8940
6044.00,0.8828
6043.00,0.8717
6042.00,0.8607
6041.00,0.8499
6040.00,0.8393
6039.00,0.8290
6038.00,0.8189
6037.00,0.8091
6036.00,0.7994
6035.00,0.7901
6034.00,0.7810
6033.00,0.7724
6032.00,0.7640
6031.00,0.7561
6030.00,0.7486
6029.00,0.7416
6028.00,0.7352
6027.00,0.7294
6026.00,0.7243
6025.00,0.7198
6024.00,0.7158
6023.00,0.7123
6022.00,0.7094
6021.00,0.7072
6020.00,0.7057
6019.00,0.7049
6018.00,0.7048
6017.00,0.7054
6016.00,0.7065
6015.00,0.7083
6014.00,0.7106
6013.00,0.7137
6012.00,0.7173
6011.00,0.7216
6010.00,0.7264
6009.00,0.7318
6008.00,0.7375
6007.00,0.7436
6006.00,0.7502
6005.00,0.7573
6004.00,0.7649
6003.00,0.7729
6002.00,0.7813
6001.00,0.7899
6000.00,0.7989
5999.00,0.8081
5998.00,0.8175
5997.00,0.8269
5996.00,0.8365
5995.00,0.8461
5994.00,0.8560
5993.00,0.8660
5992.00,0.8761
5991.00,0.8863
5990.00,0.8967
5989.00,0.9073
5988.00,0.9179
5987.00,0.9285
5986.00,0.9391
5985.00,0.9497
5984.00,0.9603
5983.00,0.9708
5982.00,0.9812
5981.00,0.9915
5980.00,1.0016
5979.00,1.0115
5978.00,1.0214
5977.00,1.0313
5976.00,1.0409
5975.00,1.0503
5974.00,1.0595
5973.00,1.0686
5972.00,1.0776
5971.00,1.0864
5970.00,1.0950
5969.00,1.1036
5968.00,1.1120
5967.00,1.1200
5966.00,1.1275
5965.00,1.1346
5964.00,1.1414
5963.00,1.1479
5962.00,1.1543
5961.00,1.1607
5960.00,1.1671
5959.00,1.1729
5958.00,1.1782
5957.00,1.1830
5956.00,1.1874
5955.00,1.1913
5954.00,1.1949
5953.00,1.1983
5952.00,1.2013
5951.00,1.2039
5950.00,1.2059
5949.00,1.2072
5948.00,1.2082
5947.00,1.2089
5946.00,1.2095
5945.00,1.2097
5944.00,1.2096
5943.00,1.2093
5942.00,1.2088
5941.00,1.2078
5940.00,1.2064
5939.00,1.2045
5938.00,1.2023
5937.00,1.1999
5936.00,1.1974
5935.00,1.1945
5934.00,1.1911
5933.00,1.1872
5932.00,1.1827
5931.00,1.1777
5930.00,1.1723
5929.00,1.1666
5928.00,1.1607
5927.00,1.1549
5926.00,1.1489
5925.00,1.1427
5924.00,1.1359
5923.00,1.1284
5922.00,1.1201
5921.00,1.1113
5920.00,1.1022
5919.00,1.0930
5918.00,1.0838
5917.00,1.0746
5916.00,1.0651
5915.00,1.0550
5914.00,1.0445
5913.00,1.0338
5912.00,1.0228
5911.00,1.0116
5910.00,1.0005
5909.00,0.9893
5908.00,0.9780
5907.00,0.9663
5906.00,0.9544
5905.00,0.9423
5904.00,0.9301
5903.00,0.9181
5902.00,0.9060
5901.00,0.8940
5900.00,0.8820
5899.00,0.8701
5898.00,0.8585
5897.00,0.8470
5896.00,0.8357
5895.00,0.8245
5894.00,0.8136
5893.00,0.8030
5892.00,0.7927
5891.00,0.7826
5890.00,0.7730
5889.00,0.7639
5888.00,0.7554
5887.00,0.7474
5886.00,0.7400
5885.00,0.7333
5884.00,0.7270
5883.00,0.7213
5882.00,0.7162
5881.00,0.7117
5880.00,0.7078
5879.00,0.7045
5878.00,0.7019
5877.00,0.7001
5876.00,0.6990
5875.00,0.6987
5874.00,0.6990
5873.00,0.7000
5872.00,0.7016
5871.00,0.7039
5870.00,0.7068
5869.00,0.7103
5868.00,0.7144
5867.00,0.7191
5866.00,0.7244
5865.00,0.7303
5864.00,0.7368
5863.00,0.7437
5862.00,0.7511
5861.00,0.7591
5860.00,0.7674
5859.00,0.7760
5858.00,0.7851
5857.00,0.7946
5856.00,0.8043
5855.00,0.8142
5854.00,0.8243
5853.00,0.8344
5852.00,0.8448
5851.00,0.8554
5850.00,0.8662
5849.00,0.8773
5848.00,0.8886
5847.00,0.8999
5846.00,0.9111
5845.00,0.9223
5844.00,0.9334
5843.00,0.9444
5842.00,0.9553
5841.00,0.9662
5840.00,0.9769
5839.00,0.9875
5838.00,0.9981
5837.00,1.0087
5836.00,1.0191
5835.00,1.0293
5834.00,1.0393
5833.00,1.0491
5832.00,1.0587
5831.00,1.0678
5830.00,1.0767
5829.00,1.0854
5828.00,1.0939
5827.00,1.1023
5826.00,1.1106
5825.00,1.1187
5824.00,1.1267
5823.00,1.1343
5822.00,1.1414
5821.00,1.1482
5820.00,1.1546
5819.00,1.1605
5818.00,1.1662
5817.00,1.1716
5816.00,1.1768
5815.00,1.1817
5814.00,1.1862
5813.00,1.1904
5812.00,1.1944
5811.00,1.1981
5810.00,1.2012
5809.00,1.2038
5808.00,1.2060
5807.00,1.2079
5806.00,1.2096
5805.00,1.2112
5804.00,1.2126
5803.00,1.2137
5802.00,1.2144
5801.00,1.2147
5800.00,1.2146
5799.00,1.2140
5798.00,1.2128
5797.00,1.2113
5796.00,1.2097
5795.00,1.2077
5794.00,1.2055
5793.00,1.2028
5792.00,1.1999
5791.00,1.1964
5790.00,1.1924
5789.00,1.1880
5788.00,1.1834
5787.00,1.1784
5786.00,1.1731
5785.00,1.1675
5784.00,1.1614
5783.00,1.1549
5782.00,1.1476
5781.00,1.1400
5780.00,1.1320
5779.00,1.1239
5778.00,1.1155
5777.00,1.1070
5776.00,1.0986
5775.00,1.0900
5774.00,1.0811
5773.00,1.0717
5772.00,1.0618
5771.00,1.0514
5770.00,1.0406
5769.00,1.0295
5768.00,1.0184
5767.00,1.0071
5766.00,0.9955
5765.00,0.9837
5764.00,0.9715
5763.00,0.9591
5762.00,0.9465
5761.00,0.9340
5760.00,0.9216
5759.00,0.9093
5758.00,0.8971
5757.00,0.8849
5756.00,0.8726
5755.00,0.8605
5754.00,0.8484
5753.00,0.8366
5752.00,0.8249
5751.00,0.8135
5750.00,0.8023
5749.00,0.7913
5748.00,0.7807
5747.00,0.7704
5746.00,0.7607
5745.00,0.7514
5744.00,0.7427
5743.00,0.7346
5742.00,0.7271
5741.00,0.7201
5740.00,0.7137
5739.00,0.7079
5738.00,0.7027
5737.00,0.6981
5736.00,0.6942
5735.00,0.6911
5734.00,0.6886
5733.00,0.6870
5732.00,0.6861
5731.00,0.6858
5730.00,0.6863
5729.00,0.6875
5728.00,0.6894
5727.00,0.6920
5726.00,0.6952
5725.00,0.6992
5724.00,0.7037
5723.00,0.7087
5722.00,0.7143
5721.00,0.7205
5720.00,0.7273
5719.00,0.7346
5718.00,0.7424
5717.00,0.7508
5716.00,0.7596
5715.00,0.7686
5714.00,0.7777
5713.00,0.7870
5712.00,0.7964
5711.00,0.8061
5710.00,0.8162
5709.00,0.8267
5708.00,0.8375
5707.00,0.8484
5706.00,0.8593
5705.00,0.8701
5704.00,0.8809
5703.00,0.8917
5702.00,0.9028
5701.00,0.9143
5700.00,0.9258
5699.00,0.9373
5698.00,0.9487
5697.00,0.9599
5696.00,0.9709
5695.00,0.9818
5694.00,0.9926
5693.00,1.0033
5692.00,1.0138
5691.00,1.0243
5690.00,1.0346
5689.00,1.0450
5688.00,1.0554
5687.00,1.0655
5686.00,1.0753
5685.00,1.0847
5684.00,1.0938
5683.00,1.1026
5682.00,1.1112
5681.00,1.1198
5680.00,1.1282
5679.00,1.1364
5678.00,1.1441
5677.00,1.1513
5676.00,1.1582
5675.00,1.1647
5674.00,1.1708
5673.00,1.1767
5672.00,1.1824
5671.00,1.1880
5670.00,1.1932
5669.00,1.1979
5668.00,1.2020
5667.00,1.2057
5666.00,1.2091
5665.00,1.2122
5664.00,1.2149
5663.00,1.2171
5662.00,1.2191
5661.00,1.2208
5660.00,1.2222
5659.00,1.2234
5658.00,1.2242
5657.00,1.2247
5656.00,1.2247
5655.00,1.2241
5654.00,1.2230
5653.00,1.2215
5652.00,1.2199
5651.00,1.2181
5650.00,1.2160
5649.00,1.2133
5648.00,1.2100
5647.00,1.2063
5646.00,1.2025
5645.00,1.1983
5644.00,1.1937
5643.00,1.1886
5642.00,1.1831
5641.00,1.1772
5640.00,1.1708
5639.00,1.1641
5638.00,1.1570
5637.00,1.1497
5636.00,1.1420
5635.00,1.1339
5634.00,1.1254
5633.00,1.1165
5632.00,1.1073
5631.00,1.0978
5630.00,1.0880
5629.00,1.0779
5628.00,1.0675
5627.00,1.0569
5626.00,1.0459
5625.00,1.0346
5624.00,1.0229
5623.00,1.0109
5622.00,0.9986
5621.00,0.9861
5620.00,0.9735
5619.00,0.9609
5618.00,0.9482
5617.00,0.9354
5616.00,0.9224
5615.00,0.9093
5614.00,0.8962
5613.00,0.8832
5612.00,0.8701
5611.00,0.8572
5610.00,0.8444
5609.00,0.8319
5608.00,0.8196
5607.00,0.8076
5606.00,0.7959
5605.00,0.7847
5604.00,0.7740
5603.00,0.7636
5602.00,0.7538
5601.00,0.7444
5600.00,0.7356
5599.00,0.7273
5598.00,0.7196
5597.00,0.7125
5596.00,0.7061
5595.00,0.7004
5594.00,0.6955
5593.00,0.6913
5592.00,0.6878
5591.00,0.6851
5590.00,0.6832
5589.00,0.6821
5588.00,0.6818
5587.00,0.6822
5586.00,0.6834
5585.00,0.6854
5584.00,0.6881
5583.00,0.6916
5582.00,0.6959
5581.00,0.7009
5580.00,0.7066
5579.00,0.7129
5578.00,0.7197
5577.00,0.7271
5576.00,0.7349
5575.00,0.7433
5574.00,0.7521
5573.00,0.7614
5572.00,0.7712
5571.00,0.7812
5570.00,0.7915
5569.00,0.8020
5568.00,0.8128
5567.00,0.8239
5566.00,0.8353
5565.00,0.8470
5564.00,0.8588
5563.00,0.8707
5562.00,0.8826
5561.00,0.8945
5560.00,0.9066
5559.00,0.9187
5558.00,0.9310
5557.00,0.9433
5556.00,0.9556
5555.00,0.9679
5554.00,0.9801
5553.00,0.9921
5552.00,1.0039
5551.00,1.0156
5550.00,1.0272
5549.00,1.0385
5548.00,1.0495
5547.00,1.0603
5546.00,1.0711
5545.00,1.0817
5544.00,1.0921
5543.00,1.1023
5542.00,1.1122
5541.00,1.1216
5540.00,1.1306
5539.00,1.1392
5538.00,1.1477
5537.00,1.1561
5536.00,1.1643
5535.00,1.1722
5534.00,1.1799
5533.00,1.1872
5532.00,1.1939
5531.00,1.1999
5530.00,1.2055
5529.00,1.2106
5528.00,1.2156
5527.00,1.2203
5526.00,1.2248
5525.00,1.2292
5524.00,1.2331
5523.00,1.2366
5522.00,1.2396
5521.00,1.2423
5520.00,1.2447
5519.00,1.2467
5518.00,1.2482
5517.00,1.2492
5516.00,1.2496
5515.00,1.2497
5514.00,1.2497
5513.00,1.2496
5512.00,1.2491
5511.00,1.2481
5510.00,1.2466
5509.00,1.2446
5508.00,1.2421
5507.00,1.2391
5506.00,1.2358
5505.00,1.2322
5504.00,1.2281
5503.00,1.2237
5502.00,1.2188
5501.00,1.2138
5500.00,1.2086
5499.00,1.2031
5498.00,1.1973
5497.00,1.1910
5496.00,1.1841
5495.00,1.1764
5494.00,1.1681
5493.00,1.1595
5492.00,1.1507
5491.00,1.1418
5490.00,1.1327
5489.00,1.1234
5488.00,1.1136
5487.00,1.1033
5486.00,1.0925
5485.00,1.0814
5484.00,1.0700
5483.00,1.0582
5482.00,1.0461
5481.00,1.0337
5480.00,1.0210
5479.00,1.0083
5478.00,0.9953
5477.00,0.9821
5476.00,0.9686
5475.00,0.9548
5474.00,0.9408
5473.00,0.9269
5472.00,0.9130
5471.00,0.8992
5470.00,0.8854
5469.00,0.8717
5468.00,0.8581
5467.00,0.8445
5466.00,0.8312
5465.00,0.8181
5464.00,0.8052
5463.00,0.7927
5462.00,0.7806
5461.00,0.7690
5460.00,0.7578
5459.00,0.7472
5458.00,0.7371
5457.00,0.7275
5456.00,0.7187
5455.00,0.7105
5454.00,0.7031
5453.00,0.6965
5452.00,0.6906
5451.00,0.6855
5450.00,0.6812
5449.00,0.6776
5448.00,0.6749
5447.00,0.6731
5446.00,0.6721
5445.00,0.6720
5444.00,0.6726
5443.00,0.6739
5442.00,0.6761
5441.00,0.6792
5440.00,0.6831
5439.00,0.6877
5438.00,0.6929
5437.00,0.6988
5436.00,0.7054
5435.00,0.7127
5434.00,0.7207
5433.00,0.7292
5432.00,0.7381
5431.00,0.7474
5430.00,0.7571
5429.00,0.7674
5428.00,0.7784
5427.00,0.7898
5426.00,0.8015
5425.00,0.8134
5424.00,0.8253
5423.00,0.8374
5422.00,0.8496
5421.00,0.8619
5420.00,0.8743
5419.00,0.8867
5418.00,0.8990
5417.00,0.9114
5416.00,0.9237
5415.00,0.9361
5414.00,0.9487
5413.00,0.9616
5412.00,0.9745
5411.00,0.9874
5410.00,1.0004
5409.00,1.0133
5408.00,1.0262
5407.00,1.0387
5406.00,1.0509
5405.00,1.0628
5404.00,1.0745
5403.00,1.0861
5402.00,1.0976
5401.00,1.1088
5400.00,1.1196
5399.00,1.1300
5398.00,1.1398
5397.00,1.1493
5396.00,1.1585
5395.00,1.1674
5394.00,1.1760
5393.00,1.1844
5392.00,1.1924
5391.00,1.2000
5390.00,1.2073
5389.00,1.2143
5388.00,1.2213
5387.00,1.2280
5386.00,1.2343
5385.00,1.2401
5384.00,1.2455
5383.00,1.2504
5382.00,1.2546
5381.00,1.2582
5380.00,1.2615
5379.00,1.2645
5378.00,1.2674
5377.00,1.2700
5376.00,1.2723
5375.00,1.2745
5374.00,1.2765
5373.00,1.2780
5372.00,1.2789
5371.00,1.2792
5370.00,1.2789
5369.00,1.2779
5368.00,1.2762
5367.00,1.2743
5366.00,1.2724
5365.00,1.2706
5364.00,1.2687
5363.00,1.2666
5362.00,1.2642
5361.00,1.2612
5360.00,1.2573
5359.00,1.2527
5358.00,1.2477
5357.00,1.2424
5356.00,1.2367
5355.00,1.2304
5354.00,1.2237
5353.00,1.2165
5352.00,1.2091
5351.00,1.2015
5350.00,1.1937
5349.00,1.1855
5348.00,1.1770
5347.00,1.1679
5346.00,1.1583
5345.00,1.1481
5344.00,1.1375
5343.00,1.1265
5342.00,1.1152
5341.00,1.1037
5340.00,1.0918
5339.00,1.0794
5338.00,1.0667
5337.00,1.0537
5336.00,1.0405
5335.00,1.0272
5334.00,1.0139
5333.00,1.0004
5332.00,0.9866
5331.00,0.9726
5330.00,0.9584
5329.00,0.9442
5328.00,0.9299
5327.00,0.9154
5326.00,0.9009
5325.00,0.8865
5324.00,0.8723
5323.00,0.8584
5322.00,0.8448
5321.00,0.8317
5320.00,0.8189
5319.00,0.8066
5318.00,0.7946
5317.00,0.7830
5316.00,0.7718
5315.00,0.7611
5314.00,0.7511
5313.00,0.7418
5312.00,0.7332
5311.00,0.7252
5310.00,0.7180
5309.00,0.7115
5308.00,0.7059
5307.00,0.7010
5306.00,0.6970
5305.00,0.6939
5304.00,0.6918
5303.00,0.6905
5302.00,0.6903
5301.00,0.6911
5300.00,0.6929
5299.00,0.6955
5298.00,0.6989
5297.00,0.7031
5296.00,0.7079
5295.00,0.7134
5294.00,0.7196
5293.00,0.7266
5292.00,0.7342
5291.00,0.7425
5290.00,0.7515
5289.00,0.7610
5288.00,0.7710
5287.00,0.7813
5286.00,0.7921
5285.00,0.8034
5284.00,0.8152
5283.00,0.8273
5282.00,0.8397
5281.00,0.8523
5280.00,0.8651
5279.00,0.8780
5278.00,0.8910
5277.00,0.9042
5276.00,0.9175
5275.00,0.9306
5274.00,0.9438
5273.00,0.9571
5272.00,0.9705
5271.00,0.9839
5270.00,0.9974
5269.00,1.0108
5268.00,1.0239
5267.00,1.0365
5266.00,1.0488
5265.00,1.0609
5264.00,1.0730
5263.00,1.0852
5262.00,1.0974
5261.00,1.1094
5260.00,1.1212
5259.00,1.1325
5258.00,1.1434
5257.00,1.1539
5256.00,1.1643
5255.00,1.1743
5254.00,1.1841
5253.00,1.1935
5252.00,1.2025
5251.00,1.2113
5250.00,1.2197
5249.00,1.2279
5248.00,1.2358
5247.00,1.2433
5246.00,1.2504
5245.00,1.2570
5244.00,1.2631
5243.00,1.2690
5242.00,1.2745
5241.00,1.2796
5240.00,1.2845
5239.00,1.2890
5238.00,1.2930
5237.00,1.2965
5236.00,1.2995
5235.00,1.3020
5234.00,1.3042
5233.00,1.3061
5232.00,1.3079
5231.00,1.3093
5230.00,1.3103
5229.00,1.3107
5228.00,1.3105
5227.00,1.3097
5226.00,1.3085
5225.00,1.3071
5224.00,1.3054
5223.00,1.3036
5222.00,1.3016
5221.00,1.2993
5220.00,1.2965
5219.00,1.2931
5218.00,1.2891
5217.00,1.2848
5216.00,1.2801
5215.00,1.2750
5214.00,1.2696
5213.00,1.2637
5212.00,1.2573
5211.00,1.2505
5210.00,1.2433
5209.00,1.2356
5208.00,1.2275
5207.00,1.2191
5206.00,1.2103
5205.00,1.2012
5204.00,1.1918
5203.00,1.1819
5202.00,1.1717
5201.00,1.1612
5200.00,1.1505
5199.00,1.1397
5198.00,1.1286
5197.00,1.1172
5196.00,1.1052
5195.00,1.0929
5194.00,1.0801
5193.00,1.0669
5192.00,1.0533
5191.00,1.0391
5190.00,1.0246
5189.00,1.0098
5188.00,0.9947
5187.00,0.9793
5186.00,0.9638
5185.00,0.9482
5184.00,0.9326
5183.00,0.9170
5182.00,0.9015
5181.00,0.8861
5180.00,0.8709
5179.00,0.8559
5178.00,0.8412
5177.00,0.8269
5176.00,0.8132
5175.00,0.7998
5174.00,0.7870
5173.00,0.7748
5172.00,0.7632
5171.00,0.7524
5170.00,0.7422
5169.00,0.7327
5168.00,0.7241
5167.00,0.7163
5166.00,0.7093
5165.00,0.7032
5164.00,0.6980
5163.00,0.6938
5162.00,0.6904
5161.00,0.6880
5160.00,0.6866
5159.00,0.6862
5158.00,0.6866
5157.00,0.6881
5156.00,0.6904
5155.00,0.6936
5154.00,0.6976
5153.00,0.7025
5152.00,0.7083
5151.00,0.7147
5150.00,0.7220
5149.00,0.7300
5148.00,0.7387
5147.00,0.7480
5146.00,0.7578
5145.00,0.7681
5144.00,0.7788
5143.00,0.7901
5142.00,0.8018
5141.00,0.8141
5140.00,0.8268
5139.00,0.8398
5138.00,0.8530
5137.00,0.8664
5136.00,0.8800
5135.00,0.8937
5134.00,0.9076
5133.00,0.9217
5132.00,0.9358
5131.00,0.9500
5130.00,0.9642
5129.00,0.9784
5128.00,0.9925
5127.00,1.0065
5126.00,1.0204
5125.00,1.0342
5124.00,1.0478
5123.00,1.0613
5122.00,1.0747
5121.00,1.0879
5120.00,1.1009
5119.00,1.1139
5118.00,1.1267
5117.00,1.1393
5116.00,1.1515
5115.00,1.1633
5114.00,1.1748
5113.00,1.1860
5112.00,1.1968
5111.00,1.2072
5110.00,1.2173
5109.00,1.2270
5108.00,1.2364
5107.00,1.2453
5106.00,1.2538
5105.00,1.2618
5104.00,1.2695
5103.00,1.2769
5102.00,1.2841
5101.00,1.2910
5100.00,1.2974
5099.00,1.3034
5098.00,1.3088
5097.00,1.3138
5096.00,1.3184
5095.00,1.3227
5094.00,1.3268
5093.00,1.3305
5092.00,1.3338
5091.00,1.3366
5090.00,1.3389
5089.00,1.3408
5088.00,1.3421
5087.00,1.3428
5086.00,1.3431
5085.00,1.3432
5084.00,1.3429
5083.00,1.3424
5082.00,1.3415
5081.00,1.3404
5080.00,1.3389
5079.00,1.3370
5078.00,1.3348
5077.00,1.3321
5076.00,1.3289
5075.00,1.3252
5074.00,1.3209
5073.00,1.3162
5072.00,1.3111
5071.00,1.3056
5070.00,1.2999
5069.00,1.2940
5068.00,1.2879
5067.00,1.2812
5066.00,1.2739
5065.00,1.2660
5064.00,1.2576
5063.00,1.2489
5062.00,1.2398
5061.00,1.2304
5060.00,1.2206
5059.00,1.2104
5058.00,1.1997
5057.00,1.1885
5056.00,1.1769
5055.00,1.1648
5054.00,1.1522
5053.00,1.1390
5052.00,1.1256
5051.00,1.1118
5050.00,1.0978
5049.00,1.0836
5048.00,1.0691
5047.00,1.0542
5046.00,1.0390
5045.00,1.0236
5044.00,1.0079
5043.00,0.9921
5042.00,0.9762
5041.00,0.9603
5040.00,0.9444
5039.00,0.9285
5038.00,0.9127
5037.00,0.8970
5036.00,0.8815
5035.00,0.8662
5034.00,0.8512
5033.00,0.8365
5032.00,0.8223
5031.00,0.8086
5030.00,0.7956
5029.00,0.7833
5028.00,0.7715
5027.00,0.7605
5026.00,0.7501
5025.00,0.7406
5024.00,0.7320
5023.00,0.7243
5022.00,0.7176
5021.00,0.7118
5020.00,0.7071
5019.00,0.7033
5018.00,0.7005
5017.00,0.6987
5016.00,0.6980
5015.00,0.6983
5014.00,0.6998
5013.00,0.7023
5012.00,0.7058
5011.00,0.7102
5010.00,0.7156
5009.00,0.7218
5008.00,0.7290
5007.00,0.7369
5006.00,0.7455
5005.00,0.7549
5004.00,0.7649
5003.00,0.7756
5002.00,0.7869
5001.00,0.7987
5000.00,0.8109
4999.00,0.8234
4998.00,0.8364
4997.00,0.8496
4996.00,0.8632
4995.00,0.8771
4994.00,0.8911
4993.00,0.9054
4992.00,0.9198
4991.00,0.9343
4990.00,0.9489
4989.00,0.9636
4988.00,0.9783
4987.00,0.9929
4986.00,1.0075
4985.00,1.0221
4984.00,1.0366
4983.00,1.0511
4982.00,1.0654
4981.00,1.0796
4980.00,1.0936
4979.00,1.1073
4978.00,1.1207
4977.00,1.1337
4976.00,1.1467
4975.00,1.1596
4974.00,1.1725
4973.00,1.1854
4972.00,1.1978
4971.00,1.2097
4970.00,1.2211
4969.00,1.2319
4968.00,1.2424
4967.00,1.2524
4966.00,1.2622
4965.00,1.2717
4964.00,1.2808
4963.00,1.2896
4962.00,1.2979
4961.00,1.3058
4960.00,1.3133
4959.00,1.3204
4958.00,1.3270
4957.00,1.3332
4956.00,1.3390
4955.00,1.3444
4954.00,1.3494
4953.00,1.3541
4952.00,1.3584
4951.00,1.3621
4950.00,1.3653
4949.00,1.3681
4948.00,1.3708
4947.00,1.3733
4946.00,1.3753
4945.00,1.3767
4944.00,1.3774
4943.00,1.3776
4942.00,1.3775
4941.00,1.3771
4940.00,1.3762
4939.00,1.3748
4938.00,1.3729
4937.00,1.3705
4936.00,1.3679
4935.00,1.3651
4934.00,1.3621
4933.00,1.3586
4932.00,1.3548
4931.00,1.3505
4930.00,1.3459
4929.00,1.3408
4928.00,1.3352
4927.00,1.3289
4926.00,1.3221
4925.00,1.3148
4924.00,1.3073
4923.00,1.2995
4922.00,1.2913
4921.00,1.2828
4920.00,1.2737
4919.00,1.2641
4918.00,1.2541
4917.00,1.2439
4916.00,1.2334
4915.00,1.2223
4914.00,1.2106
4913.00,1.1984
4912.00,1.1855
4911.00,1.1722
4910.00,1.1585
4909.00,1.1444
4908.00,1.1299
4907.00,1.1150
4906.00,1.0998
4905.00,1.0845
4904.00,1.0689
4903.00,1.0532
4902.00,1.0371
4901.00,1.0207
4900.00,1.0040
4899.00,0.9872
4898.00,0.9703
4897.00,0.9535
4896.00,0.9367
4895.00,0.9201
4894.00,0.9036
4893.00,0.8873
4892.00,0.8713
4891.00,0.8556
4890.00,0.8404
4889.00,0.8256
4888.00,0.8114
4887.00,0.7977
4886.00,0.7847
4885.00,0.7724
4884.00,0.7610
4883.00,0.7503
4882.00,0.7404
4881.00,0.7315
4880.00,0.7234
4879.00,0.7163
4878.00,0.7103
4877.00,0.7055
4876.00,0.7017
4875.00,0.6990
4874.00,0.6973
4873.00,0.6968
4872.00,0.6973
4871.00,0.6990
4870.00,0.7018
4869.00,0.7058
4868.00,0.7107
4867.00,0.7165
4866.00,0.7233
4865.00,0.7309
4864.00,0.7394
4863.00,0.7487
4862.00,0.7588
4861.00,0.7696
4860.00,0.7811
4859.00,0.7931
4858.00,0.8057
4857.00,0.8187
4856.00,0.8322
4855.00,0.8461
4854.00,0.8603
4853.00,0.8749
4852.00,0.8897
4851.00,0.9047
4850.00,0.9200
4849.00,0.9355
4848.00,0.9512
4847.00,0.9669
4846.00,0.9826
4845.00,0.9982
4844.00,1.0138
4843.00,1.0293
4842.00,1.0449
4841.00,1.0604
4840.00,1.0759
4839.00,1.0911
4838.00,1.1061
4837.00,1.1208
4836.00,1.1352
4835.00,1.1495
4834.00,1.1635
4833.00,1.1774
4832.00,1.1911
4831.00,1.2044
4830.00,1.2175
4829.00,1.2302
4828.00,1.2426
4827.00,1.2546
4826.00,1.2661
4825.00,1.2771
4824.00,1.2875
4823.00,1.2974
4822.00,1.3070
4821.00,1.3164
4820.00,1.3255
4819.00,1.3342
4818.00,1.3426
4817.00,1.3505
4816.00,1.3579
4815.00,1.3649
4814.00,1.3714
4813.00,1.3776
4812.00,1.3832
4811.00,1.3882
4810.00,1.3927
4809.00,1.3967
4808.00,1.4003
4807.00,1.4036
4806.00,1.4066
4805.00,1.4093
4804.00,1.4117
4803.00,1.4137
4802.00,1.4152
4801.00,1.4163
4800.00,1.4169
4799.00,1.4170
4798.00,1.4167
4797.00,1.4159
4796.00,1.4148
4795.00,1.4136
4794.00,1.4121
4793.00,1.4103
4792.00,1.4080
4791.00,1.4050
4790.00,1.4015
4789.00,1.3976
4788.00,1.3932
4787.00,1.3885
4786.00,1.3834
4785.00,1.3779
4784.00,1.3720
4783.00,1.3658
4782.00,1.3593
4781.00,1.3522
4780.00,1.3444
4779.00,1.3359
4778.00,1.3268
4777.00,1.3175
4776.00,1.3079
4775.00,1.2981
4774.00,1.2879
4773.00,1.2771
4772.00,1.2657
4771.00,1.2537
4770.00,1.2412
4769.00,1.2284
4768.00,1.2152
4767.00,1.2014
4766.00,1.1872
4765.00,1.1725
4764.00,1.1572
4763.00,1.1415
4762.00,1.1255
4761.00,1.1091
4760.00,1.0924
4759.00,1.0753
4758.00,1.0580
4757.00,1.0404
4756.00,1.0227
4755.00,1.0049
4754.00,0.9871
4753.00,0.9693
4752.00,0.9516
4751.00,0.9339
4750.00,0.9164
4749.00,0.8990
4748.00,0.8819
4747.00,0.8652
4746.00,0.8491
4745.00,0.8335
4744.00,0.8186
4743.00,0.8043
4742.00,0.7908
4741.00,0.7780
4740.00,0.7662
4739.00,0.7553
4738.00,0.7454
4737.00,0.7366
4736.00,0.7289
4735.00,0.7222
4734.00,0.7168
4733.00,0.7126
4732.00,0.7096
4731.00,0.7079
4730.00,0.7073
4729.00,0.7080
4728.00,0.7099
4727.00,0.7130
4726.00,0.7173
4725.00,0.7227
4724.00,0.7291
4723.00,0.7366
4722.00,0.7451
4721.00,0.7546
4720.00,0.7649
4719.00,0.7759
4718.00,0.7876
4717.00,0.7999
4716.00,0.8128
4715.00,0.8263
4714.00,0.8405
4713.00,0.8551
4712.00,0.8702
4711.00,0.8855
4710.00,0.9011
4709.00,0.9169
4708.00,0.9329
4707.00,0.9490
4706.00,0.9653
4705.00,0.9818
4704.00,0.9984
4703.00,1.0149
4702.00,1.0314
4701.00,1.0479
4700.00,1.0644
4699.00,1.0808
4698.00,1.0971
4697.00,1.1133
4696.00,1.1292
4695.00,1.1448
4694.00,1.1602
4693.00,1.1753
4692.00,1.1901
4691.00,1.2045
4690.00,1.2188
4689.00,1.2328
4688.00,1.2465
4687.00,1.2600
4686.00,1.2729
4685.00,1.2854
4684.00,1.2974
4683.00,1.3089
4682.00,1.3200
4681.00,1.3308
4680.00,1.3412
4679.00,1.3511
4678.00,1.3607
4677.00,1.3698
4676.00,1.3784
4675.00,1.3863
4674.00,1.3938
4673.00,1.4009
4672.00,1.4078
4671.00,1.4142
4670.00,1.4203
4669.00,1.4258
4668.00,1.4307
4667.00,1.4351
4666.00,1.4390
4665.00,1.4427
4664.00,1.4460
4663.00,1.4489
4662.00,1.4513
4661.00,1.4533
4660.00,1.4547
4659.00,1.4556
4658.00,1.4561
4657.00,1.4564
4656.00,1.4565
4655.00,1.4563
4654.00,1.4557
4653.00,1.4547
4652.00,1.4532
4651.00,1.4511
4650.00,1.4485
4649.00,1.4453
4648.00,1.4416
4647.00,1.4375
4646.00,1.4328
4645.00,1.4278
4644.00,1.4225
4643.00,1.4169
4642.00,1.4109
4641.00,1.4043
4640.00,1.3972
4639.00,1.3894
4638.00,1.3811
4637.00,1.3726
4636.00,1.3636
4635.00,1.3543
4634.00,1.3445
4633.00,1.3343
4632.00,1.3237
4631.00,1.3126
4630.00,1.3010
4629.00,1.2888
4628.00,1.2762
4627.00,1.2631
4626.00,1.2497
4625.00,1.2361
4624.00,1.2221
4623.00,1.2077
4622.00,1.1928
4621.00,1.1773
4620.00,1.1615
4619.00,1.1453
4618.00,1.1289
4617.00,1.1122
4616.00,1.0952
4615.00,1.0780
4614.00,1.0605
4613.00,1.0426
4612.00,1.0246
4611.00,1.0063
4610.00,0.9879
4609.00,0.9695
4608.00,0.9512
4607.00,0.9329
4606.00,0.9149
4605.00,0.8971
4604.00,0.8798
4603.00,0.8629
4602.00,0.8467
4601.00,0.8311
4600.00,0.8161
4599.00,0.8020
4598.00,0.7887
4597.00,0.7764
4596.00,0.7652
4595.00,0.7550
4594.00,0.7459
4593.00,0.7379
4592.00,0.7313
4591.00,0.7260
4590.00,0.7221
4589.00,0.7195
4588.00,0.7182
4587.00,0.7182
4586.00,0.7195
4585.00,0.7221
4584.00,0.7260
4583.00,0.7311
4582.00,0.7373
4581.00,0.7448
4580.00,0.7533
4579.00,0.7628
4578.00,0.7732
4577.00,0.7846
4576.00,0.7967
4575.00,0.8096
4574.00,0.8231
4573.00,0.8373
4572.00,0.8520
4571.00,0.8673
4570.00,0.8830
4569.00,0.8991
4568.00,0.9155
4567.00,0.9322
4566.00,0.9490
4565.00,0.9661
4564.00,0.9834
4563.00,1.0008
4562.00,1.0183
4561.00,1.0357
4560.00,1.0531
4559.00,1.0705
4558.00,1.0878
4557.00,1.1051
4556.00,1.1222
4555.00,1.1392
4554.00,1.1560
4553.00,1.1727
4552.00,1.1891
4551.00,1.2053
4550.00,1.2213
4549.00,1.2369
4548.00,1.2521
4547.00,1.2669
4546.00,1.2812
4545.00,1.2952
4544.00,1.3089
4543.00,1.3221
4542.00,1.3350
4541.00,1.3474
4540.00,1.3594
4539.00,1.3709
4538.00,1.3820
4537.00,1.3925
4536.00,1.4024
4535.00,1.4117
4534.00,1.4205
4533.00,1.4289
4532.00,1.4368
4531.00,1.4444
4530.00,1.4517
4529.00,1.4586
4528.00,1.4650
4527.00,1.4707
4526.00,1.4759
4525.00,1.4805
4524.00,1.4848
4523.00,1.4887
4522.00,1.4925
4521.00,1.4962
4520.00,1.4993
4519.00,1.5019
4518.00,1.5039
4517.00,1.5053
4516.00,1.5064
4515.00,1.5072
4514.00,1.5075
4513.00,1.5075
4512.00,1.5071
4511.00,1.5063
4510.00,1.5051
4509.00,1.5036
4508.00,1.5015
4507.00,1.4989
4506.00,1.4957
4505.00,1.4920
4504.00,1.4878
4503.00,1.4832
4502.00,1.4783
4501.00,1.4730
4500.00,1.4675
4499.00,1.4615
4498.00,1.4547
4497.00,1.4473
4496.00,1.4392
4495.00,1.4306
4494.00,1.4217
4493.00,1.4125
4492.00,1.4030
4491.00,1.3930
4490.00,1.3826
4489.00,1.3718
4488.00,1.3605
4487.00,1.3487
4486.00,1.3362
4485.00,1.3231
4484.00,1.3095
4483.00,1.2954
4482.00,1.2810
4481.00,1.2664
4480.00,1.2515
4479.00,1.2360
4478.00,1.2199
4477.00,1.2033
4476.00,1.1861
4475.00,1.1686
4474.00,1.1508
4473.00,1.1327
4472.00,1.1144
4471.00,1.0959
4470.00,1.0774
4469.00,1.0587
4468.00,1.0401
4467.00,1.0215
4466.00,1.0032
4465.00,0.9852
4464.00,0.9676
4463.00,0.9504
4462.00,0.9339
4461.00,0.9181
4460.00,0.9031
4459.00,0.8891
4458.00,0.8761
4457.00,0.8642
4456.00,0.8535
4455.00,0.8440
4454.00,0.8359
4453.00,0.8293
4452.00,0.8241
4451.00,0.8203
4450.00,0.8180
4449.00,0.8171
4448.00,0.8175
4447.00,0.8193
4446.00,0.8222
4445.00,0.8263
4444.00,0.8313
4443.00,0.8371
4442.00,0.8435
4441.00,0.8503
4440.00,0.8575
4439.00,0.8648
4438.00,0.8721
4437.00,0.8793
4436.00,0.8865
4435.00,0.8938
4434.00,0.9011
4433.00,0.9088
4432.00,0.9168
4431.00,0.9254
4430.00,0.9347
4429.00,0.9447
4428.00,0.9555
4427.00,0.9669
4426.00,0.9791
4425.00,0.9921
4424.00,1.0059
4423.00,1.0204
4422.00,1.0356
4421.00,1.0514
4420.00,1.0676
4419.00,1.0842
4418.00,1.1011
4417.00,1.1183
4416.00,1.1358
4415.00,1.1534
4414.00,1.1710
4413.00,1.1886
4412.00,1.2060
4411.00,1.2233
4410.00,1.2405
4409.00,1.2575
4408.00,1.2742
4407.00,1.2907
4406.00,1.3067
4405.00,1.3225
4404.00,1.3379
4403.00,1.3529
4402.00,1.3673
4401.00,1.3809
4400.00,1.3936
4399.00,1.4056
4398.00,1.4171
4397.00,1.4282
4396.00,1.4389
4395.00,1.4490
4394.00,1.4585
4393.00,1.4675
4392.00,1.4763
4391.00,1.4848
4390.00,1.4930
4389.00,1.5006
4388.00,1.5076
4387.00,1.5140
4386.00,1.5202
4385.00,1.5262
4384.00,1.5322
4383.00,1.5378
4382.00,1.5429
4381.00,1.5475
4380.00,1.5517
4379.00,1.5555
4378.00,1.5592
4377.00,1.5625
4376.00,1.5654
4375.00,1.5677
4374.00,1.5695
4373.00,1.5711
4372.00,1.5724
4371.00,1.5735
4370.00,1.5743
4369.00,1.5746
4368.00,1.5748
4367.00,1.5747
4366.00,1.5742
4365.00,1.5731
4364.00,1.5713
4363.00,1.5686
4362.00,1.5654
4361.00,1.5618
4360.00,1.5579
4359.00,1.5537
4358.00,1.5492
4357.00,1.5444
4356.00,1.5392
4355.00,1.5335
4354.00,1.5273
4353.00,1.5206
4352.00,1.5134
4351.00,1.5057
4350.00,1.4975
4349.00,1.4888
4348.00,1.4796
4347.00,1.4698
4346.00,1.4596
4345.00,1.4488
4344.00,1.4375
4343.00,1.4258
4342.00,1.4136
4341.00,1.4008
4340.00,1.3875
4339.00,1.3736
4338.00,1.3590
4337.00,1.3438
4336.00,1.3281
4335.00,1.3119
4334.00,1.2952
4333.00,1.2781
4332.00,1.2606
4331.00,1.2426
4330.00,1.2242
4329.00,1.2055
4328.00,1.1865
4327.00,1.1671
4326.00,1.1474
4325.00,1.1275
4324.00,1.1077
4323.00,1.0880
4322.00,1.0685
4321.00,1.0490
4320.00,1.0294
4319.00,1.0097
4318.00,0.9899
4317.00,0.9700
4316.00,0.9501
4315.00,0.9305
4314.00,0.9113
4313.00,0.8926
4312.00,0.8746
4311.00,0.8574
4310.00,0.8413
4309.00,0.8263
4308.00,0.8127
4307.00,0.8005
4306.00,0.7897
4305.00,0.7803
4304.00,0.7725
4303.00,0.7663
4302.00,0.7618
4301.00,0.7590
4300.00,0.7578
4299.00,0.7582
4298.00,0.7602
4297.00,0.7637
4296.00,0.7688
4295.00,0.7753
4294.00,0.7833
4293.00,0.7925
4292.00,0.8029
4291.00,0.8144
4290.00,0.8270
4289.00,0.8405
4288.00,0.8547
4287.00,0.8698
4286.00,0.8855
4285.00,0.9018
4284.00,0.9188
4283.00,0.9362
4282.00,0.9541
4281.00,0.9722
4280.00,0.9907
4279.00,1.0094
4278.00,1.0283
4277.00,1.0473
4276.00,1.0664
4275.00,1.0856
4274.00,1.1049
4273.00,1.1242
4272.00,1.1434
4271.00,1.1624
4270.00,1.1813
4269.00,1.2001
4268.00,1.2187
4267.00,1.2372
4266.00,1.2554
4265.00,1.2733
4264.00,1.2908
4263.00,1.3078
4262.00,1.3245
4261.00,1.3407
4260.00,1.3563
4259.00,1.3715
4258.00,1.3863
4257.00,1.4009
4256.00,1.4150
4255.00,1.4288
4254.00,1.4419
4253.00,1.4545
4252.00,1.4666
4251.00,1.4783
4250.00,1.4895
4249.00,1.5000
4248.00,1.5097
4247.00,1.5188
4246.00,1.5273
4245.00,1.5356
4244.00,1.5435
4243.00,1.5510
4242.00,1.5579
4241.00,1.5642
4240.00,1.5701
4239.00,1.5755
4238.00,1.5807
4237.00,1.5856
4236.00,1.5901
4235.00,1.5940
4234.00,1.5975
4233.00,1.6006
4232.00,1.6033
4231.00,1.6056
4230.00,1.6073
4229.00,1.6086
4228.00,1.6095
4227.00,1.6100
4226.00,1.6102
4225.00,1.6098
4224.00,1.6089
4223.00,1.6075
4222.00,1.6058
4221.00,1.6036
4220.00,1.6010
4219.00,1.5977
4218.00,1.5939
4217.00,1.5899
4216.00,1.5857
4215.00,1.5813
4214.00,1.5765
4213.00,1.5711
4212.00,1.5648
4211.00,1.5578
4210.00,1.5502
4209.00,1.5422
4208.00,1.5340
4207.00,1.5256
4206.00,1.5167
4205.00,1.5071
4204.00,1.4969
4203.00,1.4861
4202.00,1.4749
4201.00,1.4634
4200.00,1.4513
4199.00,1.4385
4198.00,1.4249
4197.00,1.4107
4196.00,1.3960
4195.00,1.3807
4194.00,1.3649
4193.00,1.3485
4192.00,1.3316
4191.00,1.3140
4190.00,1.2959
4189.00,1.2774
4188.00,1.2583
4187.00,1.2385
4186.00,1.2180
4185.00,1.1969
4184.00,1.1754
4183.00,1.1535
4182.00,1.1314
4181.00,1.1092
4180.00,1.0868
4179.00,1.0642
4178.00,1.0418
4177.00,1.0194
4176.00,0.9973
4175.00,0.9756
4174.00,0.9543
4173.00,0.9335
4172.00,0.9134
4171.00,0.8941
4170.00,0.8757
4169.00,0.8584
4168.00,0.8422
4167.00,0.8273
4166.00,0.8138
4165.00,0.8016
4164.00,0.7910
4163.00,0.7818
4162.00,0.7743
4161.00,0.7685
4160.00,0.7644
4159.00,0.7621
4158.00,0.7615
4157.00,0.7627
4156.00,0.7656
4155.00,0.7702
4154.00,0.7764
4153.00,0.7842
4152.00,0.7933
4151.00,0.8038
4150.00,0.8156
4149.00,0.8286
4148.00,0.8427
4147.00,0.8577
4146.00,0.8737
4145.00,0.8904
4144.00,0.9079
4143.00,0.9259
4142.00,0.9445
4141.00,0.9635
4140.00,0.9831
4139.00,1.0030
4138.00,1.0233
4137.00,1.0437
4136.00,1.0643
4135.00,1.0849
4134.00,1.1056
4133.00,1.1265
4132.00,1.1473
4131.00,1.1680
4130.00,1.1886
4129.00,1.2089
4128.00,1.2292
4127.00,1.2493
4126.00,1.2691
4125.00,1.2886
4124.00,1.3075
4123.00,1.3260
4122.00,1.3442
4121.00,1.3621
4120.00,1.3795
4119.00,1.3964
4118.00,1.4128
4117.00,1.4287
4116.00,1.4441
4115.00,1.4590
4114.00,1.4733
4113.00,1.4871
4112.00,1.5004
4111.00,1.5132
4110.00,1.5254
4109.00,1.5369
4108.00,1.5477
4107.00,1.5581
4106.00,1.5681
4105.00,1.5776
4104.00,1.5867
4103.00,1.5953
4102.00,1.6033
4101.00,1.6107
4100.00,1.6177
4099.00,1.6242
4098.00,1.6300
4097.00,1.6353
4096.00,1.6403
4095.00,1.6448
4094.00,1.6491
4093.00,1.6530
4092.00,1.6565
4091.00,1.6597
4090.00,1.6624
4089.00,1.6647
4088.00,1.6666
4087.00,1.6680
4086.00,1.6686
4085.00,1.6687
4084.00,1.6682
4083.00,1.6675
4082.00,1.6666
4081.00,1.6654
4080.00,1.6636
4079.00,1.6612
4078.00,1.6583
4077.00,1.6553
4076.00,1.6520
4075.00,1.6482
4074.00,1.6439
4073.00,1.6389
4072.00,1.6335
4071.00,1.6279
4070.00,1.6221
4069.00,1.6159
4068.00,1.6092
4067.00,1.6019
4066.00,1.5938
4065.00,1.5852
4064.00,1.5762
4063.00,1.5668
4062.00,1.5569
4061.00,1.5463
4060.00,1.5350
4059.00,1.5233
4058.00,1.5111
4057.00,1.4982
4056.00,1.4845
4055.00,1.4700
4054.00,1.4549
4053.00,1.4394
4052.00,1.4234
4051.00,1.4069
4050.00,1.3897
4049.00,1.3720
4048.00,1.3538
4047.00,1.3350
4046.00,1.3156
4045.00,1.2956
4044.00,1.2750
4043.00,1.2541
4042.00,1.2329
4041.00,1.2116
4040.00,1.1902
4039.00,1.1688
4038.00,1.1474
4037.00,1.1262
4036.00,1.1053
4035.00,1.0848
4034.00,1.0647
4033.00,1.0452
4032.00,1.0260
4031.00,1.0072
4030.00,0.9889
4029.00,0.9709
4028.00,0.9534
4027.00,0.9363
4026.00,0.9197
4025.00,0.9035
4024.00,0.8881
4023.00,0.8735
4022.00,0.8600
4021.00,0.8476
4020.00,0.8367
4019.00,0.8274
4018.00,0.8197
4017.00,0.8137
4016.00,0.8096
4015.00,0.8073
4014.00,0.8070
4013.00,0.8086
4012.00,0.8120
4011.00,0.8173
4010.00,0.8243
4009.00,0.8330
4008.00,0.8433
4007.00,0.8552
4006.00,0.8684
4005.00,0.8830
4004.00,0.8987
4003.00,0.9155
4002.00,0.9333
4001.00,0.9518
4000.00,0.9711
3999.00,0.9909
3998.00,1.0114
3997.00,1.0323
3996.00,1.0536
3995.00,1.0753
3994.00,1.0971
3993.00,1.1191
3992.00,1.1413
3991.00,1.1636
3990.00,1.1861
3989.00,1.2086
3988.00,1.2310
3987.00,1.2530
3986.00,1.2746
3985.00,1.2959
3984.00,1.3169
3983.00,1.3375
3982.00,1.3577
3981.00,1.3775
3980.00,1.3966
3979.00,1.4151
3978.00,1.4330
3977.00,1.4502
3976.00,1.4669
3975.00,1.4830
3974.00,1.4986
3973.00,1.5135
3972.00,1.5277
3971.00,1.5413
3970.00,1.5542
3969.00,1.5664
3968.00,1.5780
3967.00,1.5891
3966.00,1.5999
3965.00,1.6105
3964.00,1.6209
3963.00,1.6310
3962.00,1.6407
3961.00,1.6498
3960.00,1.6584
3959.00,1.6664
3958.00,1.6738
3957.00,1.6808
3956.00,1.6872
3955.00,1.6934
3954.00,1.6992
3953.00,1.7047
3952.00,1.7096
3951.00,1.7138
3950.00,1.7174
3949.00,1.7205
3948.00,1.7237
3947.00,1.7270
3946.00,1.7300
3945.00,1.7323
3944.00,1.7337
3943.00,1.7345
3942.00,1.7348
3941.00,1.7347
3940.00,1.7344
3939.00,1.7335
3938.00,1.7322
3937.00,1.7304
3936.00,1.7283
3935.00,1.7258
3934.00,1.7230
3933.00,1.7197
3932.00,1.7159
3931.00,1.7116
3930.00,1.7066
3929.00,1.7011
3928.00,1.6949
3927.00,1.6883
3926.00,1.6812
3925.00,1.6738
3924.00,1.6663
3923.00,1.6585
3922.00,1.6503
3921.00,1.6416
3920.00,1.6324
3919.00,1.6224
3918.00,1.6118
3917.00,1.6006
3916.00,1.5889
3915.00,1.5766
3914.00,1.5635
3913.00,1.5494
3912.00,1.5345
3911.00,1.5190
3910.00,1.5031
3909.00,1.4869
3908.00,1.4702
3907.00,1.4530
3906.00,1.4350
3905.00,1.4161
3904.00,1.3961
3903.00,1.3752
3902.00,1.3536
3901.00,1.3311
3900.00,1.3076
3899.00,1.2833
3898.00,1.2584
3897.00,1.2336
3896.00,1.2089
3895.00,1.1841
3894.00,1.1591
3893.00,1.1334
3892.00,1.1068
3891.00,1.0796
3890.00,1.0528
3889.00,1.0275
3888.00,1.0035
3887.00,0.9798
3886.00,0.9559
3885.00,0.9322
3884.00,0.9102
3883.00,0.8901
3882.00,0.8715
3881.00,0.8539
3880.00,0.8378
3879.00,0.8239
3878.00,0.8124
3877.00,0.8033
3876.00,0.7962
3875.00,0.7909
3874.00,0.7875
3873.00,0.7864
3872.00,0.7875
3871.00,0.7906
3870.00,0.7959
3869.00,0.8031
3868.00,0.8119
3867.00,0.8222
3866.00,0.8344
3865.00,0.8488
3864.00,0.8653
3863.00,0.8831
3862.00,0.9017
3861.00,0.9208
3860.00,0.9408
3859.00,0.9612
3858.00,0.9814
3857.00,1.0006
3856.00,1.0192
3855.00,1.0386
3854.00,1.0614
3853.00,1.0886
3852.00,1.1183
3851.00,1.1470
3850.00,1.1727
3849.00,1.1964
3848.00,1.2191
3847.00,1.2415
3846.00,1.2638
3845.00,1.2861
3844.00,1.3086
3843.00,1.3310
3842.00,1.3531
3841.00,1.3743
3840.00,1.3947
3839.00,1.4145
3838.00,1.4345
3837.00,1.4548
3836.00,1.4750
3835.00,1.4945
3834.00,1.5133
3833.00,1.5317
3832.00,1.5496
3831.00,1.5670
3830.00,1.5837
3829.00,1.5994
3828.00,1.6141
3827.00,1.6280
3826.00,1.6411
3825.00,1.6534
3824.00,1.6643
3823.00,1.6741
3822.00,1.6837
3821.00,1.6937
3820.00,1.7034
3819.00,1.7119
3818.00,1.7193
3817.00,1.7267
3816.00,1.7343
3815.00,1.7419
3814.00,1.7490
3813.00,1.7553
3812.00,1.7609
3811.00,1.7662
3810.00,1.7716
3809.00,1.7769
3808.00,1.7815
3807.00,1.7852
3806.00,1.7881
3805.00,1.7900
3804.00,1.7910
3803.00,1.7914
3802.00,1.7914
3801.00,1.7910
3800.00,1.7902
3799.00,1.7889
3798.00,1.7879
3797.00,1.7873
3796.00,1.7868
3795.00,1.7865
3794.00,1.7859
3793.00,1.7846
3792.00,1.7821
3791.00,1.7788
3790.00,1.7749
3789.00,1.7707
3788.00,1.7659
3787.00,1.7605
3786.00,1.7545
3785.00,1.7477
3784.00,1.7401
3783.00,1.7320
3782.00,1.7236
3781.00,1.7146
3780.00,1.7046
3779.00,1.6939
3778.00,1.6828
3777.00,1.6715
3776.00,1.6600
3775.00,1.6483
3774.00,1.6363
3773.00,1.6235
3772.00,1.6097
3771.00,1.5946
3770.00,1.5783
3769.00,1.5610
3768.00,1.5432
3767.00,1.5251
3766.00,1.5064
3765.00,1.4870
3764.00,1.4671
3763.00,1.4470
3762.00,1.4264
3761.00,1.4043
3760.00,1.3805
3759.00,1.3554
3758.00,1.3296
3757.00,1.3036
3756.00,1.2780
3755.00,1.2530
3754.00,1.2280
3753.00,1.2016
3752.00,1.1729
3751.00,1.1418
3750.00,1.1093
3749.00,1.0777
3748.00,1.0494
3747.00,1.0255
3746.00,1.0039
3745.00,0.9814
3744.00,0.9577
3743.00,0.9354
3742.00,0.9169
3741.00,0.9015
3740.00,0.8882
3739.00,0.8768
3738.00,0.8675
3737.00,0.8597
3736.00,0.8528
3735.00,0.8472
3734.00,0.8434
3733.00,0.8414
3732.00,0.8408
3731.00,0.8420
3730.00,0.8453
3729.00,0.8510
3728.00,0.8593
3727.00,0.8706
3726.00,0.8842
3725.00,0.8991
3724.00,0.9151
3723.00,0.9322
3722.00,0.9508
3721.00,0.9709
3720.00,0.9926
3719.00,1.0156
3718.00,1.0399
3717.00,1.0643
3716.00,1.0860
3715.00,1.1034
3714.00,1.1194
3713.00,1.1401
3712.00,1.1699
3711.00,1.2071
3710.00,1.2456
3709.00,1.2801
3708.00,1.3105
3707.00,1.3387
3706.00,1.3660
3705.00,1.3919
3704.00,1.4168
3703.00,1.4412
3702.00,1.4658
3701.00,1.4909
3700.00,1.5159
3699.00,1.5401
3698.00,1.5630
3697.00,1.5847
3696.00,1.6056
3695.00,1.6255
3694.00,1.6441
3693.00,1.6618
3692.00,1.6784
3691.00,1.6944
3690.00,1.7094
3689.00,1.7239
3688.00,1.7382
3687.00,1.7522
3686.00,1.7662
3685.00,1.7798
3684.00,1.7926
3683.00,1.8042
3682.00,1.8148
3681.00,1.8245
3680.00,1.8334
3679.00,1.8410
3678.00,1.8475
3677.00,1.8534
3676.00,1.8593
3675.00,1.8651
3674.00,1.8704
3673.00,1.8751
3672.00,1.8794
3671.00,1.8837
3670.00,1.8878
3669.00,1.8920
3668.00,1.8960
3667.00,1.8995
3666.00,1.9027
3665.00,1.9059
3664.00,1.9090
3663.00,1.9114
3662.00,1.9132
3661.00,1.9144
3660.00,1.9152
3659.00,1.9154
3658.00,1.9150
3657.00,1.9142
3656.00,1.9128
3655.00,1.9108
3654.00,1.9084
3653.00,1.9060
3652.00,1.9040
3651.00,1.9016
3650.00,1.8982
3649.00,1.8935
3648.00,1.8877
3647.00,1.8819
3646.00,1.8772
3645.00,1.8743
3644.00,1.8720
3643.00,1.8689
3642.00,1.8644
3641.00,1.8589
3640.00,1.8533
3639.00,1.8476
3638.00,1.8417
3637.00,1.8355
3636.00,1.8287
3635.00,1.8211
3634.00,1.8129
3633.00,1.8042
3632.00,1.7954
3631.00,1.7860
3630.00,1.7753
3629.00,1.7632
3628.00,1.7501
3627.00,1.7365
3626.00,1.7226
3625.00,1.7085
3624.00,1.6943
3623.00,1.6803
3622.00,1.6665
3621.00,1.6522
3620.00,1.6371
3619.00,1.6210
3618.00,1.6043
3617.00,1.5872
3616.00,1.5699
3615.00,1.5518
3614.00,1.5314
3613.00,1.5084
3612.00,1.4849
3611.00,1.4642
3610.00,1.4477
3609.00,1.4339
3608.00,1.4198
3607.00,1.4032
3606.00,1.3847
3605.00,1.3654
3604.00,1.3463
3603.00,1.3275
3602.00,1.3090
3601.00,1.2909
3600.00,1.2733
3599.00,1.2563
3598.00,1.2401
3597.00,1.2250
3596.00,1.2111
3595.00,1.1985
3594.00,1.1872
3593.00,1.1773
3592.00,1.1687
3591.00,1.1616
3590.00,1.1560
3589.00,1.1522
3588.00,1.1500
3587.00,1.1494
3586.00,1.1502
3585.00,1.1519
3584.00,1.1548
3583.00,1.1588
3582.00,1.1646
3581.00,1.1722
3580.00,1.1820
3579.00,1.1938
3578.00,1.2070
3577.00,1.2212
3576.00,1.2364
3575.00,1.2526
3574.00,1.2698
3573.00,1.2877
3572.00,1.3062
3571.00,1.3251
3570.00,1.3442
3569.00,1.3639
3568.00,1.3846
3567.00,1.4065
3566.00,1.4288
3565.00,1.4506
3564.00,1.4714
3563.00,1.4911
3562.00,1.5103
3561.00,1.5293
3560.00,1.5485
3559.00,1.5678
3558.00,1.5870
3557.00,1.6059
3556.00,1.6241
3555.00,1.6415
3554.00,1.6585
3553.00,1.6752
3552.00,1.6918
3551.00,1.7079
3550.00,1.7233
3549.00,1.7380
3548.00,1.7524
3547.00,1.7665
3546.00,1.7804
3545.00,1.7941
3544.00,1.8073
3543.00,1.8195
3542.00,1.8306
3541.00,1.8406
3540.00,1.8499
3539.00,1.8591
3538.00,1.8680
3537.00,1.8768
3536.00,1.8853
3535.00,1.8935
3534.00,1.9017
3533.00,1.9097
3532.00,1.9173
3531.00,1.9241
3530.00,1.9301
3529.00,1.9357
3528.00,1.9410
3527.00,1.9462
3526.00,1.9513
3525.00,1.9562
3524.00,1.9609
3523.00,1.9650
3522.00,1.9684
3521.00,1.9711
3520.00,1.9734
3519.00,1.9754
3518.00,1.9771
3517.00,1.9788
3516.00,1.9803
3515.00,1.9812
3514.00,1.9816
3513.00,1.9814
3512.00,1.9808
3511.00,1.9797
3510.00,1.9784
3509.00,1.9771
3508.00,1.9761
3507.00,1.9747
3506.00,1.9724
3505.00,1.9693
3504.00,1.9656
3503.00,1.9614
3502.00,1.9568
3501.00,1.9518
3500.00,1.9466
3499.00,1.9414
3498.00,1.9362
3497.00,1.9308
3496.00,1.9247
3495.00,1.9176
3494.00,1.9096
3493.00,1.9011
3492.00,1.8924
3491.00,1.8836
3490.00,1.8747
3489.00,1.8654
3488.00,1.8554
3487.00,1.8445
3486.00,1.8328
3485.00,1.8208
3484.00,1.8085
3483.00,1.7958
3482.00,1.7825
3481.00,1.7683
3480.00,1.7533
3479.00,1.7373
3478.00,1.7206
3477.00,1.7034
3476.00,1.6856
3475.00,1.6670
3474.00,1.6477
3473.00,1.6278
3472.00,1.6074
3471.00,1.5865
3470.00,1.5648
3469.00,1.5426
3468.00,1.5195
3467.00,1.4957
3466.00,1.4712
3465.00,1.4462
3464.00,1.4209
3463.00,1.3953
3462.00,1.3695
3461.00,1.3436
3460.00,1.3179
3459.00,1.2926
3458.00,1.2678
3457.00,1.2435
3456.00,1.2199
3455.00,1.1971
3454.00,1.1753
3453.00,1.1547
3452.00,1.1355
3451.00,1.1179
3450.00,1.1021
3449.00,1.0882
3448.00,1.0761
3447.00,1.0660
3446.00,1.0580
3445.00,1.0524
3444.00,1.0491
3443.00,1.0482
3442.00,1.0496
3441.00,1.0532
3440.00,1.0590
3439.00,1.0668
3438.00,1.0765
3437.00,1.0882
3436.00,1.1017
3435.00,1.1168
3434.00,1.1335
3433.00,1.1516
3432.00,1.1707
3431.00,1.1908
3430.00,1.2117
3429.00,1.2336
3428.00,1.2563
3427.00,1.2795
3426.00,1.3031
3425.00,1.3270
3424.00,1.3511
3423.00,1.3756
3422.00,1.4002
3421.00,1.4248
3420.00,1.4494
3419.00,1.4739
3418.00,1.4982
3417.00,1.5221
3416.00,1.5456
3415.00,1.5687
3414.00,1.5914
3413.00,1.6136
3412.00,1.6354
3411.00,1.6566
3410.00,1.6772
3409.00,1.6972
3408.00,1.7165
3407.00,1.7352
3406.00,1.7532
3405.00,1.7704
3404.00,1.7868
3403.00,1.8025
3402.00,1.8177
3401.00,1.8325
3400.00,1.8465
3399.00,1.8594
3398.00,1.8716
3397.00,1.8832
3396.00,1.8946
3395.00,1.9055
3394.00,1.9158
3393.00,1.9258
3392.00,1.9353
3391.00,1.9442
3390.00,1.9524
3389.00,1.9602
3388.00,1.9679
3387.00,1.9754
3386.00,1.9826
3385.00,1.9890
3384.00,1.9948
3383.00,1.9999
3382.00,2.0044
3381.00,2.0087
3380.00,2.0128
3379.00,2.0169
3378.00,2.0208
3377.00,2.0245
3376.00,2.0275
3375.00,2.0296
3374.00,2.0309
3373.00,2.0320
3372.00,2.0332
3371.00,2.0339
3370.00,2.0339
3369.00,2.0332
3368.00,2.0323
3367.00,2.0315
3366.00,2.0305
3365.00,2.0290
3364.00,2.0265
3363.00,2.0230
3362.00,2.0190
3361.00,2.0147
3360.00,2.0102
3359.00,2.0055
3358.00,2.0006
3357.00,1.9952
3356.00,1.9890
3355.00,1.9819
3354.00,1.9743
3353.00,1.9668
3352.00,1.9594
3351.00,1.9515
3350.00,1.9427
3349.00,1.9331
3348.00,1.9230
3347.00,1.9124
3346.00,1.9013
3345.00,1.8894
3344.00,1.8767
3343.00,1.8632
3342.00,1.8493
3341.00,1.8349
3340.00,1.8200
3339.00,1.8048
3338.00,1.7891
3337.00,1.7730
3336.00,1.7561
3335.00,1.7383
3334.00,1.7195
3333.00,1.7000
3332.00,1.6798
3331.00,1.6591
3330.00,1.6377
3329.00,1.6157
3328.00,1.5932
3327.00,1.5699
3326.00,1.5460
3325.00,1.5215
3324.00,1.4965
3323.00,1.4711
3322.00,1.4452
3321.00,1.4190
3320.00,1.3923
3319.00,1.3652
3318.00,1.3381
3317.00,1.3112
3316.00,1.2848
3315.00,1.2591
3314.00,1.2342
3313.00,1.2104
3312.00,1.1878
3311.00,1.1667
3310.00,1.1473
3309.00,1.1298
3308.00,1.1143
3307.00,1.1011
3306.00,1.0902
3305.00,1.0816
3304.00,1.0756
3303.00,1.0721
3302.00,1.0712
3301.00,1.0728
3300.00,1.0767
3299.00,1.0829
3298.00,1.0913
3297.00,1.1019
3296.00,1.1145
3295.00,1.1290
3294.00,1.1451
3293.00,1.1627
3292.00,1.1815
3291.00,1.2015
3290.00,1.2226
3289.00,1.2446
3288.00,1.2675
3287.00,1.2911
3286.00,1.3152
3285.00,1.3397
3284.00,1.3645
3283.00,1.3897
3282.00,1.4151
3281.00,1.4404
3280.00,1.4656
3279.00,1.4906
3278.00,1.5156
3277.00,1.5405
3276.00,1.5652
3275.00,1.5896
3274.00,1.6136
3273.00,1.6372
3272.00,1.6602
3271.00,1.6827
3270.00,1.7047
3269.00,1.7260
3268.00,1.7465
3267.00,1.7661
3266.00,1.7851
3265.00,1.8037
3264.00,1.8220
3263.00,1.8394
3262.00,1.8560
3261.00,1.8717
3260.00,1.8868
3259.00,1.9013
3258.00,1.9154
3257.00,1.9292
3256.00,1.9427
3255.00,1.9554
3254.00,1.9671
3253.00,1.9780
3252.00,1.9884
3251.00,1.9984
3250.00,2.0082
3249.00,2.0178
3248.00,2.0269
3247.00,2.0350
3246.00,2.0424
3245.00,2.0493
3244.00,2.0559
3243.00,2.0622
3242.00,2.0680
3241.00,2.0736
3240.00,2.0789
3239.00,2.0834
3238.00,2.0872
3237.00,2.0903
3236.00,2.0930
3235.00,2.0952
3234.00,2.0969
3233.00,2.0981
3232.00,2.0989
3231.00,2.0997
3230.00,2.1007
3229.00,2.1017
3228.00,2.1022
3227.00,2.1015
3226.00,2.0997
3225.00,2.0975
3224.00,2.0953
3223.00,2.0932
3222.00,2.0908
3221.00,2.0878
3220.00,2.0839
3219.00,2.0792
3218.00,2.0741
3217.00,2.0690
3216.00,2.0639
3215.00,2.0584
3214.00,2.0521
3213.00,2.0451
3212.00,2.0375
3211.00,2.0295
3210.00,2.0214
3209.00,2.0133
3208.00,2.0052
3207.00,1.9968
3206.00,1.9880
3205.00,1.9787
3204.00,1.9694
3203.00,1.9601
3202.00,1.9505
3201.00,1.9400
3200.00,1.9281
3199.00,1.9146
3198.00,1.8998
3197.00,1.8841
3196.00,1.8676
3195.00,1.8503
3194.00,1.8322
3193.00,1.8134
3192.00,1.7935
3191.00,1.7726
3190.00,1.7508
3189.00,1.7282
3188.00,1.7049
3187.00,1.6807
3186.00,1.6556
3185.00,1.6298
3184.00,1.6035
3183.00,1.5768
3182.00,1.5499
3181.00,1.5231
3180.00,1.4965
3179.00,1.4702
3178.00,1.4448
3177.00,1.4207
3176.00,1.3988
3175.00,1.3795
3174.00,1.3637
3173.00,1.3521
3172.00,1.3456
3171.00,1.3453
3170.00,1.3518
3169.00,1.3653
3168.00,1.3849
3167.00,1.4085
3166.00,1.4323
3165.00,1.4511
3164.00,1.4595
3163.00,1.4537
3162.00,1.4339
3161.00,1.4037
3160.00,1.3686
3159.00,1.3338
3158.00,1.3029
3157.00,1.2781
3156.00,1.2602
3155.00,1.2491
3154.00,1.2443
3153.00,1.2452
3152.00,1.2510
3151.00,1.2609
3150.00,1.2741
3149.00,1.2900
3148.00,1.3080
3147.00,1.3277
3146.00,1.3491
3145.00,1.3717
3144.00,1.3952
3143.00,1.4194
3142.00,1.4440
3141.00,1.4692
3140.00,1.4948
3139.00,1.5206
3138.00,1.5464
3137.00,1.5723
3136.00,1.5982
3135.00,1.6240
3134.00,1.6497
3133.00,1.6751
3132.00,1.7001
3131.00,1.7242
3130.00,1.7474
3129.00,1.7698
3128.00,1.7919
3127.00,1.8137
3126.00,1.8351
3125.00,1.8559
3124.00,1.8761
3123.00,1.8955
3122.00,1.9138
3121.00,1.9310
3120.00,1.9472
3119.00,1.9626
3118.00,1.9774
3117.00,1.9920
3116.00,2.0065
3115.00,2.0206
3114.00,2.0338
3113.00,2.0461
3112.00,2.0578
3111.00,2.0689
3110.00,2.0795
3109.00,2.0897
3108.00,2.0995
3107.00,2.1087
3106.00,2.1171
3105.00,2.1247
3104.00,2.1315
3103.00,2.1378
3102.00,2.1439
3101.00,2.1500
3100.00,2.1561
3099.00,2.1623
3098.00,2.1682
3097.00,2.1733
3096.00,2.1775
3095.00,2.1809
3094.00,2.1840
3093.00,2.1868
3092.00,2.1892
3091.00,2.1908
3090.00,2.1919
3089.00,2.1928
3088.00,2.1936
3087.00,2.1942
3086.00,2.1942
3085.00,2.1936
3084.00,2.1922
3083.00,2.1900
3082.00,2.1874
3081.00,2.1850
3080.00,2.1831
3079.00,2.1808
3078.00,2.1775
3077.00,2.1731
3076.00,2.1681
3075.00,2.1630
3074.00,2.1577
3073.00,2.1523
3072.00,2.1467
3071.00,2.1407
3070.00,2.1341
3069.00,2.1265
3068.00,2.1178
3067.00,2.1085
3066.00,2.0989
3065.00,2.0894
3064.00,2.0797
3063.00,2.0692
3062.00,2.0576
3061.00,2.0453
3060.00,2.0326
3059.00,2.0196
3058.00,2.0060
3057.00,1.9917
3056.00,1.9767
3055.00,1.9611
3054.00,1.9452
3053.00,1.9290
3052.00,1.9124
3051.00,1.8951
3050.00,1.8767
3049.00,1.8574
3048.00,1.8374
3047.00,1.8172
3046.00,1.7967
3045.00,1.7761
3044.00,1.7551
3043.00,1.7337
3042.00,1.7122
3041.00,1.6906
3040.00,1.6691
3039.00,1.6480
3038.00,1.6273
3037.00,1.6072
3036.00,1.5879
3035.00,1.5694
3034.00,1.5522
3033.00,1.5366
3032.00,1.5227
3031.00,1.5107
3030.00,1.5007
3029.00,1.4928
3028.00,1.4873
3027.00,1.4842
3026.00,1.4835
3025.00,1.4854
3024.00,1.4897
3023.00,1.4963
3022.00,1.5052
3021.00,1.5162
3020.00,1.5294
3019.00,1.5447
3018.00,1.5620
3017.00,1.5811
3016.00,1.6017
3015.00,1.6236
3014.00,1.6463
3013.00,1.6694
3012.00,1.6929
3011.00,1.7164
3010.00,1.7397
3009.00,1.7625
3008.00,1.7845
3007.00,1.8052
3006.00,1.8243
3005.00,1.8415
3004.00,1.8563
3003.00,1.8688
3002.00,1.8790
3001.00,1.8873
3000.00,1.8942
2999.00,1.8999
2998.00,1.9049
2997.00,1.9095
2996.00,1.9141
2995.00,1.9191
2994.00,1.9248
2993.00,1.9316
2992.00,1.9395
2991.00,1.9488
2990.00,1.9597
2989.00,1.9725
2988.00,1.9868
2987.00,2.0026
2986.00,2.0193
2985.00,2.0368
2984.00,2.0549
2983.00,2.0734
2982.00,2.0920
2981.00,2.1103
2980.00,2.1281
2979.00,2.1455
2978.00,2.1633
2977.00,2.1815
2976.00,2.1996
2975.00,2.2170
2974.00,2.2332
2973.00,2.2485
2972.00,2.2632
2971.00,2.2774
2970.00,2.2911
2969.00,2.3042
2968.00,2.3165
2967.00,2.3284
2966.00,2.3400
2965.00,2.3516
2964.00,2.3631
2963.00,2.3740
2962.00,2.3843
2961.00,2.3940
2960.00,2.4030
2959.00,2.4110
2958.00,2.4188
2957.00,2.4273
2956.00,2.4374
2955.00,2.4495
2954.00,2.4630
2953.00,2.4769
2952.00,2.4901
2951.00,2.5024
2950.00,2.5145
2949.00,2.5272
2948.00,2.5408
2947.00,2.5548
2946.00,2.5680
2945.00,2.5785
2944.00,2.5841
2943.00,2.5829
2942.00,2.5750
2941.00,2.5622
2940.00,2.5469
2939.00,2.5315
2938.00,2.5175
2937.00,2.5053
2936.00,2.4940
2935.00,2.4830
2934.00,2.4720
2933.00,2.4609
2932.00,2.4498
2931.00,2.4390
2930.00,2.4291
2929.00,2.4206
2928.00,2.4133
2927.00,2.4069
2926.00,2.4013
2925.00,2.3960
2924.00,2.3902
2923.00,2.3835
2922.00,2.3762
2921.00,2.3689
2920.00,2.3616
2919.00,2.3544
2918.00,2.3473
2917.00,2.3405
2916.00,2.3339
2915.00,2.3275
2914.00,2.3214
2913.00,2.3154
2912.00,2.3085
2911.00,2.2999
2910.00,2.2901
2909.00,2.2800
2908.00,2.2704
2907.00,2.2609
2906.00,2.2509
2905.00,2.2398
2904.00,2.2275
2903.00,2.2141
2902.00,2.2002
2901.00,2.1861
2900.00,2.1718
2899.00,2.1569
2898.00,2.1412
2897.00,2.1248
2896.00,2.1074
2895.00,2.0890
2894.00,2.0694
2893.00,2.0491
2892.00,2.0280
2891.00,2.0063
2890.00,1.9840
2889.00,1.9614
2888.00,1.9386
2887.00,1.9160
2886.00,1.8934
2885.00,1.8711
2884.00,1.8493
2883.00,1.8282
2882.00,1.8083
2881.00,1.7901
2880.00,1.7742
2879.00,1.7608
2878.00,1.7505
2877.00,1.7434
2876.00,1.7398
2875.00,1.7394
2874.00,1.7420
2873.00,1.7466
2872.00,1.7523
2871.00,1.7577
2870.00,1.7616
2869.00,1.7630
2868.00,1.7613
2867.00,1.7563
2866.00,1.7483
2865.00,1.7376
2864.00,1.7243
2863.00,1.7081
2862.00,1.6890
2861.00,1.6671
2860.00,1.6427
2859.00,1.6164
2858.00,1.5890
2857.00,1.5619
2856.00,1.5364
2855.00,1.5135
2854.00,1.4942
2853.00,1.4791
2852.00,1.4688
2851.00,1.4635
2850.00,1.4632
2849.00,1.4676
2848.00,1.4761
2847.00,1.4884
2846.00,1.5040
2845.00,1.5224
2844.00,1.5433
2843.00,1.5660
2842.00,1.5903
2841.00,1.6160
2840.00,1.6425
2839.00,1.6697
2838.00,1.6971
2837.00,1.7247
2836.00,1.7523
2835.00,1.7799
2834.00,1.8072
2833.00,1.8341
2832.00,1.8605
2831.00,1.8863
2830.00,1.9116
2829.00,1.9361
2828.00,1.9597
2827.00,1.9823
2826.00,2.0041
2825.00,2.0254
2824.00,2.0462
2823.00,2.0665
2822.00,2.0860
2821.00,2.1045
2820.00,2.1220
2819.00,2.1387
2818.00,2.1553
2817.00,2.1718
2816.00,2.1877
2815.00,2.2022
2814.00,2.2148
2813.00,2.2261
2812.00,2.2372
2811.00,2.2488
2810.00,2.2608
2809.00,2.2723
2808.00,2.2829
2807.00,2.2922
2806.00,2.3007
2805.00,2.3086
2804.00,2.3160
2803.00,2.3227
2802.00,2.3285
2801.00,2.3336
2800.00,2.3384
2799.00,2.3434
2798.00,2.3488
2797.00,2.3542
2796.00,2.3587
2795.00,2.3618
2794.00,2.3639
2793.00,2.3658
2792.00,2.3674
2791.00,2.3682
2790.00,2.3682
2789.00,2.3677
2788.00,2.3673
2787.00,2.3673
2786.00,2.3673
2785.00,2.3672
2784.00,2.3665
2783.00,2.3646
2782.00,2.3615
2781.00,2.3575
2780.00,2.3535
2779.00,2.3495
2778.00,2.3449
2777.00,2.3392
2776.00,2.3326
2775.00,2.3255
2774.00,2.3187
2773.00,2.3122
2772.00,2.3055
2771.00,2.2980
2770.00,2.2892
2769.00,2.2792
2768.00,2.2686
2767.00,2.2577
2766.00,2.2469
2765.00,2.2357
2764.00,2.2237
2763.00,2.2105
2762.00,2.1960
2761.00,2.1806
2760.00,2.1645
2759.00,2.1478
2758.00,2.1305
2757.00,2.1127
2756.00,2.0941
2755.00,2.0743
2754.00,2.0530
2753.00,2.0303
2752.00,2.0067
2751.00,1.9826
2750.00,1.9579
2749.00,1.9321
2748.00,1.9049
2747.00,1.8760
2746.00,1.8456
2745.00,1.8138
2744.00,1.7808
2743.00,1.7467
2742.00,1.7111
2741.00,1.6741
2740.00,1.6356
2739.00,1.5962
2738.00,1.5562
2737.00,1.5160
2736.00,1.4757
2735.00,1.4355
2734.00,1.3958
2733.00,1.3571
2732.00,1.3197
2731.00,1.2843
2730.00,1.2511
2729.00,1.2207
2728.00,1.1935
2727.00,1.1698
2726.00,1.1501
2725.00,1.1347
2724.00,1.1240
2723.00,1.1181
2722.00,1.1170
2721.00,1.1207
2720.00,1.1291
2719.00,1.1417
2718.00,1.1584
2717.00,1.1788
2716.00,1.2025
2715.00,1.2292
2714.00,1.2583
2713.00,1.2894
2712.00,1.3223
2711.00,1.3565
2710.00,1.3918
2709.00,1.4280
2708.00,1.4649
2707.00,1.5023
2706.00,1.5399
2705.00,1.5778
2704.00,1.6157
2703.00,1.6535
2702.00,1.6909
2701.00,1.7279
2700.00,1.7644
2699.00,1.8000
2698.00,1.8344
2697.00,1.8676
2696.00,1.8998
2695.00,1.9310
2694.00,1.9610
2693.00,1.9898
2692.00,2.0171
2691.00,2.0434
2690.00,2.0691
2689.00,2.0940
2688.00,2.1174
2687.00,2.1389
2686.00,2.1587
2685.00,2.1775
2684.00,2.1960
2683.00,2.2145
2682.00,2.2328
2681.00,2.2500
2680.00,2.2653
2679.00,2.2787
2678.00,2.2911
2677.00,2.3034
2676.00,2.3159
2675.00,2.3285
2674.00,2.3408
2673.00,2.3523
2672.00,2.3628
2671.00,2.3722
2670.00,2.3810
2669.00,2.3892
2668.00,2.3971
2667.00,2.4048
2666.00,2.4123
2665.00,2.4191
2664.00,2.4250
2663.00,2.4304
2662.00,2.4358
2661.00,2.4413
2660.00,2.4460
2659.00,2.4501
2658.00,2.4543
2657.00,2.4594
2656.00,2.4644
2655.00,2.4679
2654.00,2.4688
2653.00,2.4677
2652.00,2.4660
2651.00,2.4650
2650.00,2.4651
2649.00,2.4657
2648.00,2.4657
2647.00,2.4644
2646.00,2.4618
2645.00,2.4586
2644.00,2.4552
2643.00,2.4520
2642.00,2.4487
2641.00,2.4451
2640.00,2.4407
2639.00,2.4355
2638.00,2.4299
2637.00,2.4239
2636.00,2.4174
2635.00,2.4105
2634.00,2.4036
2633.00,2.3968
2632.00,2.3896
2631.00,2.3819
2630.00,2.3742
2629.00,2.3672
2628.00,2.3609
2627.00,2.3549
2626.00,2.3482
2625.00,2.3400
2624.00,2.3293
2623.00,2.3161
2622.00,2.3014
2621.00,2.2864
2620.00,2.2715
2619.00,2.2566
2618.00,2.2408
2617.00,2.2235
2616.00,2.2043
2615.00,2.1837
2614.00,2.1625
2613.00,2.1409
2612.00,2.1185
2611.00,2.0947
2610.00,2.0693
2609.00,2.0425
2608.00,2.0144
2607.00,1.9852
2606.00,1.9545
2605.00,1.9223
2604.00,1.8883
2603.00,1.8523
2602.00,1.8146
2601.00,1.7753
2600.00,1.7343
2599.00,1.6918
2598.00,1.6479
2597.00,1.6029
2596.00,1.5571
2595.00,1.5108
2594.00,1.4646
2593.00,1.4192
2592.00,1.3754
2591.00,1.3337
2590.00,1.2946
2589.00,1.2586
2588.00,1.2263
2587.00,1.1983
2586.00,1.1749
2585.00,1.1567
2584.00,1.1439
2583.00,1.1369
2582.00,1.1355
2581.00,1.1399
2580.00,1.1496
2579.00,1.1645
2578.00,1.1842
2577.00,1.2082
2576.00,1.2358
2575.00,1.2664
2574.00,1.2994
2573.00,1.3344
2572.00,1.3709
2571.00,1.4087
2570.00,1.4475
2569.00,1.4870
2568.00,1.5270
2567.00,1.5673
2566.00,1.6075
2565.00,1.6478
2564.00,1.6878
2563.00,1.7274
2562.00,1.7665
2561.00,1.8052
2560.00,1.8431
2559.00,1.8801
2558.00,1.9158
2557.00,1.9503
2556.00,1.9836
2555.00,2.0159
2554.00,2.0472
2553.00,2.0773
2552.00,2.1059
2551.00,2.1329
2550.00,2.1584
2549.00,2.1829
2548.00,2.2064
2547.00,2.2285
2546.00,2.2491
2545.00,2.2687
2544.00,2.2881
2543.00,2.3070
2542.00,2.3249
2541.00,2.3416
2540.00,2.3574
2539.00,2.3728
2538.00,2.3878
2537.00,2.4022
2536.00,2.4156
2535.00,2.4273
2534.00,2.4374
2533.00,2.4466
2532.00,2.4559
2531.00,2.4659
2530.00,2.4764
2529.00,2.4867
2528.00,2.4961
2527.00,2.5046
2526.00,2.5123
2525.00,2.5193
2524.00,2.5252
2523.00,2.5303
2522.00,2.5352
2521.00,2.5403
2520.00,2.5450
2519.00,2.5489
2518.00,2.5518
2517.00,2.5546
2516.00,2.5574
2515.00,2.5603
2514.00,2.5631
2513.00,2.5654
2512.00,2.5671
2511.00,2.5677
2510.00,2.5673
2509.00,2.5667
2508.00,2.5662
2507.00,2.5657
2506.00,2.5649
2505.00,2.5636
2504.00,2.5612
2503.00,2.5574
2502.00,2.5528
2501.00,2.5487
2500.00,2.5458
2499.00,2.5434
2498.00,2.5400
2497.00,2.5348
2496.00,2.5284
2495.00,2.5224
2494.00,2.5171
2493.00,2.5115
2492.00,2.5039
2491.00,2.4943
2490.00,2.4843
2489.00,2.4752
2488.00,2.4663
2487.00,2.4562
2486.00,2.4443
2485.00,2.4315
2484.00,2.4187
2483.00,2.4060
2482.00,2.3927
2481.00,2.3786
2480.00,2.3635
2479.00,2.3474
2478.00,2.3305
2477.00,2.3130
2476.00,2.2946
2475.00,2.2755
2474.00,2.2556
2473.00,2.2349
2472.00,2.2131
2471.00,2.1898
2470.00,2.1650
2469.00,2.1388
2468.00,2.1117
2467.00,2.0833
2466.00,2.0534
2465.00,2.0220
2464.00,1.9888
2463.00,1.9540
2462.00,1.9174
2461.00,1.8790
2460.00,1.8388
2459.00,1.7970
2458.00,1.7539
2457.00,1.7099
2456.00,1.6653
2455.00,1.6205
2454.00,1.5758
2453.00,1.5319
2452.00,1.4895
2451.00,1.4493
2450.00,1.4119
2449.00,1.3779
2448.00,1.3479
2447.00,1.3223
2446.00,1.3015
2445.00,1.2858
2444.00,1.2756
2443.00,1.2708
2442.00,1.2716
2441.00,1.2778
2440.00,1.2893
2439.00,1.3055
2438.00,1.3261
2437.00,1.3506
2436.00,1.3784
2435.00,1.4092
2434.00,1.4423
2433.00,1.4776
2432.00,1.5146
2431.00,1.5531
2430.00,1.5926
2429.00,1.6328
2428.00,1.6736
2427.00,1.7145
2426.00,1.7554
2425.00,1.7960
2424.00,1.8362
2423.00,1.8757
2422.00,1.9145
2421.00,1.9524
2420.00,1.9892
2419.00,2.0243
2418.00,2.0575
2417.00,2.0891
2416.00,2.1194
2415.00,2.1486
2414.00,2.1763
2413.00,2.2024
2412.00,2.2269
2411.00,2.2499
2410.00,2.2712
2409.00,2.2915
2408.00,2.3111
2407.00,2.3305
2406.00,2.3496
2405.00,2.3680
2404.00,2.3856
2403.00,2.4024
2402.00,2.4184
2401.00,2.4339
2400.00,2.4490
2399.00,2.4636
2398.00,2.4770
2397.00,2.4893
2396.00,2.5010
2395.00,2.5129
2394.00,2.5250
2393.00,2.5375
2392.00,2.5495
2391.00,2.5634
2390.00,2.5768
2389.00,2.5961
2388.00,2.6063
2387.00,2.6035
2386.00,2.6145
2385.00,2.6205
2384.00,2.6276
2383.00,2.6317
2382.00,2.6347
2381.00,2.6363
2380.00,2.6379
2379.00,2.6398
2378.00,2.6426
2377.00,2.6466
2376.00,2.6515
2375.00,2.6565
2374.00,2.6610
2373.00,2.6648
2372.00,2.6676
2371.00,2.6690
2370.00,2.6689
2369.00,2.6681
2368.00,2.6674
2367.00,2.6664
2366.00,2.6645
2365.00,2.6617
2364.00,2.6593
2363.00,2.6576
2362.00,2.6561
2361.00,2.6532
2360.00,2.6485
2359.00,2.6426
2358.00,2.6366
2357.00,2.6308
2356.00,2.6250
2355.00,2.6188
2354.00,2.6120
2353.00,2.6041
2352.00,2.5946
2351.00,2.5838
2350.00,2.5726
2349.00,2.5622
2348.00,2.5525
2347.00,2.5431
2346.00,2.5331
2345.00,2.5217
2344.00,2.5088
2343.00,2.4946
2342.00,2.4792
2341.00,2.4628
2340.00,2.4432
2339.00,2.4266
2338.00,2.4016
2337.00,2.3909
2336.00,2.3549
2335.00,2.3631
2334.00,2.2690
2333.00,2.1717
2332.00,2.2245
2331.00,2.2532
2330.00,2.2888
2329.00,2.2901
2328.00,2.2750
2327.00,2.2381
2326.00,2.2079
2325.00,2.1863
2324.00,2.1912
2323.00,2.1993
2322.00,2.2006
2321.00,2.1844
2320.00,2.1516
2319.00,2.1103
2318.00,2.0574
2317.00,2.0039
2316.00,1.9560
2315.00,1.9299
2314.00,1.9263
2313.00,1.9389
2312.00,1.9567
2311.00,1.9693
2310.00,1.9791
2309.00,1.9854
2308.00,1.9966
2307.00,2.0103
2306.00,2.0307
2305.00,2.0541
2304.00,2.0844
2303.00,2.1206
2302.00,2.1648
2301.00,2.2150
2300.00,2.2692
2299.00,2.3233
2298.00,2.3762
2297.00,2.4248
2296.00,2.4674
2295.00,2.4976
2294.00,2.5110
2293.00,2.5013
2292.00,2.4685
2291.00,2.4153
2290.00,2.3512
2289.00,2.2855
2288.00,2.2272
2287.00,2.1802
2286.00,2.1463
2285.00,2.1246
2284.00,2.1148
2283.00,2.1168
2282.00,2.1304
2281.00,2.1546
2280.00,2.1860
2279.00,2.2218
2278.00,2.2597
2277.00,2.2995
2276.00,2.3405
2275.00,2.3819
2274.00,2.4218
2273.00,2.4588
2272.00,2.4933
2271.00,2.5264
2270.00,2.5596
2269.00,2.5926
2268.00,2.6250
2267.00,2.6565
2266.00,2.6877
2265.00,2.7189
2264.00,2.7501
2263.00,2.7811
2262.00,2.8127
2261.00,2.8461
2260.00,2.8853
2259.00,2.9379
2258.00,3.0128
2257.00,3.1179
2256.00,3.2547
2255.00,3.4141
2254.00,3.5617
2253.00,3.6289
2252.00,3.5664
2251.00,3.4158
2250.00,3.2398
2249.00,3.0679
2248.00,2.9103
2247.00,2.7720
2246.00,2.6566
2245.00,2.5660
2244.00,2.5005
2243.00,2.4587
2242.00,2.4380
2241.00,2.4350
2240.00,2.4452
2239.00,2.4644
2238.00,2.4892
2237.00,2.5170
2236.00,2.5460
2235.00,2.5747
2234.00,2.6023
2233.00,2.6278
2232.00,2.6502
2231.00,2.6688
2230.00,2.6843
2229.00,2.6983
2228.00,2.7119
2227.00,2.7254
2226.00,2.7379
2225.00,2.7481
2224.00,2.7558
2223.00,2.7615
2222.00,2.7668
2221.00,2.7725
2220.00,2.7785
2219.00,2.7832
2218.00,2.7852
2217.00,2.7845
2216.00,2.7833
2215.00,2.7835
2214.00,2.7853
2213.00,2.7873
2212.00,2.7876
2211.00,2.7856
2210.00,2.7822
2209.00,2.7784
2208.00,2.7749
2207.00,2.7713
2206.00,2.7668
2205.00,2.7614
2204.00,2.7559
2203.00,2.7514
2202.00,2.7476
2201.00,2.7433
2200.00,2.7376
2199.00,2.7304
2198.00,2.7221
2197.00,2.7125
2196.00,2.7015
2195.00,2.6896
2194.00,2.6777
2193.00,2.6661
2192.00,2.6537
2191.00,2.6395
2190.00,2.6237
2189.00,2.6072
2188.00,2.5909
2187.00,2.5745
2186.00,2.5574
2185.00,2.5394
2184.00,2.5207
2183.00,2.5013
2182.00,2.4803
2181.00,2.4576
2180.00,2.4334
2179.00,2.4084
2178.00,2.3824
2177.00,2.3550
2176.00,2.3258
2175.00,2.2954
2174.00,2.2638
2173.00,2.2305
2172.00,2.1946
2171.00,2.1559
2170.00,2.1147
2169.00,2.0715
2168.00,2.0261
2167.00,1.9785
2166.00,1.9284
2165.00,1.8761
2164.00,1.8218
2163.00,1.7661
2162.00,1.7098
2161.00,1.6538
2160.00,1.5989
2159.00,1.5460
2158.00,1.4961
2157.00,1.4505
2156.00,1.4102
2155.00,1.3761
2154.00,1.3489
2153.00,1.3293
2152.00,1.3178
2151.00,1.3146
2150.00,1.3196
2149.00,1.3326
2148.00,1.3531
2147.00,1.3802
2146.00,1.4129
2145.00,1.4502
2144.00,1.4911
2143.00,1.5349
2142.00,1.5809
2141.00,1.6285
2140.00,1.6774
2139.00,1.7271
2138.00,1.7774
2137.00,1.8278
2136.00,1.8781
2135.00,1.9277
2134.00,1.9760
2133.00,2.0229
2132.00,2.0681
2131.00,2.1117
2130.00,2.1536
2129.00,2.1939
2128.00,2.2325
2127.00,2.2690
2126.00,2.3033
2125.00,2.3352
2124.00,2.3653
2123.00,2.3944
2122.00,2.4233
2121.00,2.4520
2120.00,2.4797
2119.00,2.5057
2118.00,2.5300
2117.00,2.5526
2116.00,2.5737
2115.00,2.5939
2114.00,2.6134
2113.00,2.6323
2112.00,2.6495
2111.00,2.6645
2110.00,2.6780
2109.00,2.6908
2108.00,2.7037
2107.00,2.7173
2106.00,2.7317
2105.00,2.7454
2104.00,2.7569
2103.00,2.7661
2102.00,2.7750
2101.00,2.7856
2100.00,2.7983
2099.00,2.8117
2098.00,2.8236
2097.00,2.8320
2096.00,2.8359
2095.00,2.8369
2094.00,2.8384
2093.00,2.8432
2092.00,2.8505
2091.00,2.8575
2090.00,2.8625
2089.00,2.8663
2088.00,2.8698
2087.00,2.8734
2086.00,2.8762
2085.00,2.8785
2084.00,2.8808
2083.00,2.8829
2082.00,2.8837
2081.00,2.8828
2080.00,2.8823
2079.00,2.8851
2078.00,2.8915
2077.00,2.8982
2076.00,2.9009
2075.00,2.8981
2074.00,2.8921
2073.00,2.8853
2072.00,2.8788
2071.00,2.8727
2070.00,2.8673
2069.00,2.8629
2068.00,2.8595
2067.00,2.8567
2066.00,2.8539
2065.00,2.8498
2064.00,2.8438
2063.00,2.8364
2062.00,2.8281
2061.00,2.8193
2060.00,2.8099
2059.00,2.8003
2058.00,2.7901
2057.00,2.7792
2056.00,2.7668
2055.00,2.7530
2054.00,2.7383
2053.00,2.7234
2052.00,2.7096
2051.00,2.6976
2050.00,2.6866
2049.00,2.6743
2048.00,2.6592
2047.00,2.6417
2046.00,2.6233
2045.00,2.6046
2044.00,2.5847
2043.00,2.5631
2042.00,2.5404
2041.00,2.5172
2040.00,2.4935
2039.00,2.4684
2038.00,2.4414
2037.00,2.4122
2036.00,2.3810
2035.00,2.3478
2034.00,2.3130
2033.00,2.2768
2032.00,2.2390
2031.00,2.1991
2030.00,2.1570
2029.00,2.1124
2028.00,2.0654
2027.00,2.0159
2026.00,1.9644
2025.00,1.9111
2024.00,1.8564
2023.00,1.8006
2022.00,1.7442
2021.00,1.6884
2020.00,1.6345
2019.00,1.5834
2018.00,1.5364
2017.00,1.4949
2016.00,1.4599
2015.00,1.4318
2014.00,1.4106
2013.00,1.3970
2012.00,1.3920
2011.00,1.3962
2010.00,1.4089
2009.00,1.4293
2008.00,1.4563
2007.00,1.4890
2006.00,1.5267
2005.00,1.5682
2004.00,1.6128
2003.00,1.6598
2002.00,1.7086
2001.00,1.7588
2000.00,1.8100
1999.00,1.8621
1998.00,1.9144
1997.00,1.9666
1996.00,2.0182
1995.00,2.0683
1994.00,2.1163
1993.00,2.1621
1992.00,2.2062
1991.00,2.2487
1990.00,2.2892
1989.00,2.3277
1988.00,2.3650
1987.00,2.4017
1986.00,2.4368
1985.00,2.4691
1984.00,2.4982
1983.00,2.5255
1982.00,2.5519
1981.00,2.5774
1980.00,2.6010
1979.00,2.6228
1978.00,2.6437
1977.00,2.6647
1976.00,2.6862
1975.00,2.7075
1974.00,2.7273
1973.00,2.7451
1972.00,2.7616
1971.00,2.7780
1970.00,2.7944
1969.00,2.8103
1968.00,2.8252
1967.00,2.8395
1966.00,2.8533
1965.00,2.8650
1964.00,2.8733
1963.00,2.8794
1962.00,2.8868
1961.00,2.8973
1960.00,2.9092
1959.00,2.9195
1958.00,2.9275
1957.00,2.9343
1956.00,2.9414
1955.00,2.9491
1954.00,2.9570
1953.00,2.9642
1952.00,2.9702
1951.00,2.9754
1950.00,2.9811
1949.00,2.9874
1948.00,2.9925
1947.00,2.9949
1946.00,2.9951
1945.00,2.9942
1944.00,2.9928
1943.00,2.9921
1942.00,2.9937
1941.00,2.9977
1940.00,3.0016
1939.00,3.0032
1938.00,3.0034
1937.00,3.0031
1936.00,3.0010
1935.00,2.9956
1934.00,2.9883
1933.00,2.9834
1932.00,2.9831
1931.00,2.9850
1930.00,2.9847
1929.00,2.9796
1928.00,2.9710
1927.00,2.9627
1926.00,2.9567
1925.00,2.9523
1924.00,2.9478
1923.00,2.9428
1922.00,2.9379
1921.00,2.9312
1920.00,2.9198
1919.00,2.9041
1918.00,2.8883
1917.00,2.8758
1916.00,2.8657
1915.00,2.8556
1914.00,2.8454
1913.00,2.8357
1912.00,2.8248
1911.00,2.8100
1910.00,2.7925
1909.00,2.7759
1908.00,2.7621
1907.00,2.7486
1906.00,2.7316
1905.00,2.7112
1904.00,2.6892
1903.00,2.6668
1902.00,2.6440
1901.00,2.6203
1900.00,2.5952
1899.00,2.5687
1898.00,2.5403
1897.00,2.5099
1896.00,2.4779
1895.00,2.4450
1894.00,2.4116
1893.00,2.3770
1892.00,2.3392
1891.00,2.2963
1890.00,2.2484
1889.00,2.1980
1888.00,2.1472
1887.00,2.0957
1886.00,2.0429
1885.00,1.9893
1884.00,1.9360
1883.00,1.8819
1882.00,1.8267
1881.00,1.7716
1880.00,1.7190
1879.00,1.6709
1878.00,1.6281
1877.00,1.5912
1876.00,1.5613
1875.00,1.5385
1874.00,1.5233
1873.00,1.5162
1872.00,1.5165
1871.00,1.5227
1870.00,1.5345
1869.00,1.5533
1868.00,1.5811
1867.00,1.6180
1866.00,1.6611
1865.00,1.7082
1864.00,1.7594
1863.00,1.8140
1862.00,1.8700
1861.00,1.9261
1860.00,1.9821
1859.00,2.0373
1858.00,2.0915
1857.00,2.1445
1856.00,2.1960
1855.00,2.2451
1854.00,2.2917
1853.00,2.3368
1852.00,2.3804
1851.00,2.4220
1850.00,2.4604
1849.00,2.4968
1848.00,2.5323
1847.00,2.5648
1846.00,2.5918
1845.00,2.6149
1844.00,2.6391
1843.00,2.6670
1842.00,2.6968
1841.00,2.7251
1840.00,2.7505
1839.00,2.7744
1838.00,2.7983
1837.00,2.8225
1836.00,2.8455
1835.00,2.8663
1834.00,2.8846
1833.00,2.8991
1832.00,2.9089
1831.00,2.9156
1830.00,2.9220
1829.00,2.9306
1828.00,2.9403
1827.00,2.9469
1826.00,2.9513
1825.00,2.9584
1824.00,2.9706
1823.00,2.9870
1822.00,3.0052
1821.00,3.0223
1820.00,3.0351
1819.00,3.0420
1818.00,3.0467
1817.00,3.0538
1816.00,3.0634
1815.00,3.0728
1814.00,3.0807
1813.00,3.0877
1812.00,3.0947
1811.00,3.1012
1810.00,3.1073
1809.00,3.1131
1808.00,3.1176
1807.00,3.1216
1806.00,3.1259
1805.00,3.1278
1804.00,3.1238
1803.00,3.1144
1802.00,3.1042
1801.00,3.0966
1800.00,3.0923
1799.00,3.0903
1798.00,3.0912
1797.00,3.0963
1796.00,3.1032
1795.00,3.1067
1794.00,3.1013
1793.00,3.0852
1792.00,3.0626
1791.00,3.0427
1790.00,3.0330
1789.00,3.0322
1788.00,3.0350
1787.00,3.0379
1786.00,3.0390
1785.00,3.0369
1784.00,3.0303
1783.00,3.0199
1782.00,3.0083
1781.00,2.9965
1780.00,2.9857
1779.00,2.9742
1778.00,2.9603
1777.00,2.9438
1776.00,2.9263
1775.00,2.9089
1774.00,2.8918
1773.00,2.8757
1772.00,2.8597
1771.00,2.8404
1770.00,2.8149
1769.00,2.7839
1768.00,2.7547
1767.00,2.7334
1766.00,2.7178
1765.00,2.6995
1764.00,2.6728
1763.00,2.6380
1762.00,2.5989
1761.00,2.5589
1760.00,2.5200
1759.00,2.4815
1758.00,2.4423
1757.00,2.4014
1756.00,2.3602
1755.00,2.3205
1754.00,2.2812
1753.00,2.2426
1752.00,2.2077
1751.00,2.1777
1750.00,2.1495
1749.00,2.1209
1748.00,2.0939
1747.00,2.0752
1746.00,2.0693
1745.00,2.0752
1744.00,2.0904
1743.00,2.1106
1742.00,2.1325
1741.00,2.1538
1740.00,2.1756
1739.00,2.2021
1738.00,2.2355
1737.00,2.2701
1736.00,2.3021
1735.00,2.3391
1734.00,2.3911
1733.00,2.4565
1732.00,2.5241
1731.00,2.5823
1730.00,2.6308
1729.00,2.6790
1728.00,2.7341
1727.00,2.7946
1726.00,2.8551
1725.00,2.9132
1724.00,2.9694
1723.00,3.0242
1722.00,3.0788
1721.00,3.1307
1720.00,3.1783
1719.00,3.2313
1718.00,3.3081
1717.00,3.4151
1716.00,3.5296
1715.00,3.6196
1714.00,3.6829
1713.00,3.7376
1712.00,3.7882
1711.00,3.8296
1710.00,3.8640
1709.00,3.8864
1708.00,3.8787
1707.00,3.8308
1706.00,3.7444
1705.00,3.6278
1704.00,3.4970
1703.00,3.3614
1702.00,3.2138
1701.00,3.0483
1700.00,2.8809
1699.00,2.7376
1698.00,2.6345
1697.00,2.5673
1696.00,2.5263
1695.00,2.5111
1694.00,2.5120
1693.00,2.5115
1692.00,2.5113
1691.00,2.5235
1690.00,2.5554
1689.00,2.6015
1688.00,2.6483
1687.00,2.6891
1686.00,2.7291
1685.00,2.7789
1684.00,2.8339
1683.00,2.8776
1682.00,2.8975
1681.00,2.8997
1680.00,2.9143
1679.00,2.9497
1678.00,2.9876
1677.00,3.0109
1676.00,3.0195
1675.00,3.0234
1674.00,3.0299
1673.00,3.0419
1672.00,3.0591
1671.00,3.0756
1670.00,3.0878
1669.00,3.0956
1668.00,3.1022
1667.00,3.1104
1666.00,3.1227
1665.00,3.1401
1664.00,3.1608
1663.00,3.1826
1662.00,3.2016
1661.00,3.2129
1660.00,3.2168
1659.00,3.2191
1658.00,3.2261
1657.00,3.2389
1656.00,3.2512
1655.00,3.2567
1654.00,3.2571
1653.00,3.2571
1652.00,3.2620
1651.00,3.2717
1650.00,3.2691
1649.00,3.2513
1648.00,3.2100
1647.00,3.2325
1646.00,3.2427
1645.00,3.2451
1644.00,3.2552
1643.00,3.2445
1642.00,3.2480
1641.00,3.2494
1640.00,3.2465
1639.00,3.2400
1638.00,3.2241
1637.00,3.2042
1636.00,3.1904
1635.00,3.1869
1634.00,3.1833
1633.00,3.1710
1632.00,3.1595
1631.00,3.1577
1630.00,3.1625
1629.00,3.1635
1628.00,3.1514
1627.00,3.1297
1626.00,3.1089
1625.00,3.0926
1624.00,3.0792
1623.00,3.0679
1622.00,3.0610
1621.00,3.0572
1620.00,3.0499
1619.00,3.0353
1618.00,3.0177
1617.00,3.0050
1616.00,2.9976
1615.00,2.9870
1614.00,2.9628
1613.00,2.9262
1612.00,2.8878
1611.00,2.8567
1610.00,2.8329
1609.00,2.8105
1608.00,2.7865
1607.00,2.7603
1606.00,2.7305
1605.00,2.6943
1604.00,2.6530
1603.00,2.6093
1602.00,2.5652
1601.00,2.5211
1600.00,2.4754
1599.00,2.4274
1598.00,2.3778
1597.00,2.3278
1596.00,2.2779
1595.00,2.2291
1594.00,2.1825
1593.00,2.1388
1592.00,2.0981
1591.00,2.0618
1590.00,2.0318
1589.00,2.0088
1588.00,1.9932
1587.00,1.9853
1586.00,1.9865
1585.00,1.9973
1584.00,2.0171
1583.00,2.0449
1582.00,2.0784
1581.00,2.1170
1580.00,2.1575
1579.00,2.1952
1578.00,2.2318
1577.00,2.2785
1576.00,2.3423
1575.00,2.4131
1574.00,2.4693
1573.00,2.5007
1572.00,2.5186
1571.00,2.5390
1570.00,2.5695
1569.00,2.6068
1568.00,2.6460
1567.00,2.6850
1566.00,2.7247
1565.00,2.7663
1564.00,2.8058
1563.00,2.8385
1562.00,2.8636
1561.00,2.8881
1560.00,2.9155
1559.00,2.9343
1558.00,2.9435
1557.00,2.9582
1556.00,2.9668
1555.00,2.9900
1554.00,3.0297
1553.00,3.0752
1552.00,3.1153
1551.00,3.1398
1550.00,3.1536
1549.00,3.1679
1548.00,3.1832
1547.00,3.1934
1546.00,3.1978
1545.00,3.2028
1544.00,3.2111
1543.00,3.2182
1542.00,3.2186
1541.00,3.2165
1540.00,3.2225
1539.00,3.2447
1538.00,3.2752
1537.00,3.3002
1536.00,3.3160
1535.00,3.3139
1534.00,3.2978
1533.00,3.2834
1532.00,3.2839
1531.00,3.2989
1530.00,3.3238
1529.00,3.3520
1528.00,3.3740
1527.00,3.3863
1526.00,3.3938
1525.00,3.4004
1524.00,3.4020
1523.00,3.3913
1522.00,3.3727
1521.00,3.3612
1520.00,3.3638
1519.00,3.3687
1518.00,3.3683
1517.00,3.3708
1516.00,3.3837
1515.00,3.4020
1514.00,3.4134
1513.00,3.4164
1512.00,3.4172
1511.00,3.4176
1510.00,3.4161
1509.00,3.4102
1508.00,3.3998
1507.00,3.3888
1506.00,3.3872
1505.00,3.3902
1504.00,3.3895
1503.00,3.3973
1502.00,3.3972
1501.00,3.3788
1500.00,3.3519
1499.00,3.3230
1498.00,3.2977
1497.00,3.2836
1496.00,3.2807
1495.00,3.2810
1494.00,3.2792
1493.00,3.2751
1492.00,3.2682
1491.00,3.2543
1490.00,3.2321
1489.00,3.2093
1488.00,3.1935
1487.00,3.1827
1486.00,3.1756
1485.00,3.1711
1484.00,3.1669
1483.00,3.1594
1482.00,3.1483
1481.00,3.1398
1480.00,3.1369
1479.00,3.1330
1478.00,3.1172
1477.00,3.0866
1476.00,3.0498
1475.00,3.0205
1474.00,3.0066
1473.00,3.0063
1472.00,3.0115
1471.00,3.0138
1470.00,3.0128
1469.00,3.0158
1468.00,3.0259
1467.00,3.0391
1466.00,3.0536
1465.00,3.0722
1464.00,3.0989
1463.00,3.1316
1462.00,3.1656
1461.00,3.1972
1460.00,3.2213
1459.00,3.2360
1458.00,3.2480
1457.00,3.2724
1456.00,3.3186
1455.00,3.3813
1454.00,3.4527
1453.00,3.5269
1452.00,3.5900
1451.00,3.6224
1450.00,3.6121
1449.00,3.5723
1448.00,3.5312
1447.00,3.5114
1446.00,3.5189
1445.00,3.5420
1444.00,3.5609
1443.00,3.5600
1442.00,3.5460
1441.00,3.5353
1440.00,3.5329
1439.00,3.5315
1438.00,3.5255
1437.00,3.5172
1436.00,3.5101
1435.00,3.5048
1434.00,3.4993
1433.00,3.4908
1432.00,3.4785
1431.00,3.4660
1430.00,3.4581
1429.00,3.4579
1428.00,3.4635
1427.00,3.4692
1426.00,3.4716
1425.00,3.4738
1424.00,3.4811
1423.00,3.4922
1422.00,3.5024
1421.00,3.5100
1420.00,3.5118
1419.00,3.4965
1418.00,3.4628
1417.00,3.4286
1416.00,3.4076
1415.00,3.4032
1414.00,3.4096
1413.00,3.4164
1412.00,3.4163
1411.00,3.4107
1410.00,3.4058
1409.00,3.4041
1408.00,3.4016
1407.00,3.3936
1406.00,3.3780
1405.00,3.3590
1404.00,3.3445
1403.00,3.3385
1402.00,3.3429
1401.00,3.3565
1400.00,3.3738
1399.00,3.3894
1398.00,3.4025
1397.00,3.4160
1396.00,3.4299
1395.00,3.4394
1394.00,3.4409
1393.00,3.4399
1392.00,3.4472
1391.00,3.4671
1390.00,3.4942
1389.00,3.5199
1388.00,3.5387
1387.00,3.5498
1386.00,3.5570
1385.00,3.5668
1384.00,3.5867
1383.00,3.6216
1382.00,3.6687
1381.00,3.7168
1380.00,3.7510
1379.00,3.7714
1378.00,3.7971
1377.00,3.8326
1376.00,3.8561
1375.00,3.8379
1374.00,3.7773
1373.00,3.7082
1372.00,3.6554
1371.00,3.6216
1370.00,3.6003
1369.00,3.5840
1368.00,3.5681
1367.00,3.5540
1366.00,3.5500
1365.00,3.5611
1364.00,3.5789
1363.00,3.5862
1362.00,3.5741
1361.00,3.5506
1360.00,3.5294
1359.00,3.5185
1358.00,3.5211
1357.00,3.5387
1356.00,3.5687
1355.00,3.6013
1354.00,3.6272
1353.00,3.6462
1352.00,3.6633
1351.00,3.6783
1350.00,3.6856
1349.00,3.6807
1348.00,3.6621
1347.00,3.6325
1346.00,3.6031
1345.00,3.5885
1344.00,3.5984
1343.00,3.6290
1342.00,3.6604
1341.00,3.6699
1340.00,3.6546
1339.00,3.6298
1338.00,3.6072
1337.00,3.5900
1336.00,3.5777
1335.00,3.5690
1334.00,3.5629
1333.00,3.5581
1332.00,3.5524
1331.00,3.5439
1330.00,3.5340
1329.00,3.5267
1328.00,3.5248
1327.00,3.5270
1326.00,3.5285
1325.00,3.5219
1324.00,3.5037
1323.00,3.4797
1322.00,3.4581
1321.00,3.4399
1320.00,3.4209
1319.00,3.3985
1318.00,3.3776
1317.00,3.3674
1316.00,3.3730
1315.00,3.3911
1314.00,3.4125
1313.00,3.4271
1312.00,3.4289
1311.00,3.4189
1310.00,3.4020
1309.00,3.3804
1308.00,3.3520
1307.00,3.3147
1306.00,3.2727
1305.00,3.2324
1304.00,3.1958
1303.00,3.1610
1302.00,3.1257
1301.00,3.0886
1300.00,3.0484
1299.00,3.0041
1298.00,2.9571
1297.00,2.9090
1296.00,2.8591
1295.00,2.8053
1294.00,2.7465
1293.00,2.6845
1292.00,2.6213
1291.00,2.5588
1290.00,2.4991
1289.00,2.4446
1288.00,2.3975
1287.00,2.3590
1286.00,2.3293
1285.00,2.3093
1284.00,2.3008
1283.00,2.3054
1282.00,2.3240
1281.00,2.3559
1280.00,2.3984
1279.00,2.4475
1278.00,2.4983
1277.00,2.5472
1276.00,2.5929
1275.00,2.6356
1274.00,2.6750
1273.00,2.7109
1272.00,2.7446
1271.00,2.7795
1270.00,2.8178
1269.00,2.8596
1268.00,2.9033
1267.00,2.9475
1266.00,2.9914
1265.00,3.0336
1264.00,3.0722
1263.00,3.1058
1262.00,3.1359
1261.00,3.1646
1260.00,3.1936
1259.00,3.2242
1258.00,3.2579
1257.00,3.2941
1256.00,3.3282
1255.00,3.3573
1254.00,3.3875
1253.00,3.4277
1252.00,3.4753
1251.00,3.5136
1250.00,3.5312
1249.00,3.5380
1248.00,3.5510
1247.00,3.5772
1246.00,3.6168
1245.00,3.6682
1244.00,3.7218
1243.00,3.7542
1242.00,3.7508
1241.00,3.7291
1240.00,3.7120
1239.00,3.6987
1238.00,3.6767
1237.00,3.6480
1236.00,3.6305
1235.00,3.6362
1234.00,3.6609
1233.00,3.6922
1232.00,3.7220
1231.00,3.7494
1230.00,3.7766
1229.00,3.8011
1228.00,3.8110
1227.00,3.8027
1226.00,3.7956
1225.00,3.8083
1224.00,3.8370
1223.00,3.8648
1222.00,3.8858
1221.00,3.9171
1220.00,3.9755
1219.00,4.0426
1218.00,4.0774
1217.00,4.0685
1216.00,4.0401
1215.00,4.0150
1214.00,3.9985
1213.00,4.0031
1212.00,4.0546
1211.00,4.1493
1210.00,4.2008
1209.00,4.1407
1208.00,4.0438
1207.00,3.9755
1206.00,3.9325
1205.00,3.8861
1204.00,3.8448
1203.00,3.8327
1202.00,3.8432
1201.00,3.8493
1200.00,3.8425
1199.00,3.8359
1198.00,3.8315
1197.00,3.8226
1196.00,3.8128
1195.00,3.8097
1194.00,3.8078
1193.00,3.7920
1192.00,3.7605
1191.00,3.7260
1190.00,3.6957
1189.00,3.6667
1188.00,3.6380
1187.00,3.6145
1186.00,3.6101
1185.00,3.6366
1184.00,3.6869
1183.00,3.7337
1182.00,3.7392
1181.00,3.6932
1180.00,3.6332
1179.00,3.5908
1178.00,3.5710
1177.00,3.5661
1176.00,3.5657
1175.00,3.5571
1174.00,3.5312
1173.00,3.4907
1172.00,3.4460
1171.00,3.4059
1170.00,3.3730
1169.00,3.3450
1168.00,3.3186
1167.00,3.2905
1166.00,3.2574
1165.00,3.2180
1164.00,3.1746
1163.00,3.1307
1162.00,3.0895
1161.00,3.0515
1160.00,3.0140
1159.00,2.9716
1158.00,2.9202
1157.00,2.8620
1156.00,2.8036
1155.00,2.7508
1154.00,2.7047
1153.00,2.6643
1152.00,2.6297
1151.00,2.6028
1150.00,2.5854
1149.00,2.5772
1148.00,2.5769
1147.00,2.5837
1146.00,2.5982
1145.00,2.6222
1144.00,2.6568
1143.00,2.7014
1142.00,2.7539
1141.00,2.8115
1140.00,2.8719
1139.00,2.9328
1138.00,2.9921
1137.00,3.0482
1136.00,3.0995
1135.00,3.1446
1134.00,3.1865
1133.00,3.2341
1132.00,3.2975
1131.00,3.3803
1130.00,3.4746
1129.00,3.5674
1128.00,3.6527
1127.00,3.7322
1126.00,3.8038
1125.00,3.8575
1124.00,3.8840
1123.00,3.8757
1122.00,3.8304
1121.00,3.7738
1120.00,3.7329
1119.00,3.7021
1118.00,3.6627
1117.00,3.6231
1116.00,3.6127
1115.00,3.6517
1114.00,3.7387
1113.00,3.8415
1112.00,3.9107
1111.00,3.9428
1110.00,3.9719
1109.00,4.0251
1108.00,4.1135
1107.00,4.1361
1106.00,4.0296
1105.00,3.9503
1104.00,3.9329
1103.00,3.9423
1102.00,3.9521
1101.00,3.9269
1100.00,3.8758
1099.00,3.8390
1098.00,3.8272
1097.00,3.8654
1096.00,4.0038
1095.00,4.2398
1094.00,4.3092
1093.00,4.4251
1092.00,4.6519
1091.00,4.2553
1090.00,4.1354
1089.00,4.2258
1088.00,4.3057
1087.00,4.2376
1086.00,4.2699
1085.00,4.6186
1084.00,4.7332
1083.00,4.3961
1082.00,4.3538
1081.00,4.2654
1080.00,4.1529
1079.00,4.2026
1078.00,4.5559
1077.00,4.6427
1076.00,4.2079
1075.00,4.1461
1074.00,4.2760
1073.00,4.4129
1072.00,4.3676
1071.00,4.2855
1070.00,4.1819
1069.00,4.1253
1068.00,4.1886
1067.00,4.3789
1066.00,4.6612
1065.00,4.8120
1064.00,4.6327
1063.00,4.3730
1062.00,4.2773
1061.00,4.3003
1060.00,4.3058
1059.00,4.2163
1058.00,4.1223
1057.00,4.0954
1056.00,4.1082
1055.00,4.0892
1054.00,3.9779
1053.00,3.8368
1052.00,3.7572
1051.00,3.7537
1050.00,3.8147
1049.00,3.9371
1048.00,4.0874
1047.00,4.1172
1046.00,3.9821
1045.00,3.8495
1044.00,3.8027
1043.00,3.8477
1042.00,3.9416
1041.00,3.9841
1040.00,3.9676
1039.00,3.9949
1038.00,4.1119
1037.00,4.3275
1036.00,4.6163
1035.00,4.7484
1034.00,4.6884
1033.00,4.6585
1032.00,4.6351
1031.00,4.4776
1030.00,4.2334
1029.00,4.0357
1028.00,3.9214
1027.00,3.8703
1026.00,3.8406
1025.00,3.8136
1024.00,3.8116
1023.00,3.8640
1022.00,3.9608
1021.00,4.0216
1020.00,3.9900
1019.00,3.9224
1018.00,3.8707
1017.00,3.8442
1016.00,3.8350
1015.00,3.8313
1014.00,3.8174
1013.00,3.7852
1012.00,3.7550
1011.00,3.7485
1010.00,3.7484
1009.00,3.7262
1008.00,3.6835
1007.00,3.6337
1006.00,3.5943
1005.00,3.5662
1004.00,3.5278
1003.00,3.4734
1002.00,3.4172
1001.00,3.3679
1000.00,3.3288
999.00,3.3045
998.00,3.3016
997.00,3.3196
996.00,3.3425
995.00,3.3490
994.00,3.3426
993.00,3.3553
992.00,3.4160
991.00,3.5268
990.00,3.6464
989.00,3.7011
988.00,3.6852
987.00,3.6682
986.00,3.6885
985.00,3.7430
984.00,3.8143
983.00,3.8845
982.00,3.9430
981.00,3.9962
980.00,4.0575
979.00,4.1169
978.00,4.1459
977.00,4.1812
976.00,4.2058
975.00,4.0998
974.00,3.9779
973.00,3.9366
972.00,3.9583
971.00,4.0044
970.00,4.0472
969.00,4.0905
968.00,4.1015
967.00,4.0504
966.00,4.0081
965.00,4.0276
964.00,4.1407
963.00,4.4477
962.00,4.5559
961.00,4.2204
960.00,4.1188
959.00,4.1692
958.00,4.2458
957.00,4.2100
956.00,4.1124
955.00,4.1010
954.00,4.2355
953.00,4.4883
952.00,4.6664
951.00,4.5261
950.00,4.5748
949.00,4.9074
948.00,4.3616
947.00,4.1151
946.00,4.0866
945.00,4.1709
944.00,4.3254
943.00,4.3835
942.00,4.2949
941.00,4.2209
940.00,4.2326
939.00,4.4029
938.00,4.7366
937.00,4.5165
936.00,4.5009
935.00,4.5298
934.00,4.2158
933.00,4.1106
932.00,4.1662
931.00,4.2854
930.00,4.3841
929.00,4.4199
928.00,4.4270
927.00,4.4022
926.00,4.3223
925.00,4.1485
924.00,4.0152
923.00,4.0012
922.00,4.1166
921.00,4.2474
920.00,4.2228
919.00,4.2095
918.00,4.3361
917.00,4.4122
916.00,4.2113
915.00,4.1034
914.00,4.1655
913.00,4.4366
912.00,4.6768
911.00,4.4674
910.00,4.3959
909.00,4.2593
908.00,4.0738
907.00,3.9650
906.00,3.9395
905.00,4.0045
904.00,4.0824
903.00,4.0722
902.00,4.0544
901.00,4.0542
900.00,4.0548
899.00,4.0889
898.00,4.2568
897.00,4.5985
896.00,4.6974
895.00,4.5299
894.00,4.1452
893.00,3.9281
892.00,3.8959
891.00,4.0546
890.00,4.4470
889.00,4.3627
888.00,4.2066
887.00,4.2593
886.00,4.3942
885.00,4.4512
884.00,4.1936
883.00,4.0177
882.00,3.9780
881.00,4.0135
880.00,4.1264
879.00,4.4596
878.00,4.5444
877.00,4.1399
876.00,4.0265
875.00,4.0671
874.00,4.2413
873.00,4.4143
872.00,4.2361
871.00,4.1466
870.00,4.2496
869.00,4.4043
868.00,4.2821
867.00,4.2362
866.00,4.3076
865.00,4.1047
864.00,3.8980
863.00,3.8213
862.00,3.8545
861.00,3.9683
860.00,4.0622
859.00,4.0710
858.00,4.1306
857.00,4.2576
856.00,4.1444
855.00,3.9608
854.00,3.8796
853.00,3.8847
852.00,3.9941
851.00,4.2789
850.00,4.7414
849.00,4.8118
848.00,4.6328
847.00,4.4451
846.00,4.2360
845.00,4.0488
844.00,3.8962
843.00,3.8437
842.00,3.8680
841.00,4.0956
840.00,4.5691
839.00,4.1775
838.00,3.9849
837.00,3.9972
836.00,4.0545
835.00,4.2819
834.00,4.6145
833.00,4.2944
832.00,4.1117
831.00,4.1808
830.00,4.3499
829.00,4.6627
828.00,5.1894
827.00,4.6812
826.00,4.3175
825.00,4.2072
824.00,4.1970
823.00,4.2523
822.00,4.3088
821.00,4.4464
820.00,4.7407
819.00,4.6411
818.00,4.3174
817.00,4.0979
816.00,3.9639
815.00,3.9160
814.00,3.9265
813.00,3.9809
812.00,4.0969
811.00,4.3868
810.00,4.5719
809.00,4.2776
808.00,4.1569
807.00,4.1178
806.00,4.0660
805.00,4.0094
804.00,3.9870
803.00,4.0584
802.00,4.1762
801.00,4.1676
800.00,4.0599
799.00,4.0059
798.00,4.0355
797.00,4.1040
796.00,4.1197
795.00,4.0870
794.00,4.1004
793.00,4.2033
792.00,4.5379
791.00,4.8398
790.00,4.4105
789.00,4.2305
788.00,4.1505
787.00,4.1534
786.00,4.3322
785.00,4.5145
784.00,4.3548
783.00,4.2065
782.00,4.1289
781.00,4.1247
780.00,4.2208
779.00,4.4713
778.00,4.9748
777.00,4.5063
776.00,4.5123
775.00,4.9484
774.00,4.3114
773.00,4.0574
772.00,3.9881
771.00,3.9767
770.00,4.0119
769.00,4.1113
768.00,4.2558
767.00,4.4643
766.00,4.7564
765.00,4.3682
764.00,4.1032
763.00,4.0348
762.00,4.0566
761.00,4.1488
760.00,4.2089
759.00,4.1103
758.00,4.0105
757.00,4.0258
756.00,4.1597
755.00,4.3983
754.00,4.5518
753.00,4.8371
752.00,4.8937
751.00,4.3864
750.00,4.1436
749.00,4.0281
748.00,4.0147
747.00,4.2775
746.00,4.6564
745.00,4.1952
744.00,4.0483
743.00,4.0395
742.00,4.0571
741.00,4.1583
740.00,4.4645
739.00,5.2259
738.00,4.8803
737.00,4.5907
736.00,4.7526
735.00,5.0648
734.00,4.3728
733.00,4.1450
732.00,4.0723
731.00,4.0447
730.00,4.2054
729.00,4.1910
728.00,3.8886
727.00,3.7011
726.00,3.6674
725.00,3.7086
724.00,3.9404
723.00,4.5498
722.00,4.4764
721.00,4.6834
720.00,4.4174
719.00,4.0173
718.00,3.9422
717.00,3.9208
716.00,3.9354
715.00,4.0193
714.00,4.1291
713.00,4.0096
712.00,3.8947
711.00,3.9003
710.00,4.0777
709.00,4.5476
708.00,4.4916
707.00,4.3237
706.00,4.3517
705.00,4.2012
704.00,4.0296
703.00,3.9845
702.00,4.0632
701.00,4.3044
700.00,4.7911
