Created as New Dataset,Sample 046 By Administrator Date Wednesday, November 24 2021
cm-1,A
7502.00,0.8116
7501.00,0.8036
7500.00,0.7958
7499.00,0.7881
7498.00,0.7806
7497.00,0.7731
7496.00,0.7658
7495.00,0.7587
7494.00,0.7516
7493.00,0.7451
7492.00,0.7400
7491.00,0.7365
7490.00,0.7341
7489.00,0.7313
7488.00,0.7266
7487.00,0.7193
7486.00,0.7101
7485.00,0.6998
7484.00,0.6890
7483.00,0.6779
7482.00,0.6671
7481.00,0.6574
7480.00,0.6492
7479.00,0.6422
7478.00,0.6359
7477.00,0.6301
7476.00,0.6245
7475.00,0.6194
7474.00,0.6147
7473.00,0.6105
7472.00,0.6065
7471.00,0.6022
7470.00,0.5971
7469.00,0.5910
7468.00,0.5846
7467.00,0.5784
7466.00,0.5729
7465.00,0.5679
7464.00,0.5630
7463.00,0.5579
7462.00,0.5527
7461.00,0.5476
7460.00,0.5427
7459.00,0.5379
7458.00,0.5334
7457.00,0.5294
7456.00,0.5264
7455.00,0.5243
7454.00,0.5232
7453.00,0.5223
7452.00,0.5214
7451.00,0.5202
7450.00,0.5191
7449.00,0.5186
7448.00,0.5185
7447.00,0.5185
7446.00,0.5186
7445.00,0.5189
7444.00,0.5197
7443.00,0.5209
7442.00,0.5225
7441.00,0.5242
7440.00,0.5263
7439.00,0.5287
7438.00,0.5318
7437.00,0.5355
7436.00,0.5397
7435.00,0.5444
7434.00,0.5495
7433.00,0.5547
7432.00,0.5600
7431.00,0.5656
7430.00,0.5717
7429.00,0.5784
7428.00,0.5855
7427.00,0.5926
7426.00,0.5999
7425.00,0.6078
7424.00,0.6161
7423.00,0.6243
7422.00,0.6322
7421.00,0.6399
7420.00,0.6477
7419.00,0.6558
7418.00,0.6643
7417.00,0.6730
7416.00,0.6818
7415.00,0.6906
7414.00,0.6997
7413.00,0.7093
7412.00,0.7188
7411.00,0.7279
7410.00,0.7366
7409.00,0.7453
7408.00,0.7542
7407.00,0.7631
7406.00,0.7720
7405.00,0.7810
7404.00,0.7905
7403.00,0.8003
7402.00,0.8098
7401.00,0.8187
7400.00,0.8270
7399.00,0.8353
7398.00,0.8439
7397.00,0.8523
7396.00,0.8602
7395.00,0.8678
7394.00,0.8755
7393.00,0.8833
7392.00,0.8904
7391.00,0.8966
7390.00,0.9021
7389.00,0.9078
7388.00,0.9137
7387.00,0.9196
7386.00,0.9255
7385.00,0.9318
7384.00,0.9381
7383.00,0.9440
7382.00,0.9492
7381.00,0.9544
7380.00,0.9597
7379.00,0.9646
7378.00,0.9685
7377.00,0.9714
7376.00,0.9739
7375.00,0.9767
7374.00,0.9793
7373.00,0.9815
7372.00,0.9830
7371.00,0.9843
7370.00,0.9857
7369.00,0.9871
7368.00,0.9879
7367.00,0.9877
7366.00,0.9868
7365.00,0.9860
7364.00,0.9855
7363.00,0.9853
7362.00,0.9847
7361.00,0.9835
7360.00,0.9819
7359.00,0.9798
7358.00,0.9772
7357.00,0.9742
7356.00,0.9708
7355.00,0.9672
7354.00,0.9632
7353.00,0.9589
7352.00,0.9542
7351.00,0.9495
7350.00,0.9448
7349.00,0.9402
7348.00,0.9354
7347.00,0.9303
7346.00,0.9250
7345.00,0.9196
7344.00,0.9140
7343.00,0.9079
7342.00,0.9011
7341.00,0.8937
7340.00,0.8860
7339.00,0.8783
7338.00,0.8704
7337.00,0.8623
7336.00,0.8540
7335.00,0.8455
7334.00,0.8371
7333.00,0.8290
7332.00,0.8212
7331.00,0.8135
7330.00,0.8058
7329.00,0.7983
7328.00,0.7909
7327.00,0.7833
7326.00,0.7754
7325.00,0.7674
7324.00,0.7595
7323.00,0.7517
7322.00,0.7441
7321.00,0.7368
7320.00,0.7299
7319.00,0.7234
7318.00,0.7171
7317.00,0.7112
7316.00,0.7055
7315.00,0.7001
7314.00,0.6947
7313.00,0.6892
7312.00,0.6837
7311.00,0.6786
7310.00,0.6741
7309.00,0.6704
7308.00,0.6671
7307.00,0.6640
7306.00,0.6610
7305.00,0.6587
7304.00,0.6570
7303.00,0.6557
7302.00,0.6546
7301.00,0.6535
7300.00,0.6529
7299.00,0.6531
7298.00,0.6543
7297.00,0.6563
7296.00,0.6587
7295.00,0.6614
7294.00,0.6645
7293.00,0.6682
7292.00,0.6723
7291.00,0.6765
7290.00,0.6804
7289.00,0.6843
7288.00,0.6887
7287.00,0.6938
7286.00,0.6993
7285.00,0.7052
7284.00,0.7114
7283.00,0.7181
7282.00,0.7252
7281.00,0.7327
7280.00,0.7405
7279.00,0.7484
7278.00,0.7564
7277.00,0.7644
7276.00,0.7724
7275.00,0.7804
7274.00,0.7885
7273.00,0.7969
7272.00,0.8055
7271.00,0.8141
7270.00,0.8226
7269.00,0.8311
7268.00,0.8396
7267.00,0.8481
7266.00,0.8564
7265.00,0.8646
7264.00,0.8728
7263.00,0.8810
7262.00,0.8892
7261.00,0.8974
7260.00,0.9054
7259.00,0.9132
7258.00,0.9209
7257.00,0.9286
7256.00,0.9364
7255.00,0.9445
7254.00,0.9525
7253.00,0.9601
7252.00,0.9669
7251.00,0.9732
7250.00,0.9790
7249.00,0.9847
7248.00,0.9902
7247.00,0.9957
7246.00,1.0013
7245.00,1.0068
7244.00,1.0121
7243.00,1.0170
7242.00,1.0217
7241.00,1.0264
7240.00,1.0307
7239.00,1.0344
7238.00,1.0378
7237.00,1.0411
7236.00,1.0442
7235.00,1.0469
7234.00,1.0488
7233.00,1.0501
7232.00,1.0510
7231.00,1.0520
7230.00,1.0529
7229.00,1.0534
7228.00,1.0537
7227.00,1.0539
7226.00,1.0541
7225.00,1.0542
7224.00,1.0535
7223.00,1.0521
7222.00,1.0504
7221.00,1.0488
7220.00,1.0473
7219.00,1.0455
7218.00,1.0432
7217.00,1.0404
7216.00,1.0372
7215.00,1.0336
7214.00,1.0294
7213.00,1.0246
7212.00,1.0194
7211.00,1.0137
7210.00,1.0077
7209.00,1.0017
7208.00,0.9958
7207.00,0.9897
7206.00,0.9833
7205.00,0.9766
7204.00,0.9702
7203.00,0.9641
7202.00,0.9581
7201.00,0.9517
7200.00,0.9448
7199.00,0.9375
7198.00,0.9301
7197.00,0.9226
7196.00,0.9147
7195.00,0.9063
7194.00,0.8979
7193.00,0.8898
7192.00,0.8817
7191.00,0.8735
7190.00,0.8653
7189.00,0.8575
7188.00,0.8500
7187.00,0.8422
7186.00,0.8340
7185.00,0.8256
7184.00,0.8174
7183.00,0.8094
7182.00,0.8014
7181.00,0.7934
7180.00,0.7857
7179.00,0.7785
7178.00,0.7716
7177.00,0.7650
7176.00,0.7587
7175.00,0.7525
7174.00,0.7465
7173.00,0.7407
7172.00,0.7350
7171.00,0.7293
7170.00,0.7237
7169.00,0.7183
7168.00,0.7134
7167.00,0.7090
7166.00,0.7054
7165.00,0.7025
7164.00,0.7002
7163.00,0.6985
7162.00,0.6969
7161.00,0.6955
7160.00,0.6943
7159.00,0.6933
7158.00,0.6926
7157.00,0.6924
7156.00,0.6927
7155.00,0.6936
7154.00,0.6950
7153.00,0.6970
7152.00,0.6996
7151.00,0.7028
7150.00,0.7064
7149.00,0.7102
7148.00,0.7142
7147.00,0.7184
7146.00,0.7231
7145.00,0.7281
7144.00,0.7334
7143.00,0.7391
7142.00,0.7453
7141.00,0.7521
7140.00,0.7594
7139.00,0.7669
7138.00,0.7746
7137.00,0.7823
7136.00,0.7901
7135.00,0.7980
7134.00,0.8062
7133.00,0.8147
7132.00,0.8231
7131.00,0.8315
7130.00,0.8398
7129.00,0.8484
7128.00,0.8571
7127.00,0.8657
7126.00,0.8741
7125.00,0.8825
7124.00,0.8913
7123.00,0.9003
7122.00,0.9093
7121.00,0.9179
7120.00,0.9260
7119.00,0.9343
7118.00,0.9430
7117.00,0.9517
7116.00,0.9599
7115.00,0.9676
7114.00,0.9753
7113.00,0.9832
7112.00,0.9910
7111.00,0.9986
7110.00,1.0059
7109.00,1.0133
7108.00,1.0208
7107.00,1.0285
7106.00,1.0364
7105.00,1.0443
7104.00,1.0516
7103.00,1.0578
7102.00,1.0631
7101.00,1.0685
7100.00,1.0740
7099.00,1.0790
7098.00,1.0832
7097.00,1.0868
7096.00,1.0907
7095.00,1.0950
7094.00,1.0992
7093.00,1.1026
7092.00,1.1054
7091.00,1.1080
7090.00,1.1106
7089.00,1.1131
7088.00,1.1155
7087.00,1.1178
7086.00,1.1199
7085.00,1.1214
7084.00,1.1224
7083.00,1.1230
7082.00,1.1233
7081.00,1.1233
7080.00,1.1228
7079.00,1.1216
7078.00,1.1200
7077.00,1.1186
7076.00,1.1177
7075.00,1.1169
7074.00,1.1157
7073.00,1.1136
7072.00,1.1109
7071.00,1.1073
7070.00,1.1030
7069.00,1.0978
7068.00,1.0923
7067.00,1.0868
7066.00,1.0815
7065.00,1.0763
7064.00,1.0712
7063.00,1.0662
7062.00,1.0609
7061.00,1.0552
7060.00,1.0488
7059.00,1.0421
7058.00,1.0352
7057.00,1.0280
7056.00,1.0205
7055.00,1.0129
7054.00,1.0053
7053.00,0.9976
7052.00,0.9897
7051.00,0.9817
7050.00,0.9734
7049.00,0.9649
7048.00,0.9561
7047.00,0.9468
7046.00,0.9373
7045.00,0.9277
7044.00,0.9182
7043.00,0.9089
7042.00,0.9001
7041.00,0.8918
7040.00,0.8838
7039.00,0.8758
7038.00,0.8678
7037.00,0.8600
7036.00,0.8521
7035.00,0.8442
7034.00,0.8362
7033.00,0.8284
7032.00,0.8209
7031.00,0.8136
7030.00,0.8066
7029.00,0.8000
7028.00,0.7936
7027.00,0.7876
7026.00,0.7818
7025.00,0.7763
7024.00,0.7711
7023.00,0.7663
7022.00,0.7619
7021.00,0.7581
7020.00,0.7547
7019.00,0.7518
7018.00,0.7496
7017.00,0.7478
7016.00,0.7466
7015.00,0.7458
7014.00,0.7454
7013.00,0.7454
7012.00,0.7458
7011.00,0.7467
7010.00,0.7483
7009.00,0.7504
7008.00,0.7530
7007.00,0.7559
7006.00,0.7593
7005.00,0.7633
7004.00,0.7675
7003.00,0.7719
7002.00,0.7766
7001.00,0.7819
7000.00,0.7876
6999.00,0.7936
6998.00,0.7998
6997.00,0.8064
6996.00,0.8135
6995.00,0.8210
6994.00,0.8284
6993.00,0.8359
6992.00,0.8435
6991.00,0.8513
6990.00,0.8593
6989.00,0.8674
6988.00,0.8756
6987.00,0.8838
6986.00,0.8921
6985.00,0.9006
6984.00,0.9091
6983.00,0.9175
6982.00,0.9259
6981.00,0.9343
6980.00,0.9428
6979.00,0.9515
6978.00,0.9601
6977.00,0.9687
6976.00,0.9775
6975.00,0.9862
6974.00,0.9948
6973.00,1.0032
6972.00,1.0113
6971.00,1.0191
6970.00,1.0267
6969.00,1.0341
6968.00,1.0413
6967.00,1.0484
6966.00,1.0554
6965.00,1.0622
6964.00,1.0685
6963.00,1.0743
6962.00,1.0799
6961.00,1.0857
6960.00,1.0916
6959.00,1.0970
6958.00,1.1020
6957.00,1.1067
6956.00,1.1114
6955.00,1.1155
6954.00,1.1188
6953.00,1.1215
6952.00,1.1241
6951.00,1.1268
6950.00,1.1294
6949.00,1.1318
6948.00,1.1342
6947.00,1.1364
6946.00,1.1383
6945.00,1.1394
6944.00,1.1400
6943.00,1.1402
6942.00,1.1402
6941.00,1.1399
6940.00,1.1392
6939.00,1.1382
6938.00,1.1367
6937.00,1.1349
6936.00,1.1329
6935.00,1.1311
6934.00,1.1295
6933.00,1.1278
6932.00,1.1256
6931.00,1.1228
6930.00,1.1198
6929.00,1.1164
6928.00,1.1121
6927.00,1.1069
6926.00,1.1013
6925.00,1.0955
6924.00,1.0898
6923.00,1.0838
6922.00,1.0774
6921.00,1.0706
6920.00,1.0635
6919.00,1.0560
6918.00,1.0484
6917.00,1.0411
6916.00,1.0341
6915.00,1.0270
6914.00,1.0197
6913.00,1.0121
6912.00,1.0042
6911.00,0.9958
6910.00,0.9870
6909.00,0.9779
6908.00,0.9687
6907.00,0.9593
6906.00,0.9497
6905.00,0.9401
6904.00,0.9305
6903.00,0.9211
6902.00,0.9119
6901.00,0.9029
6900.00,0.8943
6899.00,0.8858
6898.00,0.8773
6897.00,0.8688
6896.00,0.8604
6895.00,0.8521
6894.00,0.8440
6893.00,0.8362
6892.00,0.8285
6891.00,0.8210
6890.00,0.8137
6889.00,0.8067
6888.00,0.7999
6887.00,0.7935
6886.00,0.7874
6885.00,0.7818
6884.00,0.7767
6883.00,0.7718
6882.00,0.7672
6881.00,0.7627
6880.00,0.7585
6879.00,0.7546
6878.00,0.7513
6877.00,0.7484
6876.00,0.7461
6875.00,0.7442
6874.00,0.7430
6873.00,0.7422
6872.00,0.7418
6871.00,0.7418
6870.00,0.7423
6869.00,0.7435
6868.00,0.7450
6867.00,0.7468
6866.00,0.7488
6865.00,0.7512
6864.00,0.7540
6863.00,0.7572
6862.00,0.7609
6861.00,0.7652
6860.00,0.7701
6859.00,0.7756
6858.00,0.7816
6857.00,0.7881
6856.00,0.7948
6855.00,0.8015
6854.00,0.8083
6853.00,0.8152
6852.00,0.8224
6851.00,0.8299
6850.00,0.8375
6849.00,0.8453
6848.00,0.8532
6847.00,0.8616
6846.00,0.8703
6845.00,0.8791
6844.00,0.8879
6843.00,0.8968
6842.00,0.9058
6841.00,0.9149
6840.00,0.9238
6839.00,0.9328
6838.00,0.9417
6837.00,0.9507
6836.00,0.9596
6835.00,0.9685
6834.00,0.9775
6833.00,0.9867
6832.00,0.9957
6831.00,1.0045
6830.00,1.0132
6829.00,1.0220
6828.00,1.0305
6827.00,1.0385
6826.00,1.0464
6825.00,1.0543
6824.00,1.0622
6823.00,1.0697
6822.00,1.0770
6821.00,1.0843
6820.00,1.0917
6819.00,1.0988
6818.00,1.1055
6817.00,1.1120
6816.00,1.1187
6815.00,1.1251
6814.00,1.1308
6813.00,1.1359
6812.00,1.1409
6811.00,1.1458
6810.00,1.1506
6809.00,1.1549
6808.00,1.1589
6807.00,1.1626
6806.00,1.1661
6805.00,1.1689
6804.00,1.1712
6803.00,1.1731
6802.00,1.1751
6801.00,1.1771
6800.00,1.1789
6799.00,1.1803
6798.00,1.1811
6797.00,1.1818
6796.00,1.1821
6795.00,1.1821
6794.00,1.1813
6793.00,1.1800
6792.00,1.1783
6791.00,1.1767
6790.00,1.1752
6789.00,1.1734
6788.00,1.1712
6787.00,1.1683
6786.00,1.1648
6785.00,1.1611
6784.00,1.1571
6783.00,1.1528
6782.00,1.1482
6781.00,1.1434
6780.00,1.1387
6779.00,1.1338
6778.00,1.1283
6777.00,1.1218
6776.00,1.1146
6775.00,1.1071
6774.00,1.1000
6773.00,1.0931
6772.00,1.0860
6771.00,1.0785
6770.00,1.0705
6769.00,1.0622
6768.00,1.0537
6767.00,1.0448
6766.00,1.0357
6765.00,1.0268
6764.00,1.0181
6763.00,1.0096
6762.00,1.0009
6761.00,0.9917
6760.00,0.9820
6759.00,0.9723
6758.00,0.9625
6757.00,0.9529
6756.00,0.9432
6755.00,0.9336
6754.00,0.9243
6753.00,0.9152
6752.00,0.9061
6751.00,0.8971
6750.00,0.8882
6749.00,0.8796
6748.00,0.8712
6747.00,0.8629
6746.00,0.8547
6745.00,0.8467
6744.00,0.8388
6743.00,0.8313
6742.00,0.8242
6741.00,0.8176
6740.00,0.8114
6739.00,0.8055
6738.00,0.7999
6737.00,0.7947
6736.00,0.7900
6735.00,0.7858
6734.00,0.7821
6733.00,0.7788
6732.00,0.7761
6731.00,0.7737
6730.00,0.7719
6729.00,0.7707
6728.00,0.7699
6727.00,0.7694
6726.00,0.7694
6725.00,0.7701
6724.00,0.7715
6723.00,0.7735
6722.00,0.7760
6721.00,0.7789
6720.00,0.7824
6719.00,0.7863
6718.00,0.7907
6717.00,0.7955
6716.00,0.8007
6715.00,0.8062
6714.00,0.8120
6713.00,0.8181
6712.00,0.8246
6711.00,0.8313
6710.00,0.8382
6709.00,0.8454
6708.00,0.8528
6707.00,0.8606
6706.00,0.8688
6705.00,0.8774
6704.00,0.8863
6703.00,0.8950
6702.00,0.9035
6701.00,0.9120
6700.00,0.9205
6699.00,0.9289
6698.00,0.9372
6697.00,0.9458
6696.00,0.9547
6695.00,0.9640
6694.00,0.9736
6693.00,0.9832
6692.00,0.9924
6691.00,1.0014
6690.00,1.0101
6689.00,1.0187
6688.00,1.0270
6687.00,1.0352
6686.00,1.0433
6685.00,1.0516
6684.00,1.0597
6683.00,1.0675
6682.00,1.0748
6681.00,1.0818
6680.00,1.0887
6679.00,1.0956
6678.00,1.1023
6677.00,1.1090
6676.00,1.1155
6675.00,1.1218
6674.00,1.1279
6673.00,1.1338
6672.00,1.1394
6671.00,1.1445
6670.00,1.1490
6669.00,1.1530
6668.00,1.1569
6667.00,1.1605
6666.00,1.1635
6665.00,1.1660
6664.00,1.1686
6663.00,1.1716
6662.00,1.1747
6661.00,1.1774
6660.00,1.1796
6659.00,1.1815
6658.00,1.1830
6657.00,1.1838
6656.00,1.1837
6655.00,1.1829
6654.00,1.1819
6653.00,1.1805
6652.00,1.1786
6651.00,1.1762
6650.00,1.1736
6649.00,1.1710
6648.00,1.1685
6647.00,1.1659
6646.00,1.1633
6645.00,1.1606
6644.00,1.1574
6643.00,1.1538
6642.00,1.1499
6641.00,1.1454
6640.00,1.1402
6639.00,1.1342
6638.00,1.1277
6637.00,1.1211
6636.00,1.1144
6635.00,1.1074
6634.00,1.1001
6633.00,1.0927
6632.00,1.0855
6631.00,1.0785
6630.00,1.0711
6629.00,1.0629
6628.00,1.0540
6627.00,1.0450
6626.00,1.0361
6625.00,1.0272
6624.00,1.0181
6623.00,1.0088
6622.00,0.9995
6621.00,0.9903
6620.00,0.9810
6619.00,0.9713
6618.00,0.9613
6617.00,0.9515
6616.00,0.9419
6615.00,0.9323
6614.00,0.9226
6613.00,0.9132
6612.00,0.9039
6611.00,0.8949
6610.00,0.8859
6609.00,0.8770
6608.00,0.8684
6607.00,0.8598
6606.00,0.8515
6605.00,0.8433
6604.00,0.8352
6603.00,0.8273
6602.00,0.8197
6601.00,0.8125
6600.00,0.8056
6599.00,0.7991
6598.00,0.7930
6597.00,0.7874
6596.00,0.7822
6595.00,0.7775
6594.00,0.7731
6593.00,0.7690
6592.00,0.7651
6591.00,0.7615
6590.00,0.7585
6589.00,0.7563
6588.00,0.7547
6587.00,0.7537
6586.00,0.7531
6585.00,0.7528
6584.00,0.7529
6583.00,0.7533
6582.00,0.7541
6581.00,0.7555
6580.00,0.7574
6579.00,0.7600
6578.00,0.7632
6577.00,0.7670
6576.00,0.7713
6575.00,0.7758
6574.00,0.7808
6573.00,0.7861
6572.00,0.7918
6571.00,0.7978
6570.00,0.8042
6569.00,0.8108
6568.00,0.8176
6567.00,0.8248
6566.00,0.8324
6565.00,0.8405
6564.00,0.8489
6563.00,0.8578
6562.00,0.8668
6561.00,0.8758
6560.00,0.8849
6559.00,0.8940
6558.00,0.9031
6557.00,0.9123
6556.00,0.9216
6555.00,0.9312
6554.00,0.9410
6553.00,0.9510
6552.00,0.9609
6551.00,0.9703
6550.00,0.9794
6549.00,0.9882
6548.00,0.9970
6547.00,1.0056
6546.00,1.0143
6545.00,1.0234
6544.00,1.0327
6543.00,1.0421
6542.00,1.0515
6541.00,1.0608
6540.00,1.0697
6539.00,1.0780
6538.00,1.0858
6537.00,1.0934
6536.00,1.1007
6535.00,1.1079
6534.00,1.1150
6533.00,1.1220
6532.00,1.1287
6531.00,1.1350
6530.00,1.1411
6529.00,1.1469
6528.00,1.1525
6527.00,1.1579
6526.00,1.1631
6525.00,1.1681
6524.00,1.1728
6523.00,1.1771
6522.00,1.1812
6521.00,1.1850
6520.00,1.1885
6519.00,1.1916
6518.00,1.1943
6517.00,1.1965
6516.00,1.1985
6515.00,1.2001
6514.00,1.2015
6513.00,1.2027
6512.00,1.2037
6511.00,1.2044
6510.00,1.2049
6509.00,1.2048
6508.00,1.2039
6507.00,1.2024
6506.00,1.2005
6505.00,1.1986
6504.00,1.1967
6503.00,1.1947
6502.00,1.1923
6501.00,1.1896
6500.00,1.1863
6499.00,1.1822
6498.00,1.1774
6497.00,1.1722
6496.00,1.1670
6495.00,1.1619
6494.00,1.1568
6493.00,1.1514
6492.00,1.1454
6491.00,1.1389
6490.00,1.1318
6489.00,1.1243
6488.00,1.1166
6487.00,1.1089
6486.00,1.1013
6485.00,1.0938
6484.00,1.0859
6483.00,1.0776
6482.00,1.0689
6481.00,1.0600
6480.00,1.0509
6479.00,1.0415
6478.00,1.0319
6477.00,1.0221
6476.00,1.0123
6475.00,1.0022
6474.00,0.9920
6473.00,0.9817
6472.00,0.9713
6471.00,0.9609
6470.00,0.9505
6469.00,0.9400
6468.00,0.9296
6467.00,0.9193
6466.00,0.9094
6465.00,0.8996
6464.00,0.8901
6463.00,0.8808
6462.00,0.8716
6461.00,0.8625
6460.00,0.8535
6459.00,0.8447
6458.00,0.8361
6457.00,0.8279
6456.00,0.8201
6455.00,0.8127
6454.00,0.8058
6453.00,0.7995
6452.00,0.7937
6451.00,0.7883
6450.00,0.7833
6449.00,0.7788
6448.00,0.7747
6447.00,0.7710
6446.00,0.7677
6445.00,0.7649
6444.00,0.7625
6443.00,0.7608
6442.00,0.7597
6441.00,0.7593
6440.00,0.7594
6439.00,0.7601
6438.00,0.7614
6437.00,0.7633
6436.00,0.7656
6435.00,0.7685
6434.00,0.7719
6433.00,0.7760
6432.00,0.7807
6431.00,0.7858
6430.00,0.7914
6429.00,0.7973
6428.00,0.8035
6427.00,0.8100
6426.00,0.8166
6425.00,0.8237
6424.00,0.8311
6423.00,0.8387
6422.00,0.8468
6421.00,0.8553
6420.00,0.8641
6419.00,0.8730
6418.00,0.8818
6417.00,0.8906
6416.00,0.8996
6415.00,0.9089
6414.00,0.9183
6413.00,0.9277
6412.00,0.9371
6411.00,0.9465
6410.00,0.9561
6409.00,0.9657
6408.00,0.9752
6407.00,0.9846
6406.00,0.9941
6405.00,1.0037
6404.00,1.0134
6403.00,1.0227
6402.00,1.0317
6401.00,1.0405
6400.00,1.0493
6399.00,1.0582
6398.00,1.0670
6397.00,1.0754
6396.00,1.0834
6395.00,1.0911
6394.00,1.0987
6393.00,1.1061
6392.00,1.1131
6391.00,1.1199
6390.00,1.1264
6389.00,1.1326
6388.00,1.1387
6387.00,1.1446
6386.00,1.1501
6385.00,1.1552
6384.00,1.1601
6383.00,1.1648
6382.00,1.1690
6381.00,1.1725
6380.00,1.1754
6379.00,1.1782
6378.00,1.1810
6377.00,1.1836
6376.00,1.1859
6375.00,1.1880
6374.00,1.1900
6373.00,1.1915
6372.00,1.1924
6371.00,1.1929
6370.00,1.1932
6369.00,1.1933
6368.00,1.1929
6367.00,1.1921
6366.00,1.1911
6365.00,1.1900
6364.00,1.1883
6363.00,1.1858
6362.00,1.1827
6361.00,1.1794
6360.00,1.1760
6359.00,1.1724
6358.00,1.1684
6357.00,1.1640
6356.00,1.1593
6355.00,1.1543
6354.00,1.1492
6353.00,1.1436
6352.00,1.1376
6351.00,1.1315
6350.00,1.1253
6349.00,1.1190
6348.00,1.1124
6347.00,1.1053
6346.00,1.0979
6345.00,1.0906
6344.00,1.0834
6343.00,1.0762
6342.00,1.0689
6341.00,1.0613
6340.00,1.0534
6339.00,1.0453
6338.00,1.0371
6337.00,1.0288
6336.00,1.0203
6335.00,1.0116
6334.00,1.0027
6333.00,0.9937
6332.00,0.9843
6331.00,0.9746
6330.00,0.9647
6329.00,0.9548
6328.00,0.9448
6327.00,0.9346
6326.00,0.9243
6325.00,0.9140
6324.00,0.9034
6323.00,0.8926
6322.00,0.8816
6321.00,0.8707
6320.00,0.8601
6319.00,0.8497
6318.00,0.8396
6317.00,0.8299
6316.00,0.8206
6315.00,0.8116
6314.00,0.8030
6313.00,0.7948
6312.00,0.7870
6311.00,0.7796
6310.00,0.7727
6309.00,0.7665
6308.00,0.7608
6307.00,0.7555
6306.00,0.7508
6305.00,0.7466
6304.00,0.7431
6303.00,0.7403
6302.00,0.7381
6301.00,0.7365
6300.00,0.7354
6299.00,0.7348
6298.00,0.7347
6297.00,0.7351
6296.00,0.7360
6295.00,0.7374
6294.00,0.7394
6293.00,0.7420
6292.00,0.7452
6291.00,0.7489
6290.00,0.7532
6289.00,0.7579
6288.00,0.7632
6287.00,0.7689
6286.00,0.7752
6285.00,0.7819
6284.00,0.7889
6283.00,0.7961
6282.00,0.8037
6281.00,0.8116
6280.00,0.8198
6279.00,0.8280
6278.00,0.8366
6277.00,0.8457
6276.00,0.8551
6275.00,0.8647
6274.00,0.8743
6273.00,0.8839
6272.00,0.8935
6271.00,0.9031
6270.00,0.9128
6269.00,0.9225
6268.00,0.9323
6267.00,0.9422
6266.00,0.9525
6265.00,0.9628
6264.00,0.9729
6263.00,0.9828
6262.00,0.9926
6261.00,1.0026
6260.00,1.0124
6259.00,1.0220
6258.00,1.0314
6257.00,1.0408
6256.00,1.0501
6255.00,1.0591
6254.00,1.0678
6253.00,1.0761
6252.00,1.0844
6251.00,1.0927
6250.00,1.1008
6249.00,1.1087
6248.00,1.1162
6247.00,1.1236
6246.00,1.1308
6245.00,1.1378
6244.00,1.1443
6243.00,1.1501
6242.00,1.1556
6241.00,1.1607
6240.00,1.1655
6239.00,1.1700
6238.00,1.1746
6237.00,1.1793
6236.00,1.1840
6235.00,1.1881
6234.00,1.1917
6233.00,1.1948
6232.00,1.1976
6231.00,1.1998
6230.00,1.2016
6229.00,1.2031
6228.00,1.2043
6227.00,1.2051
6226.00,1.2054
6225.00,1.2054
6224.00,1.2051
6223.00,1.2048
6222.00,1.2046
6221.00,1.2044
6220.00,1.2040
6219.00,1.2031
6218.00,1.2016
6217.00,1.1992
6216.00,1.1959
6215.00,1.1919
6214.00,1.1873
6213.00,1.1825
6212.00,1.1779
6211.00,1.1732
6210.00,1.1684
6209.00,1.1632
6208.00,1.1574
6207.00,1.1512
6206.00,1.1447
6205.00,1.1379
6204.00,1.1308
6203.00,1.1235
6202.00,1.1161
6201.00,1.1084
6200.00,1.1002
6199.00,1.0917
6198.00,1.0830
6197.00,1.0741
6196.00,1.0649
6195.00,1.0552
6194.00,1.0452
6193.00,1.0349
6192.00,1.0244
6191.00,1.0138
6190.00,1.0032
6189.00,0.9926
6188.00,0.9819
6187.00,0.9709
6186.00,0.9598
6185.00,0.9487
6184.00,0.9377
6183.00,0.9267
6182.00,0.9157
6181.00,0.9049
6180.00,0.8940
6179.00,0.8832
6178.00,0.8725
6177.00,0.8621
6176.00,0.8519
6175.00,0.8419
6174.00,0.8321
6173.00,0.8225
6172.00,0.8133
6171.00,0.8043
6170.00,0.7956
6169.00,0.7876
6168.00,0.7800
6167.00,0.7729
6166.00,0.7662
6165.00,0.7599
6164.00,0.7541
6163.00,0.7489
6162.00,0.7443
6161.00,0.7403
6160.00,0.7368
6159.00,0.7339
6158.00,0.7315
6157.00,0.7298
6156.00,0.7288
6155.00,0.7285
6154.00,0.7288
6153.00,0.7297
6152.00,0.7311
6151.00,0.7330
6150.00,0.7354
6149.00,0.7384
6148.00,0.7420
6147.00,0.7462
6146.00,0.7510
6145.00,0.7564
6144.00,0.7622
6143.00,0.7685
6142.00,0.7752
6141.00,0.7823
6140.00,0.7898
6139.00,0.7976
6138.00,0.8058
6137.00,0.8143
6136.00,0.8229
6135.00,0.8317
6134.00,0.8408
6133.00,0.8502
6132.00,0.8597
6131.00,0.8695
6130.00,0.8793
6129.00,0.8893
6128.00,0.8993
6127.00,0.9094
6126.00,0.9194
6125.00,0.9296
6124.00,0.9398
6123.00,0.9500
6122.00,0.9601
6121.00,0.9702
6120.00,0.9802
6119.00,0.9901
6118.00,0.9999
6117.00,1.0097
6116.00,1.0194
6115.00,1.0289
6114.00,1.0383
6113.00,1.0474
6112.00,1.0564
6111.00,1.0652
6110.00,1.0738
6109.00,1.0822
6108.00,1.0903
6107.00,1.0982
6106.00,1.1057
6105.00,1.1130
6104.00,1.1200
6103.00,1.1266
6102.00,1.1329
6101.00,1.1389
6100.00,1.1447
6099.00,1.1502
6098.00,1.1555
6097.00,1.1605
6096.00,1.1653
6095.00,1.1696
6094.00,1.1733
6093.00,1.1765
6092.00,1.1792
6091.00,1.1818
6090.00,1.1839
6089.00,1.1857
6088.00,1.1872
6087.00,1.1887
6086.00,1.1899
6085.00,1.1908
6084.00,1.1913
6083.00,1.1916
6082.00,1.1917
6081.00,1.1912
6080.00,1.1899
6079.00,1.1882
6078.00,1.1862
6077.00,1.1839
6076.00,1.1814
6075.00,1.1786
6074.00,1.1757
6073.00,1.1725
6072.00,1.1686
6071.00,1.1642
6070.00,1.1595
6069.00,1.1547
6068.00,1.1497
6067.00,1.1444
6066.00,1.1388
6065.00,1.1332
6064.00,1.1272
6063.00,1.1208
6062.00,1.1141
6061.00,1.1069
6060.00,1.0995
6059.00,1.0917
6058.00,1.0835
6057.00,1.0750
6056.00,1.0662
6055.00,1.0573
6054.00,1.0484
6053.00,1.0395
6052.00,1.0303
6051.00,1.0209
6050.00,1.0113
6049.00,1.0015
6048.00,0.9913
6047.00,0.9808
6046.00,0.9701
6045.00,0.9594
6044.00,0.9487
6043.00,0.9378
6042.00,0.9270
6041.00,0.9161
6040.00,0.9052
6039.00,0.8943
6038.00,0.8834
6037.00,0.8727
6036.00,0.8621
6035.00,0.8517
6034.00,0.8414
6033.00,0.8313
6032.00,0.8212
6031.00,0.8113
6030.00,0.8016
6029.00,0.7923
6028.00,0.7833
6027.00,0.7746
6026.00,0.7665
6025.00,0.7590
6024.00,0.7520
6023.00,0.7452
6022.00,0.7389
6021.00,0.7332
6020.00,0.7280
6019.00,0.7235
6018.00,0.7195
6017.00,0.7163
6016.00,0.7137
6015.00,0.7118
6014.00,0.7104
6013.00,0.7097
6012.00,0.7096
6011.00,0.7100
6010.00,0.7111
6009.00,0.7129
6008.00,0.7152
6007.00,0.7181
6006.00,0.7217
6005.00,0.7259
6004.00,0.7307
6003.00,0.7360
6002.00,0.7419
6001.00,0.7483
6000.00,0.7552
5999.00,0.7623
5998.00,0.7698
5997.00,0.7777
5996.00,0.7858
5995.00,0.7943
5994.00,0.8031
5993.00,0.8123
5992.00,0.8218
5991.00,0.8316
5990.00,0.8416
5989.00,0.8516
5988.00,0.8617
5987.00,0.8717
5986.00,0.8818
5985.00,0.8920
5984.00,0.9024
5983.00,0.9130
5982.00,0.9236
5981.00,0.9343
5980.00,0.9449
5979.00,0.9554
5978.00,0.9661
5977.00,0.9769
5976.00,0.9877
5975.00,0.9982
5974.00,1.0086
5973.00,1.0188
5972.00,1.0287
5971.00,1.0384
5970.00,1.0481
5969.00,1.0580
5968.00,1.0678
5967.00,1.0775
5966.00,1.0867
5965.00,1.0954
5964.00,1.1038
5963.00,1.1119
5962.00,1.1200
5961.00,1.1279
5960.00,1.1357
5959.00,1.1432
5958.00,1.1504
5957.00,1.1571
5956.00,1.1631
5955.00,1.1686
5954.00,1.1739
5953.00,1.1789
5952.00,1.1836
5951.00,1.1879
5950.00,1.1919
5949.00,1.1956
5948.00,1.1986
5947.00,1.2009
5946.00,1.2028
5945.00,1.2045
5944.00,1.2059
5943.00,1.2072
5942.00,1.2085
5941.00,1.2098
5940.00,1.2109
5939.00,1.2112
5938.00,1.2108
5937.00,1.2097
5936.00,1.2084
5935.00,1.2069
5934.00,1.2052
5933.00,1.2034
5932.00,1.2014
5931.00,1.1992
5930.00,1.1968
5929.00,1.1938
5928.00,1.1902
5927.00,1.1861
5926.00,1.1815
5925.00,1.1765
5924.00,1.1711
5923.00,1.1653
5922.00,1.1593
5921.00,1.1531
5920.00,1.1465
5919.00,1.1395
5918.00,1.1321
5917.00,1.1242
5916.00,1.1161
5915.00,1.1077
5914.00,1.0991
5913.00,1.0903
5912.00,1.0810
5911.00,1.0713
5910.00,1.0613
5909.00,1.0512
5908.00,1.0407
5907.00,1.0300
5906.00,1.0191
5905.00,1.0082
5904.00,0.9973
5903.00,0.9861
5902.00,0.9745
5901.00,0.9627
5900.00,0.9508
5899.00,0.9388
5898.00,0.9268
5897.00,0.9148
5896.00,0.9028
5895.00,0.8910
5894.00,0.8793
5893.00,0.8678
5892.00,0.8564
5891.00,0.8452
5890.00,0.8342
5889.00,0.8236
5888.00,0.8132
5887.00,0.8030
5886.00,0.7932
5885.00,0.7837
5884.00,0.7747
5883.00,0.7659
5882.00,0.7576
5881.00,0.7498
5880.00,0.7424
5879.00,0.7356
5878.00,0.7294
5877.00,0.7239
5876.00,0.7190
5875.00,0.7147
5874.00,0.7111
5873.00,0.7082
5872.00,0.7060
5871.00,0.7044
5870.00,0.7035
5869.00,0.7032
5868.00,0.7037
5867.00,0.7047
5866.00,0.7064
5865.00,0.7089
5864.00,0.7121
5863.00,0.7159
5862.00,0.7203
5861.00,0.7252
5860.00,0.7307
5859.00,0.7367
5858.00,0.7433
5857.00,0.7504
5856.00,0.7581
5855.00,0.7663
5854.00,0.7750
5853.00,0.7841
5852.00,0.7935
5851.00,0.8031
5850.00,0.8130
5849.00,0.8230
5848.00,0.8332
5847.00,0.8435
5846.00,0.8540
5845.00,0.8647
5844.00,0.8755
5843.00,0.8867
5842.00,0.8981
5841.00,0.9095
5840.00,0.9209
5839.00,0.9322
5838.00,0.9433
5837.00,0.9544
5836.00,0.9652
5835.00,0.9759
5834.00,0.9866
5833.00,0.9972
5832.00,1.0078
5831.00,1.0180
5830.00,1.0280
5829.00,1.0378
5828.00,1.0474
5827.00,1.0569
5826.00,1.0663
5825.00,1.0755
5824.00,1.0844
5823.00,1.0931
5822.00,1.1015
5821.00,1.1096
5820.00,1.1173
5819.00,1.1247
5818.00,1.1320
5817.00,1.1392
5816.00,1.1462
5815.00,1.1527
5814.00,1.1589
5813.00,1.1650
5812.00,1.1708
5811.00,1.1762
5810.00,1.1813
5809.00,1.1862
5808.00,1.1908
5807.00,1.1948
5806.00,1.1983
5805.00,1.2015
5804.00,1.2046
5803.00,1.2075
5802.00,1.2101
5801.00,1.2122
5800.00,1.2138
5799.00,1.2147
5798.00,1.2153
5797.00,1.2156
5796.00,1.2158
5795.00,1.2161
5794.00,1.2163
5793.00,1.2161
5792.00,1.2152
5791.00,1.2136
5790.00,1.2115
5789.00,1.2090
5788.00,1.2060
5787.00,1.2025
5786.00,1.1988
5785.00,1.1950
5784.00,1.1908
5783.00,1.1861
5782.00,1.1812
5781.00,1.1761
5780.00,1.1708
5779.00,1.1649
5778.00,1.1585
5777.00,1.1519
5776.00,1.1449
5775.00,1.1375
5774.00,1.1297
5773.00,1.1216
5772.00,1.1133
5771.00,1.1046
5770.00,1.0956
5769.00,1.0862
5768.00,1.0765
5767.00,1.0664
5766.00,1.0560
5765.00,1.0454
5764.00,1.0346
5763.00,1.0236
5762.00,1.0123
5761.00,1.0008
5760.00,0.9890
5759.00,0.9772
5758.00,0.9652
5757.00,0.9532
5756.00,0.9411
5755.00,0.9290
5754.00,0.9169
5753.00,0.9048
5752.00,0.8927
5751.00,0.8806
5750.00,0.8687
5749.00,0.8570
5748.00,0.8454
5747.00,0.8339
5746.00,0.8226
5745.00,0.8116
5744.00,0.8009
5743.00,0.7905
5742.00,0.7804
5741.00,0.7706
5740.00,0.7612
5739.00,0.7522
5738.00,0.7436
5737.00,0.7356
5736.00,0.7282
5735.00,0.7214
5734.00,0.7153
5733.00,0.7099
5732.00,0.7050
5731.00,0.7007
5730.00,0.6971
5729.00,0.6941
5728.00,0.6920
5727.00,0.6905
5726.00,0.6898
5725.00,0.6897
5724.00,0.6904
5723.00,0.6918
5722.00,0.6939
5721.00,0.6967
5720.00,0.7003
5719.00,0.7045
5718.00,0.7093
5717.00,0.7145
5716.00,0.7203
5715.00,0.7265
5714.00,0.7332
5713.00,0.7405
5712.00,0.7484
5711.00,0.7568
5710.00,0.7655
5709.00,0.7746
5708.00,0.7839
5707.00,0.7933
5706.00,0.8030
5705.00,0.8131
5704.00,0.8235
5703.00,0.8343
5702.00,0.8454
5701.00,0.8566
5700.00,0.8678
5699.00,0.8789
5698.00,0.8901
5697.00,0.9014
5696.00,0.9125
5695.00,0.9238
5694.00,0.9352
5693.00,0.9467
5692.00,0.9581
5691.00,0.9693
5690.00,0.9804
5689.00,0.9915
5688.00,1.0025
5687.00,1.0135
5686.00,1.0245
5685.00,1.0354
5684.00,1.0462
5683.00,1.0565
5682.00,1.0665
5681.00,1.0761
5680.00,1.0856
5679.00,1.0949
5678.00,1.1040
5677.00,1.1128
5676.00,1.1213
5675.00,1.1294
5674.00,1.1373
5673.00,1.1449
5672.00,1.1523
5671.00,1.1594
5670.00,1.1663
5669.00,1.1731
5668.00,1.1795
5667.00,1.1852
5666.00,1.1902
5665.00,1.1948
5664.00,1.1991
5663.00,1.2033
5662.00,1.2072
5661.00,1.2109
5660.00,1.2143
5659.00,1.2172
5658.00,1.2197
5657.00,1.2220
5656.00,1.2241
5655.00,1.2261
5654.00,1.2277
5653.00,1.2286
5652.00,1.2289
5651.00,1.2285
5650.00,1.2276
5649.00,1.2264
5648.00,1.2248
5647.00,1.2228
5646.00,1.2206
5645.00,1.2181
5644.00,1.2152
5643.00,1.2122
5642.00,1.2091
5641.00,1.2058
5640.00,1.2018
5639.00,1.1972
5638.00,1.1919
5637.00,1.1862
5636.00,1.1803
5635.00,1.1740
5634.00,1.1673
5633.00,1.1604
5632.00,1.1533
5631.00,1.1458
5630.00,1.1378
5629.00,1.1295
5628.00,1.1208
5627.00,1.1118
5626.00,1.1026
5625.00,1.0930
5624.00,1.0830
5623.00,1.0725
5622.00,1.0616
5621.00,1.0503
5620.00,1.0388
5619.00,1.0271
5618.00,1.0152
5617.00,1.0032
5616.00,0.9910
5615.00,0.9787
5614.00,0.9662
5613.00,0.9535
5612.00,0.9407
5611.00,0.9279
5610.00,0.9150
5609.00,0.9020
5608.00,0.8891
5607.00,0.8764
5606.00,0.8639
5605.00,0.8517
5604.00,0.8396
5603.00,0.8275
5602.00,0.8156
5601.00,0.8040
5600.00,0.7927
5599.00,0.7818
5598.00,0.7714
5597.00,0.7615
5596.00,0.7521
5595.00,0.7432
5594.00,0.7347
5593.00,0.7268
5592.00,0.7195
5591.00,0.7128
5590.00,0.7069
5589.00,0.7017
5588.00,0.6973
5587.00,0.6935
5586.00,0.6905
5585.00,0.6882
5584.00,0.6867
5583.00,0.6859
5582.00,0.6860
5581.00,0.6869
5580.00,0.6886
5579.00,0.6909
5578.00,0.6940
5577.00,0.6978
5576.00,0.7024
5575.00,0.7076
5574.00,0.7134
5573.00,0.7199
5572.00,0.7270
5571.00,0.7346
5570.00,0.7428
5569.00,0.7515
5568.00,0.7608
5567.00,0.7705
5566.00,0.7806
5565.00,0.7909
5564.00,0.8016
5563.00,0.8125
5562.00,0.8238
5561.00,0.8352
5560.00,0.8469
5559.00,0.8587
5558.00,0.8707
5557.00,0.8829
5556.00,0.8952
5555.00,0.9075
5554.00,0.9197
5553.00,0.9319
5552.00,0.9440
5551.00,0.9561
5550.00,0.9682
5549.00,0.9802
5548.00,0.9922
5547.00,1.0042
5546.00,1.0160
5545.00,1.0275
5544.00,1.0387
5543.00,1.0498
5542.00,1.0608
5541.00,1.0718
5540.00,1.0825
5539.00,1.0930
5538.00,1.1033
5537.00,1.1133
5536.00,1.1226
5535.00,1.1316
5534.00,1.1405
5533.00,1.1494
5532.00,1.1582
5531.00,1.1666
5530.00,1.1747
5529.00,1.1822
5528.00,1.1890
5527.00,1.1951
5526.00,1.2008
5525.00,1.2065
5524.00,1.2121
5523.00,1.2176
5522.00,1.2227
5521.00,1.2274
5520.00,1.2315
5519.00,1.2349
5518.00,1.2378
5517.00,1.2403
5516.00,1.2426
5515.00,1.2447
5514.00,1.2465
5513.00,1.2481
5512.00,1.2494
5511.00,1.2502
5510.00,1.2508
5509.00,1.2512
5508.00,1.2513
5507.00,1.2508
5506.00,1.2499
5505.00,1.2484
5504.00,1.2463
5503.00,1.2438
5502.00,1.2408
5501.00,1.2374
5500.00,1.2337
5499.00,1.2294
5498.00,1.2249
5497.00,1.2203
5496.00,1.2155
5495.00,1.2104
5494.00,1.2049
5493.00,1.1989
5492.00,1.1923
5491.00,1.1850
5490.00,1.1772
5489.00,1.1691
5488.00,1.1610
5487.00,1.1526
5486.00,1.1439
5485.00,1.1349
5484.00,1.1255
5483.00,1.1156
5482.00,1.1052
5481.00,1.0945
5480.00,1.0835
5479.00,1.0721
5478.00,1.0604
5477.00,1.0484
5476.00,1.0359
5475.00,1.0231
5474.00,1.0100
5473.00,0.9968
5472.00,0.9835
5471.00,0.9701
5470.00,0.9566
5469.00,0.9432
5468.00,0.9297
5467.00,0.9162
5466.00,0.9028
5465.00,0.8894
5464.00,0.8760
5463.00,0.8627
5462.00,0.8493
5461.00,0.8361
5460.00,0.8231
5459.00,0.8102
5458.00,0.7976
5457.00,0.7855
5456.00,0.7740
5455.00,0.7631
5454.00,0.7527
5453.00,0.7430
5452.00,0.7337
5451.00,0.7250
5450.00,0.7168
5449.00,0.7093
5448.00,0.7024
5447.00,0.6962
5446.00,0.6906
5445.00,0.6857
5444.00,0.6816
5443.00,0.6783
5442.00,0.6759
5441.00,0.6745
5440.00,0.6742
5439.00,0.6748
5438.00,0.6763
5437.00,0.6786
5436.00,0.6816
5435.00,0.6854
5434.00,0.6899
5433.00,0.6951
5432.00,0.7009
5431.00,0.7071
5430.00,0.7140
5429.00,0.7217
5428.00,0.7302
5427.00,0.7394
5426.00,0.7489
5425.00,0.7589
5424.00,0.7692
5423.00,0.7800
5422.00,0.7912
5421.00,0.8029
5420.00,0.8148
5419.00,0.8269
5418.00,0.8390
5417.00,0.8510
5416.00,0.8631
5415.00,0.8753
5414.00,0.8879
5413.00,0.9007
5412.00,0.9136
5411.00,0.9265
5410.00,0.9394
5409.00,0.9524
5408.00,0.9655
5407.00,0.9787
5406.00,0.9918
5405.00,1.0048
5404.00,1.0175
5403.00,1.0301
5402.00,1.0425
5401.00,1.0547
5400.00,1.0667
5399.00,1.0783
5398.00,1.0896
5397.00,1.1004
5396.00,1.1108
5395.00,1.1212
5394.00,1.1314
5393.00,1.1415
5392.00,1.1515
5391.00,1.1611
5390.00,1.1705
5389.00,1.1793
5388.00,1.1877
5387.00,1.1958
5386.00,1.2036
5385.00,1.2111
5384.00,1.2181
5383.00,1.2247
5382.00,1.2311
5381.00,1.2371
5380.00,1.2428
5379.00,1.2480
5378.00,1.2528
5377.00,1.2572
5376.00,1.2611
5375.00,1.2647
5374.00,1.2681
5373.00,1.2711
5372.00,1.2737
5371.00,1.2758
5370.00,1.2775
5369.00,1.2788
5368.00,1.2799
5367.00,1.2808
5366.00,1.2815
5365.00,1.2818
5364.00,1.2815
5363.00,1.2805
5362.00,1.2789
5361.00,1.2768
5360.00,1.2743
5359.00,1.2716
5358.00,1.2687
5357.00,1.2655
5356.00,1.2618
5355.00,1.2573
5354.00,1.2522
5353.00,1.2468
5352.00,1.2410
5351.00,1.2351
5350.00,1.2291
5349.00,1.2230
5348.00,1.2166
5347.00,1.2097
5346.00,1.2022
5345.00,1.1942
5344.00,1.1857
5343.00,1.1767
5342.00,1.1672
5341.00,1.1574
5340.00,1.1471
5339.00,1.1363
5338.00,1.1253
5337.00,1.1141
5336.00,1.1026
5335.00,1.0908
5334.00,1.0788
5333.00,1.0664
5332.00,1.0539
5331.00,1.0412
5330.00,1.0282
5329.00,1.0150
5328.00,1.0015
5327.00,0.9876
5326.00,0.9736
5325.00,0.9594
5324.00,0.9452
5323.00,0.9310
5322.00,0.9170
5321.00,0.9032
5320.00,0.8895
5319.00,0.8759
5318.00,0.8626
5317.00,0.8493
5316.00,0.8362
5315.00,0.8233
5314.00,0.8108
5313.00,0.7990
5312.00,0.7876
5311.00,0.7767
5310.00,0.7664
5309.00,0.7566
5308.00,0.7472
5307.00,0.7385
5306.00,0.7304
5305.00,0.7231
5304.00,0.7165
5303.00,0.7108
5302.00,0.7058
5301.00,0.7018
5300.00,0.6988
5299.00,0.6966
5298.00,0.6954
5297.00,0.6951
5296.00,0.6958
5295.00,0.6972
5294.00,0.6995
5293.00,0.7026
5292.00,0.7066
5291.00,0.7113
5290.00,0.7169
5289.00,0.7231
5288.00,0.7299
5287.00,0.7373
5286.00,0.7453
5285.00,0.7541
5284.00,0.7636
5283.00,0.7738
5282.00,0.7845
5281.00,0.7955
5280.00,0.8069
5279.00,0.8186
5278.00,0.8306
5277.00,0.8429
5276.00,0.8555
5275.00,0.8683
5274.00,0.8812
5273.00,0.8943
5272.00,0.9075
5271.00,0.9208
5270.00,0.9343
5269.00,0.9480
5268.00,0.9615
5267.00,0.9748
5266.00,0.9879
5265.00,1.0008
5264.00,1.0139
5263.00,1.0271
5262.00,1.0402
5261.00,1.0532
5260.00,1.0657
5259.00,1.0778
5258.00,1.0897
5257.00,1.1015
5256.00,1.1133
5255.00,1.1251
5254.00,1.1368
5253.00,1.1481
5252.00,1.1588
5251.00,1.1688
5250.00,1.1785
5249.00,1.1878
5248.00,1.1970
5247.00,1.2058
5246.00,1.2143
5245.00,1.2222
5244.00,1.2297
5243.00,1.2369
5242.00,1.2441
5241.00,1.2512
5240.00,1.2582
5239.00,1.2648
5238.00,1.2710
5237.00,1.2767
5236.00,1.2819
5235.00,1.2867
5234.00,1.2909
5233.00,1.2946
5232.00,1.2979
5231.00,1.3007
5230.00,1.3032
5229.00,1.3055
5228.00,1.3073
5227.00,1.3086
5226.00,1.3094
5225.00,1.3099
5224.00,1.3104
5223.00,1.3107
5222.00,1.3106
5221.00,1.3101
5220.00,1.3090
5219.00,1.3074
5218.00,1.3056
5217.00,1.3036
5216.00,1.3013
5215.00,1.2987
5214.00,1.2955
5213.00,1.2915
5212.00,1.2866
5211.00,1.2812
5210.00,1.2753
5209.00,1.2692
5208.00,1.2629
5207.00,1.2564
5206.00,1.2495
5205.00,1.2423
5204.00,1.2347
5203.00,1.2266
5202.00,1.2183
5201.00,1.2098
5200.00,1.2011
5199.00,1.1921
5198.00,1.1828
5197.00,1.1731
5196.00,1.1630
5195.00,1.1523
5194.00,1.1412
5193.00,1.1294
5192.00,1.1171
5191.00,1.1043
5190.00,1.0912
5189.00,1.0777
5188.00,1.0640
5187.00,1.0499
5186.00,1.0355
5185.00,1.0209
5184.00,1.0060
5183.00,0.9909
5182.00,0.9756
5181.00,0.9603
5180.00,0.9449
5179.00,0.9296
5178.00,0.9144
5177.00,0.8996
5176.00,0.8849
5175.00,0.8704
5174.00,0.8560
5173.00,0.8418
5172.00,0.8279
5171.00,0.8143
5170.00,0.8012
5169.00,0.7886
5168.00,0.7767
5167.00,0.7654
5166.00,0.7548
5165.00,0.7451
5164.00,0.7360
5163.00,0.7276
5162.00,0.7199
5161.00,0.7129
5160.00,0.7067
5159.00,0.7014
5158.00,0.6971
5157.00,0.6937
5156.00,0.6913
5155.00,0.6898
5154.00,0.6893
5153.00,0.6897
5152.00,0.6910
5151.00,0.6933
5150.00,0.6965
5149.00,0.7006
5148.00,0.7055
5147.00,0.7112
5146.00,0.7178
5145.00,0.7252
5144.00,0.7333
5143.00,0.7421
5142.00,0.7514
5141.00,0.7614
5140.00,0.7718
5139.00,0.7827
5138.00,0.7941
5137.00,0.8060
5136.00,0.8184
5135.00,0.8312
5134.00,0.8442
5133.00,0.8574
5132.00,0.8707
5131.00,0.8844
5130.00,0.8983
5129.00,0.9125
5128.00,0.9268
5127.00,0.9411
5126.00,0.9555
5125.00,0.9698
5124.00,0.9840
5123.00,0.9982
5122.00,1.0124
5121.00,1.0265
5120.00,1.0405
5119.00,1.0544
5118.00,1.0682
5117.00,1.0816
5116.00,1.0948
5115.00,1.1077
5114.00,1.1205
5113.00,1.1332
5112.00,1.1458
5111.00,1.1581
5110.00,1.1699
5109.00,1.1813
5108.00,1.1921
5107.00,1.2024
5106.00,1.2124
5105.00,1.2220
5104.00,1.2315
5103.00,1.2406
5102.00,1.2496
5101.00,1.2583
5100.00,1.2666
5099.00,1.2744
5098.00,1.2818
5097.00,1.2889
5096.00,1.2956
5095.00,1.3017
5094.00,1.3073
5093.00,1.3123
5092.00,1.3171
5091.00,1.3215
5090.00,1.3257
5089.00,1.3297
5088.00,1.3333
5087.00,1.3364
5086.00,1.3391
5085.00,1.3414
5084.00,1.3433
5083.00,1.3448
5082.00,1.3458
5081.00,1.3465
5080.00,1.3468
5079.00,1.3465
5078.00,1.3457
5077.00,1.3443
5076.00,1.3426
5075.00,1.3408
5074.00,1.3388
5073.00,1.3367
5072.00,1.3340
5071.00,1.3306
5070.00,1.3265
5069.00,1.3218
5068.00,1.3167
5067.00,1.3115
5066.00,1.3061
5065.00,1.3004
5064.00,1.2943
5063.00,1.2877
5062.00,1.2806
5061.00,1.2732
5060.00,1.2652
5059.00,1.2567
5058.00,1.2478
5057.00,1.2386
5056.00,1.2288
5055.00,1.2186
5054.00,1.2079
5053.00,1.1969
5052.00,1.1854
5051.00,1.1734
5050.00,1.1610
5049.00,1.1484
5048.00,1.1356
5047.00,1.1224
5046.00,1.1089
5045.00,1.0949
5044.00,1.0806
5043.00,1.0658
5042.00,1.0507
5041.00,1.0354
5040.00,1.0200
5039.00,1.0045
5038.00,0.9889
5037.00,0.9733
5036.00,0.9577
5035.00,0.9420
5034.00,0.9263
5033.00,0.9109
5032.00,0.8956
5031.00,0.8806
5030.00,0.8658
5029.00,0.8513
5028.00,0.8372
5027.00,0.8233
5026.00,0.8100
5025.00,0.7973
5024.00,0.7852
5023.00,0.7738
5022.00,0.7631
5021.00,0.7531
5020.00,0.7439
5019.00,0.7355
5018.00,0.7279
5017.00,0.7212
5016.00,0.7155
5015.00,0.7108
5014.00,0.7071
5013.00,0.7045
5012.00,0.7029
5011.00,0.7024
5010.00,0.7029
5009.00,0.7044
5008.00,0.7070
5007.00,0.7105
5006.00,0.7150
5005.00,0.7205
5004.00,0.7269
5003.00,0.7341
5002.00,0.7422
5001.00,0.7510
5000.00,0.7605
4999.00,0.7706
4998.00,0.7814
4997.00,0.7927
4996.00,0.8044
4995.00,0.8167
4994.00,0.8293
4993.00,0.8424
4992.00,0.8559
4991.00,0.8696
4990.00,0.8836
4989.00,0.8977
4988.00,0.9120
4987.00,0.9265
4986.00,0.9413
4985.00,0.9561
4984.00,0.9710
4983.00,0.9858
4982.00,1.0006
4981.00,1.0153
4980.00,1.0300
4979.00,1.0445
4978.00,1.0589
4977.00,1.0729
4976.00,1.0868
4975.00,1.1004
4974.00,1.1142
4973.00,1.1282
4972.00,1.1421
4971.00,1.1557
4970.00,1.1688
4969.00,1.1814
4968.00,1.1937
4967.00,1.2056
4966.00,1.2171
4965.00,1.2283
4964.00,1.2391
4963.00,1.2494
4962.00,1.2592
4961.00,1.2687
4960.00,1.2779
4959.00,1.2869
4958.00,1.2958
4957.00,1.3044
4956.00,1.3126
4955.00,1.3200
4954.00,1.3267
4953.00,1.3328
4952.00,1.3384
4951.00,1.3438
4950.00,1.3491
4949.00,1.3542
4948.00,1.3590
4947.00,1.3632
4946.00,1.3670
4945.00,1.3702
4944.00,1.3728
4943.00,1.3749
4942.00,1.3765
4941.00,1.3777
4940.00,1.3786
4939.00,1.3792
4938.00,1.3796
4937.00,1.3796
4936.00,1.3792
4935.00,1.3783
4934.00,1.3769
4933.00,1.3752
4932.00,1.3733
4931.00,1.3710
4930.00,1.3683
4929.00,1.3651
4928.00,1.3612
4927.00,1.3567
4926.00,1.3517
4925.00,1.3464
4924.00,1.3408
4923.00,1.3349
4922.00,1.3286
4921.00,1.3221
4920.00,1.3152
4919.00,1.3079
4918.00,1.3000
4917.00,1.2915
4916.00,1.2824
4915.00,1.2727
4914.00,1.2626
4913.00,1.2521
4912.00,1.2413
4911.00,1.2300
4910.00,1.2184
4909.00,1.2063
4908.00,1.1938
4907.00,1.1807
4906.00,1.1673
4905.00,1.1535
4904.00,1.1393
4903.00,1.1248
4902.00,1.1098
4901.00,1.0946
4900.00,1.0790
4899.00,1.0632
4898.00,1.0471
4897.00,1.0310
4896.00,1.0146
4895.00,0.9981
4894.00,0.9814
4893.00,0.9648
4892.00,0.9483
4891.00,0.9319
4890.00,0.9157
4889.00,0.8997
4888.00,0.8840
4887.00,0.8686
4886.00,0.8536
4885.00,0.8389
4884.00,0.8247
4883.00,0.8110
4882.00,0.7977
4881.00,0.7851
4880.00,0.7732
4879.00,0.7620
4878.00,0.7517
4877.00,0.7423
4876.00,0.7337
4875.00,0.7261
4874.00,0.7194
4873.00,0.7136
4872.00,0.7089
4871.00,0.7052
4870.00,0.7027
4869.00,0.7013
4868.00,0.7010
4867.00,0.7017
4866.00,0.7036
4865.00,0.7067
4864.00,0.7108
4863.00,0.7159
4862.00,0.7219
4861.00,0.7288
4860.00,0.7367
4859.00,0.7455
4858.00,0.7552
4857.00,0.7657
4856.00,0.7768
4855.00,0.7885
4854.00,0.8007
4853.00,0.8135
4852.00,0.8268
4851.00,0.8405
4850.00,0.8547
4849.00,0.8693
4848.00,0.8842
4847.00,0.8993
4846.00,0.9146
4845.00,0.9300
4844.00,0.9456
4843.00,0.9614
4842.00,0.9772
4841.00,0.9932
4840.00,1.0092
4839.00,1.0251
4838.00,1.0409
4837.00,1.0566
4836.00,1.0721
4835.00,1.0874
4834.00,1.1025
4833.00,1.1175
4832.00,1.1323
4831.00,1.1469
4830.00,1.1613
4829.00,1.1754
4828.00,1.1891
4827.00,1.2024
4826.00,1.2154
4825.00,1.2280
4824.00,1.2404
4823.00,1.2525
4822.00,1.2643
4821.00,1.2756
4820.00,1.2864
4819.00,1.2966
4818.00,1.3062
4817.00,1.3155
4816.00,1.3247
4815.00,1.3335
4814.00,1.3420
4813.00,1.3500
4812.00,1.3575
4811.00,1.3646
4810.00,1.3714
4809.00,1.3778
4808.00,1.3836
4807.00,1.3889
4806.00,1.3937
4805.00,1.3982
4804.00,1.4023
4803.00,1.4060
4802.00,1.4090
4801.00,1.4114
4800.00,1.4134
4799.00,1.4152
4798.00,1.4169
4797.00,1.4186
4796.00,1.4199
4795.00,1.4207
4794.00,1.4208
4793.00,1.4203
4792.00,1.4192
4791.00,1.4177
4790.00,1.4159
4789.00,1.4139
4788.00,1.4117
4787.00,1.4090
4786.00,1.4059
4785.00,1.4023
4784.00,1.3981
4783.00,1.3934
4782.00,1.3883
4781.00,1.3830
4780.00,1.3772
4779.00,1.3711
4778.00,1.3645
4777.00,1.3575
4776.00,1.3499
4775.00,1.3419
4774.00,1.3334
4773.00,1.3244
4772.00,1.3148
4771.00,1.3047
4770.00,1.2942
4769.00,1.2832
4768.00,1.2719
4767.00,1.2601
4766.00,1.2477
4765.00,1.2347
4764.00,1.2214
4763.00,1.2077
4762.00,1.1937
4761.00,1.1792
4760.00,1.1642
4759.00,1.1488
4758.00,1.1329
4757.00,1.1167
4756.00,1.1002
4755.00,1.0835
4754.00,1.0665
4753.00,1.0492
4752.00,1.0317
4751.00,1.0141
4750.00,0.9965
4749.00,0.9790
4748.00,0.9615
4747.00,0.9442
4746.00,0.9269
4745.00,0.9098
4744.00,0.8929
4743.00,0.8764
4742.00,0.8603
4741.00,0.8447
4740.00,0.8298
4739.00,0.8155
4738.00,0.8019
4737.00,0.7890
4736.00,0.7769
4735.00,0.7656
4734.00,0.7553
4733.00,0.7459
4732.00,0.7376
4731.00,0.7303
4730.00,0.7242
4729.00,0.7193
4728.00,0.7156
4727.00,0.7131
4726.00,0.7117
4725.00,0.7116
4724.00,0.7126
4723.00,0.7148
4722.00,0.7184
4721.00,0.7232
4720.00,0.7291
4719.00,0.7361
4718.00,0.7440
4717.00,0.7529
4716.00,0.7627
4715.00,0.7732
4714.00,0.7846
4713.00,0.7968
4712.00,0.8096
4711.00,0.8231
4710.00,0.8371
4709.00,0.8516
4708.00,0.8666
4707.00,0.8819
4706.00,0.8975
4705.00,0.9135
4704.00,0.9297
4703.00,0.9460
4702.00,0.9625
4701.00,0.9791
4700.00,0.9957
4699.00,1.0125
4698.00,1.0292
4697.00,1.0458
4696.00,1.0623
4695.00,1.0787
4694.00,1.0950
4693.00,1.1112
4692.00,1.1273
4691.00,1.1430
4690.00,1.1586
4689.00,1.1740
4688.00,1.1891
4687.00,1.2039
4686.00,1.2182
4685.00,1.2320
4684.00,1.2454
4683.00,1.2586
4682.00,1.2715
4681.00,1.2843
4680.00,1.2966
4679.00,1.3084
4678.00,1.3196
4677.00,1.3305
4676.00,1.3410
4675.00,1.3512
4674.00,1.3607
4673.00,1.3697
4672.00,1.3780
4671.00,1.3860
4670.00,1.3936
4669.00,1.4010
4668.00,1.4082
4667.00,1.4150
4666.00,1.4212
4665.00,1.4269
4664.00,1.4321
4663.00,1.4367
4662.00,1.4407
4661.00,1.4443
4660.00,1.4475
4659.00,1.4503
4658.00,1.4528
4657.00,1.4550
4656.00,1.4568
4655.00,1.4581
4654.00,1.4589
4653.00,1.4594
4652.00,1.4596
4651.00,1.4594
4650.00,1.4587
4649.00,1.4573
4648.00,1.4555
4647.00,1.4532
4646.00,1.4507
4645.00,1.4479
4644.00,1.4447
4643.00,1.4410
4642.00,1.4368
4641.00,1.4320
4640.00,1.4268
4639.00,1.4212
4638.00,1.4151
4637.00,1.4085
4636.00,1.4015
4635.00,1.3942
4634.00,1.3864
4633.00,1.3782
4632.00,1.3695
4631.00,1.3602
4630.00,1.3503
4629.00,1.3398
4628.00,1.3290
4627.00,1.3178
4626.00,1.3063
4625.00,1.2942
4624.00,1.2817
4623.00,1.2687
4622.00,1.2554
4621.00,1.2417
4620.00,1.2276
4619.00,1.2132
4618.00,1.1984
4617.00,1.1833
4616.00,1.1679
4615.00,1.1521
4614.00,1.1359
4613.00,1.1193
4612.00,1.1024
4611.00,1.0852
4610.00,1.0677
4609.00,1.0501
4608.00,1.0323
4607.00,1.0143
4606.00,0.9962
4605.00,0.9780
4604.00,0.9599
4603.00,0.9419
4602.00,0.9241
4601.00,0.9067
4600.00,0.8896
4599.00,0.8729
4598.00,0.8567
4597.00,0.8410
4596.00,0.8261
4595.00,0.8119
4594.00,0.7985
4593.00,0.7860
4592.00,0.7745
4591.00,0.7639
4590.00,0.7544
4589.00,0.7460
4588.00,0.7388
4587.00,0.7329
4586.00,0.7283
4585.00,0.7249
4584.00,0.7228
4583.00,0.7220
4582.00,0.7226
4581.00,0.7246
4580.00,0.7279
4579.00,0.7324
4578.00,0.7382
4577.00,0.7451
4576.00,0.7531
4575.00,0.7622
4574.00,0.7723
4573.00,0.7834
4572.00,0.7953
4571.00,0.8079
4570.00,0.8213
4569.00,0.8355
4568.00,0.8503
4567.00,0.8657
4566.00,0.8815
4565.00,0.8977
4564.00,0.9142
4563.00,0.9310
4562.00,0.9480
4561.00,0.9653
4560.00,0.9828
4559.00,1.0005
4558.00,1.0182
4557.00,1.0360
4556.00,1.0537
4555.00,1.0713
4554.00,1.0889
4553.00,1.1064
4552.00,1.1237
4551.00,1.1409
4550.00,1.1578
4549.00,1.1745
4548.00,1.1909
4547.00,1.2070
4546.00,1.2229
4545.00,1.2384
4544.00,1.2535
4543.00,1.2682
4542.00,1.2824
4541.00,1.2961
4540.00,1.3095
4539.00,1.3226
4538.00,1.3354
4537.00,1.3480
4536.00,1.3601
4535.00,1.3715
4534.00,1.3823
4533.00,1.3926
4532.00,1.4025
4531.00,1.4121
4530.00,1.4213
4529.00,1.4300
4528.00,1.4383
4527.00,1.4461
4526.00,1.4535
4525.00,1.4606
4524.00,1.4671
4523.00,1.4731
4522.00,1.4788
4521.00,1.4841
4520.00,1.4890
4519.00,1.4934
4518.00,1.4972
4517.00,1.5004
4516.00,1.5030
4515.00,1.5051
4514.00,1.5070
4513.00,1.5087
4512.00,1.5101
4511.00,1.5109
4510.00,1.5112
4509.00,1.5110
4508.00,1.5105
4507.00,1.5098
4506.00,1.5087
4505.00,1.5071
4504.00,1.5047
4503.00,1.5016
4502.00,1.4982
4501.00,1.4945
4500.00,1.4907
4499.00,1.4866
4498.00,1.4819
4497.00,1.4767
4496.00,1.4709
4495.00,1.4646
4494.00,1.4579
4493.00,1.4507
4492.00,1.4429
4491.00,1.4344
4490.00,1.4255
4489.00,1.4162
4488.00,1.4066
4487.00,1.3966
4486.00,1.3861
4485.00,1.3750
4484.00,1.3633
4483.00,1.3513
4482.00,1.3391
4481.00,1.3266
4480.00,1.3137
4479.00,1.3001
4478.00,1.2860
4477.00,1.2713
4476.00,1.2562
4475.00,1.2404
4474.00,1.2241
4473.00,1.2072
4472.00,1.1901
4471.00,1.1727
4470.00,1.1551
4469.00,1.1373
4468.00,1.1193
4467.00,1.1011
4466.00,1.0829
4465.00,1.0648
4464.00,1.0468
4463.00,1.0289
4462.00,1.0112
4461.00,0.9939
4460.00,0.9771
4459.00,0.9609
4458.00,0.9454
4457.00,0.9308
4456.00,0.9170
4455.00,0.9041
4454.00,0.8920
4453.00,0.8811
4452.00,0.8713
4451.00,0.8629
4450.00,0.8557
4449.00,0.8499
4448.00,0.8453
4447.00,0.8419
4446.00,0.8398
4445.00,0.8389
4444.00,0.8390
4443.00,0.8400
4442.00,0.8418
4441.00,0.8441
4440.00,0.8469
4439.00,0.8499
4438.00,0.8531
4437.00,0.8564
4436.00,0.8598
4435.00,0.8633
4434.00,0.8670
4433.00,0.8710
4432.00,0.8755
4431.00,0.8807
4430.00,0.8867
4429.00,0.8937
4428.00,0.9017
4427.00,0.9107
4426.00,0.9207
4425.00,0.9318
4424.00,0.9440
4423.00,0.9572
4422.00,0.9713
4421.00,0.9862
4420.00,1.0017
4419.00,1.0178
4418.00,1.0344
4417.00,1.0515
4416.00,1.0690
4415.00,1.0868
4414.00,1.1047
4413.00,1.1226
4412.00,1.1405
4411.00,1.1586
4410.00,1.1767
4409.00,1.1947
4408.00,1.2126
4407.00,1.2301
4406.00,1.2474
4405.00,1.2645
4404.00,1.2812
4403.00,1.2975
4402.00,1.3134
4401.00,1.3288
4400.00,1.3437
4399.00,1.3578
4398.00,1.3713
4397.00,1.3840
4396.00,1.3962
4395.00,1.4080
4394.00,1.4193
4393.00,1.4301
4392.00,1.4403
4391.00,1.4500
4390.00,1.4592
4389.00,1.4682
4388.00,1.4769
4387.00,1.4855
4386.00,1.4939
4385.00,1.5022
4384.00,1.5101
4383.00,1.5175
4382.00,1.5243
4381.00,1.5306
4380.00,1.5366
4379.00,1.5421
4378.00,1.5473
4377.00,1.5521
4376.00,1.5565
4375.00,1.5605
4374.00,1.5640
4373.00,1.5669
4372.00,1.5694
4371.00,1.5715
4370.00,1.5735
4369.00,1.5754
4368.00,1.5771
4367.00,1.5782
4366.00,1.5788
4365.00,1.5787
4364.00,1.5780
4363.00,1.5768
4362.00,1.5752
4361.00,1.5736
4360.00,1.5719
4359.00,1.5701
4358.00,1.5679
4357.00,1.5650
4356.00,1.5613
4355.00,1.5568
4354.00,1.5518
4353.00,1.5464
4352.00,1.5405
4351.00,1.5342
4350.00,1.5274
4349.00,1.5200
4348.00,1.5122
4347.00,1.5041
4346.00,1.4956
4345.00,1.4868
4344.00,1.4776
4343.00,1.4680
4342.00,1.4579
4341.00,1.4473
4340.00,1.4361
4339.00,1.4243
4338.00,1.4118
4337.00,1.3987
4336.00,1.3850
4335.00,1.3710
4334.00,1.3566
4333.00,1.3417
4332.00,1.3262
4331.00,1.3100
4330.00,1.2933
4329.00,1.2762
4328.00,1.2590
4327.00,1.2416
4326.00,1.2238
4325.00,1.2057
4324.00,1.1872
4323.00,1.1684
4322.00,1.1495
4321.00,1.1304
4320.00,1.1110
4319.00,1.0914
4318.00,1.0714
4317.00,1.0511
4316.00,1.0306
4315.00,1.0098
4314.00,0.9891
4313.00,0.9685
4312.00,0.9484
4311.00,0.9287
4310.00,0.9097
4309.00,0.8913
4308.00,0.8738
4307.00,0.8571
4306.00,0.8416
4305.00,0.8272
4304.00,0.8141
4303.00,0.8022
4302.00,0.7916
4301.00,0.7824
4300.00,0.7748
4299.00,0.7687
4298.00,0.7642
4297.00,0.7613
4296.00,0.7599
4295.00,0.7602
4294.00,0.7620
4293.00,0.7655
4292.00,0.7704
4291.00,0.7769
4290.00,0.7847
4289.00,0.7938
4288.00,0.8040
4287.00,0.8154
4286.00,0.8278
4285.00,0.8413
4284.00,0.8556
4283.00,0.8708
4282.00,0.8868
4281.00,0.9034
4280.00,0.9205
4279.00,0.9381
4278.00,0.9562
4277.00,0.9747
4276.00,0.9936
4275.00,1.0127
4274.00,1.0320
4273.00,1.0515
4272.00,1.0709
4271.00,1.0902
4270.00,1.1096
4269.00,1.1289
4268.00,1.1482
4267.00,1.1675
4266.00,1.1867
4265.00,1.2056
4264.00,1.2243
4263.00,1.2426
4262.00,1.2605
4261.00,1.2781
4260.00,1.2952
4259.00,1.3120
4258.00,1.3286
4257.00,1.3449
4256.00,1.3608
4255.00,1.3763
4254.00,1.3912
4253.00,1.4056
4252.00,1.4194
4251.00,1.4325
4250.00,1.4451
4249.00,1.4573
4248.00,1.4693
4247.00,1.4809
4246.00,1.4920
4245.00,1.5025
4244.00,1.5123
4243.00,1.5216
4242.00,1.5304
4241.00,1.5388
4240.00,1.5468
4239.00,1.5543
4238.00,1.5615
4237.00,1.5681
4236.00,1.5743
4235.00,1.5800
4234.00,1.5852
4233.00,1.5899
4232.00,1.5942
4231.00,1.5979
4230.00,1.6010
4229.00,1.6034
4228.00,1.6054
4227.00,1.6070
4226.00,1.6085
4225.00,1.6098
4224.00,1.6108
4223.00,1.6113
4222.00,1.6114
4221.00,1.6111
4220.00,1.6104
4219.00,1.6092
4218.00,1.6074
4217.00,1.6050
4216.00,1.6021
4215.00,1.5989
4214.00,1.5955
4213.00,1.5919
4212.00,1.5878
4211.00,1.5830
4210.00,1.5774
4209.00,1.5711
4208.00,1.5644
4207.00,1.5574
4206.00,1.5502
4205.00,1.5428
4204.00,1.5349
4203.00,1.5266
4202.00,1.5176
4201.00,1.5080
4200.00,1.4976
4199.00,1.4865
4198.00,1.4748
4197.00,1.4627
4196.00,1.4502
4195.00,1.4372
4194.00,1.4237
4193.00,1.4095
4192.00,1.3946
4191.00,1.3789
4190.00,1.3626
4189.00,1.3458
4188.00,1.3286
4187.00,1.3110
4186.00,1.2928
4185.00,1.2740
4184.00,1.2545
4183.00,1.2346
4182.00,1.2141
4181.00,1.1932
4180.00,1.1719
4179.00,1.1503
4178.00,1.1284
4177.00,1.1063
4176.00,1.0841
4175.00,1.0619
4174.00,1.0399
4173.00,1.0181
4172.00,0.9965
4171.00,0.9753
4170.00,0.9546
4169.00,0.9344
4168.00,0.9149
4167.00,0.8963
4166.00,0.8784
4165.00,0.8616
4164.00,0.8458
4163.00,0.8311
4162.00,0.8178
4161.00,0.8057
4160.00,0.7951
4159.00,0.7861
4158.00,0.7786
4157.00,0.7727
4156.00,0.7686
4155.00,0.7661
4154.00,0.7654
4153.00,0.7665
4152.00,0.7692
4151.00,0.7736
4150.00,0.7797
4149.00,0.7873
4148.00,0.7965
4147.00,0.8070
4146.00,0.8188
4145.00,0.8319
4144.00,0.8461
4143.00,0.8613
4142.00,0.8774
4141.00,0.8944
4140.00,0.9122
4139.00,0.9306
4138.00,0.9497
4137.00,0.9692
4136.00,0.9891
4135.00,1.0094
4134.00,1.0300
4133.00,1.0507
4132.00,1.0717
4131.00,1.0927
4130.00,1.1136
4129.00,1.1345
4128.00,1.1552
4127.00,1.1757
4126.00,1.1961
4125.00,1.2163
4124.00,1.2364
4123.00,1.2563
4122.00,1.2761
4121.00,1.2956
4120.00,1.3146
4119.00,1.3331
4118.00,1.3510
4117.00,1.3686
4116.00,1.3858
4115.00,1.4026
4114.00,1.4189
4113.00,1.4347
4112.00,1.4501
4111.00,1.4650
4110.00,1.4792
4109.00,1.4928
4108.00,1.5057
4107.00,1.5181
4106.00,1.5298
4105.00,1.5411
4104.00,1.5519
4103.00,1.5623
4102.00,1.5721
4101.00,1.5814
4100.00,1.5900
4099.00,1.5982
4098.00,1.6062
4097.00,1.6141
4096.00,1.6215
4095.00,1.6283
4094.00,1.6342
4093.00,1.6394
4092.00,1.6441
4091.00,1.6482
4090.00,1.6520
4089.00,1.6555
4088.00,1.6587
4087.00,1.6615
4086.00,1.6640
4085.00,1.6662
4084.00,1.6680
4083.00,1.6693
4082.00,1.6700
4081.00,1.6701
4080.00,1.6698
4079.00,1.6691
4078.00,1.6681
4077.00,1.6668
4076.00,1.6650
4075.00,1.6628
4074.00,1.6601
4073.00,1.6567
4072.00,1.6527
4071.00,1.6484
4070.00,1.6439
4069.00,1.6393
4068.00,1.6342
4067.00,1.6287
4066.00,1.6226
4065.00,1.6160
4064.00,1.6090
4063.00,1.6016
4062.00,1.5935
4061.00,1.5845
4060.00,1.5748
4059.00,1.5645
4058.00,1.5537
4057.00,1.5426
4056.00,1.5311
4055.00,1.5191
4054.00,1.5066
4053.00,1.4936
4052.00,1.4800
4051.00,1.4657
4050.00,1.4508
4049.00,1.4352
4048.00,1.4191
4047.00,1.4025
4046.00,1.3854
4045.00,1.3677
4044.00,1.3493
4043.00,1.3303
4042.00,1.3109
4041.00,1.2912
4040.00,1.2711
4039.00,1.2508
4038.00,1.2304
4037.00,1.2099
4036.00,1.1895
4035.00,1.1690
4034.00,1.1487
4033.00,1.1284
4032.00,1.1083
4031.00,1.0884
4030.00,1.0687
4029.00,1.0492
4028.00,1.0297
4027.00,1.0103
4026.00,0.9910
4025.00,0.9718
4024.00,0.9529
4023.00,0.9343
4022.00,0.9165
4021.00,0.8994
4020.00,0.8834
4019.00,0.8686
4018.00,0.8549
4017.00,0.8427
4016.00,0.8319
4015.00,0.8228
4014.00,0.8155
4013.00,0.8100
4012.00,0.8065
4011.00,0.8047
4010.00,0.8049
4009.00,0.8070
4008.00,0.8111
4007.00,0.8171
4006.00,0.8248
4005.00,0.8344
4004.00,0.8455
4003.00,0.8583
4002.00,0.8725
4001.00,0.8879
4000.00,0.9044
3999.00,0.9218
3998.00,0.9401
3997.00,0.9593
3996.00,0.9792
3995.00,0.9998
3994.00,1.0210
3993.00,1.0427
3992.00,1.0646
3991.00,1.0868
3990.00,1.1092
3989.00,1.1318
3988.00,1.1545
3987.00,1.1772
3986.00,1.1997
3985.00,1.2221
3984.00,1.2441
3983.00,1.2657
3982.00,1.2869
3981.00,1.3078
3980.00,1.3284
3979.00,1.3486
3978.00,1.3683
3977.00,1.3873
3976.00,1.4056
3975.00,1.4233
3974.00,1.4405
3973.00,1.4573
3972.00,1.4734
3971.00,1.4887
3970.00,1.5033
3969.00,1.5172
3968.00,1.5307
3967.00,1.5441
3966.00,1.5570
3965.00,1.5695
3964.00,1.5815
3963.00,1.5931
3962.00,1.6043
3961.00,1.6153
3960.00,1.6259
3959.00,1.6360
3958.00,1.6455
3957.00,1.6544
3956.00,1.6626
3955.00,1.6702
3954.00,1.6771
3953.00,1.6836
3952.00,1.6897
3951.00,1.6954
3950.00,1.7008
3949.00,1.7057
3948.00,1.7103
3947.00,1.7146
3946.00,1.7187
3945.00,1.7224
3944.00,1.7257
3943.00,1.7284
3942.00,1.7307
3941.00,1.7324
3940.00,1.7336
3939.00,1.7344
3938.00,1.7347
3937.00,1.7344
3936.00,1.7335
3935.00,1.7323
3934.00,1.7310
3933.00,1.7294
3932.00,1.7276
3931.00,1.7253
3930.00,1.7225
3929.00,1.7191
3928.00,1.7150
3927.00,1.7103
3926.00,1.7050
3925.00,1.6994
3924.00,1.6935
3923.00,1.6874
3922.00,1.6806
3921.00,1.6732
3920.00,1.6653
3919.00,1.6570
3918.00,1.6482
3917.00,1.6389
3916.00,1.6291
3915.00,1.6187
3914.00,1.6079
3913.00,1.5963
3912.00,1.5840
3911.00,1.5710
3910.00,1.5574
3909.00,1.5432
3908.00,1.5288
3907.00,1.5138
3906.00,1.4980
3905.00,1.4812
3904.00,1.4635
3903.00,1.4451
3902.00,1.4258
3901.00,1.4056
3900.00,1.3843
3899.00,1.3623
3898.00,1.3400
3897.00,1.3176
3896.00,1.2951
3895.00,1.2721
3894.00,1.2485
3893.00,1.2239
3892.00,1.1980
3891.00,1.1712
3890.00,1.1445
3889.00,1.1189
3888.00,1.0942
3887.00,1.0696
3886.00,1.0440
3885.00,1.0182
3884.00,0.9933
3883.00,0.9702
3882.00,0.9480
3881.00,0.9261
3880.00,0.9045
3879.00,0.8844
3878.00,0.8667
3877.00,0.8513
3876.00,0.8377
3875.00,0.8255
3874.00,0.8146
3873.00,0.8056
3872.00,0.7985
3871.00,0.7934
3870.00,0.7900
3869.00,0.7885
3868.00,0.7891
3867.00,0.7921
3866.00,0.7978
3865.00,0.8064
3864.00,0.8171
3863.00,0.8292
3862.00,0.8425
3861.00,0.8570
3860.00,0.8730
3859.00,0.8904
3858.00,0.9085
3857.00,0.9265
3856.00,0.9446
3855.00,0.9642
3854.00,0.9871
3853.00,1.0137
3852.00,1.0419
3851.00,1.0682
3850.00,1.0911
3849.00,1.1125
3848.00,1.1345
3847.00,1.1575
3846.00,1.1810
3845.00,1.2049
3844.00,1.2288
3843.00,1.2526
3842.00,1.2757
3841.00,1.2979
3840.00,1.3192
3839.00,1.3402
3838.00,1.3617
3837.00,1.3837
3836.00,1.4056
3835.00,1.4267
3834.00,1.4472
3833.00,1.4675
3832.00,1.4877
3831.00,1.5074
3830.00,1.5263
3829.00,1.5441
3828.00,1.5609
3827.00,1.5769
3826.00,1.5923
3825.00,1.6068
3824.00,1.6199
3823.00,1.6319
3822.00,1.6437
3821.00,1.6561
3820.00,1.6684
3819.00,1.6793
3818.00,1.6881
3817.00,1.6962
3816.00,1.7049
3815.00,1.7142
3814.00,1.7235
3813.00,1.7323
3812.00,1.7406
3811.00,1.7486
3810.00,1.7560
3809.00,1.7626
3808.00,1.7683
3807.00,1.7731
3806.00,1.7774
3805.00,1.7808
3804.00,1.7831
3803.00,1.7847
3802.00,1.7863
3801.00,1.7879
3800.00,1.7888
3799.00,1.7890
3798.00,1.7889
3797.00,1.7895
3796.00,1.7906
3795.00,1.7915
3794.00,1.7920
3793.00,1.7920
3792.00,1.7916
3791.00,1.7906
3790.00,1.7892
3789.00,1.7871
3788.00,1.7840
3787.00,1.7800
3786.00,1.7751
3785.00,1.7694
3784.00,1.7631
3783.00,1.7564
3782.00,1.7495
3781.00,1.7421
3780.00,1.7341
3779.00,1.7257
3778.00,1.7169
3777.00,1.7077
3776.00,1.6980
3775.00,1.6882
3774.00,1.6784
3773.00,1.6682
3772.00,1.6569
3771.00,1.6444
3770.00,1.6307
3769.00,1.6160
3768.00,1.6004
3767.00,1.5842
3766.00,1.5673
3765.00,1.5499
3764.00,1.5322
3763.00,1.5145
3762.00,1.4964
3761.00,1.4773
3760.00,1.4564
3759.00,1.4340
3758.00,1.4104
3757.00,1.3862
3756.00,1.3621
3755.00,1.3386
3754.00,1.3152
3753.00,1.2907
3752.00,1.2639
3751.00,1.2343
3750.00,1.2026
3749.00,1.1708
3748.00,1.1413
3747.00,1.1153
3746.00,1.0915
3745.00,1.0667
3744.00,1.0400
3743.00,1.0143
3742.00,0.9924
3741.00,0.9737
3740.00,0.9565
3739.00,0.9399
3738.00,0.9241
3737.00,0.9092
3736.00,0.8949
3735.00,0.8816
3734.00,0.8699
3733.00,0.8602
3732.00,0.8518
3731.00,0.8449
3730.00,0.8404
3729.00,0.8388
3728.00,0.8403
3727.00,0.8446
3726.00,0.8515
3725.00,0.8602
3724.00,0.8703
3723.00,0.8818
3722.00,0.8952
3721.00,0.9106
3720.00,0.9277
3719.00,0.9465
3718.00,0.9671
3717.00,0.9895
3716.00,1.0108
3715.00,1.0312
3714.00,1.0546
3713.00,1.0805
3712.00,1.1077
3711.00,1.1369
3710.00,1.1646
3709.00,1.1955
3708.00,1.2291
3707.00,1.2580
3706.00,1.2865
3705.00,1.3139
3704.00,1.3407
3703.00,1.3670
3702.00,1.3935
3701.00,1.4206
3700.00,1.4474
3699.00,1.4731
3698.00,1.4973
3697.00,1.5206
3696.00,1.5433
3695.00,1.5651
3694.00,1.5857
3693.00,1.6050
3692.00,1.6235
3691.00,1.6412
3690.00,1.6588
3689.00,1.6763
3688.00,1.6936
3687.00,1.7097
3686.00,1.7245
3685.00,1.7389
3684.00,1.7532
3683.00,1.7671
3682.00,1.7800
3681.00,1.7920
3680.00,1.8031
3679.00,1.8133
3678.00,1.8223
3677.00,1.8303
3676.00,1.8379
3675.00,1.8452
3674.00,1.8518
3673.00,1.8573
3672.00,1.8624
3671.00,1.8679
3670.00,1.8739
3669.00,1.8794
3668.00,1.8844
3667.00,1.8889
3666.00,1.8935
3665.00,1.8985
3664.00,1.9034
3663.00,1.9072
3662.00,1.9099
3661.00,1.9119
3660.00,1.9138
3659.00,1.9155
3658.00,1.9170
3657.00,1.9180
3656.00,1.9185
3655.00,1.9184
3654.00,1.9181
3653.00,1.9176
3652.00,1.9165
3651.00,1.9144
3650.00,1.9114
3649.00,1.9080
3648.00,1.9042
3647.00,1.8994
3646.00,1.8941
3645.00,1.8901
3644.00,1.8878
3643.00,1.8861
3642.00,1.8840
3641.00,1.8810
3640.00,1.8772
3639.00,1.8727
3638.00,1.8679
3637.00,1.8631
3636.00,1.8582
3635.00,1.8527
3634.00,1.8463
3633.00,1.8394
3632.00,1.8322
3631.00,1.8246
3630.00,1.8159
3629.00,1.8053
3628.00,1.7936
3627.00,1.7819
3626.00,1.7702
3625.00,1.7582
3624.00,1.7460
3623.00,1.7335
3622.00,1.7206
3621.00,1.7073
3620.00,1.6933
3619.00,1.6784
3618.00,1.6628
3617.00,1.6468
3616.00,1.6305
3615.00,1.6137
3614.00,1.5956
3613.00,1.5745
3612.00,1.5508
3611.00,1.5272
3610.00,1.5075
3609.00,1.4928
3608.00,1.4809
3607.00,1.4679
3606.00,1.4518
3605.00,1.4333
3604.00,1.4137
3603.00,1.3942
3602.00,1.3746
3601.00,1.3551
3600.00,1.3356
3599.00,1.3162
3598.00,1.2973
3597.00,1.2793
3596.00,1.2622
3595.00,1.2461
3594.00,1.2309
3593.00,1.2167
3592.00,1.2037
3591.00,1.1921
3590.00,1.1819
3589.00,1.1729
3588.00,1.1654
3587.00,1.1591
3586.00,1.1542
3585.00,1.1504
3584.00,1.1478
3583.00,1.1469
3582.00,1.1475
3581.00,1.1500
3580.00,1.1544
3579.00,1.1611
3578.00,1.1699
3577.00,1.1803
3576.00,1.1920
3575.00,1.2050
3574.00,1.2194
3573.00,1.2350
3572.00,1.2514
3571.00,1.2685
3570.00,1.2863
3569.00,1.3051
3568.00,1.3252
3567.00,1.3463
3566.00,1.3679
3565.00,1.3890
3564.00,1.4092
3563.00,1.4286
3562.00,1.4479
3561.00,1.4672
3560.00,1.4870
3559.00,1.5071
3558.00,1.5272
3557.00,1.5471
3556.00,1.5664
3555.00,1.5850
3554.00,1.6031
3553.00,1.6210
3552.00,1.6389
3551.00,1.6562
3550.00,1.6726
3549.00,1.6882
3548.00,1.7034
3547.00,1.7184
3546.00,1.7334
3545.00,1.7484
3544.00,1.7631
3543.00,1.7769
3542.00,1.7896
3541.00,1.8012
3540.00,1.8122
3539.00,1.8227
3538.00,1.8332
3537.00,1.8436
3536.00,1.8539
3535.00,1.8639
3534.00,1.8733
3533.00,1.8823
3532.00,1.8908
3531.00,1.8987
3530.00,1.9060
3529.00,1.9128
3528.00,1.9194
3527.00,1.9257
3526.00,1.9315
3525.00,1.9373
3524.00,1.9430
3523.00,1.9489
3522.00,1.9546
3521.00,1.9597
3520.00,1.9640
3519.00,1.9672
3518.00,1.9698
3517.00,1.9725
3516.00,1.9753
3515.00,1.9778
3514.00,1.9798
3513.00,1.9811
3512.00,1.9819
3511.00,1.9823
3510.00,1.9824
3509.00,1.9822
3508.00,1.9818
3507.00,1.9811
3506.00,1.9799
3505.00,1.9782
3504.00,1.9759
3503.00,1.9735
3502.00,1.9709
3501.00,1.9684
3500.00,1.9656
3499.00,1.9620
3498.00,1.9576
3497.00,1.9524
3496.00,1.9467
3495.00,1.9406
3494.00,1.9341
3493.00,1.9274
3492.00,1.9203
3491.00,1.9128
3490.00,1.9047
3489.00,1.8962
3488.00,1.8873
3487.00,1.8781
3486.00,1.8685
3485.00,1.8585
3484.00,1.8480
3483.00,1.8369
3482.00,1.8253
3481.00,1.8131
3480.00,1.8002
3479.00,1.7863
3478.00,1.7716
3477.00,1.7564
3476.00,1.7407
3475.00,1.7242
3474.00,1.7070
3473.00,1.6892
3472.00,1.6710
3471.00,1.6522
3470.00,1.6326
3469.00,1.6122
3468.00,1.5911
3467.00,1.5692
3466.00,1.5465
3465.00,1.5230
3464.00,1.4991
3463.00,1.4747
3462.00,1.4499
3461.00,1.4247
3460.00,1.3992
3459.00,1.3737
3458.00,1.3483
3457.00,1.3231
3456.00,1.2980
3455.00,1.2732
3454.00,1.2489
3453.00,1.2253
3452.00,1.2027
3451.00,1.1813
3450.00,1.1610
3449.00,1.1420
3448.00,1.1244
3447.00,1.1082
3446.00,1.0936
3445.00,1.0810
3444.00,1.0705
3443.00,1.0622
3442.00,1.0562
3441.00,1.0526
3440.00,1.0511
3439.00,1.0520
3438.00,1.0551
3437.00,1.0604
3436.00,1.0680
3435.00,1.0777
3434.00,1.0892
3433.00,1.1026
3432.00,1.1177
3431.00,1.1343
3430.00,1.1523
3429.00,1.1715
3428.00,1.1919
3427.00,1.2132
3426.00,1.2353
3425.00,1.2581
3424.00,1.2816
3423.00,1.3056
3422.00,1.3300
3421.00,1.3547
3420.00,1.3795
3419.00,1.4042
3418.00,1.4287
3417.00,1.4530
3416.00,1.4773
3415.00,1.5015
3414.00,1.5255
3413.00,1.5491
3412.00,1.5721
3411.00,1.5947
3410.00,1.6168
3409.00,1.6383
3408.00,1.6591
3407.00,1.6792
3406.00,1.6987
3405.00,1.7175
3404.00,1.7358
3403.00,1.7534
3402.00,1.7705
3401.00,1.7868
3400.00,1.8025
3399.00,1.8176
3398.00,1.8321
3397.00,1.8460
3396.00,1.8593
3395.00,1.8722
3394.00,1.8846
3393.00,1.8965
3392.00,1.9078
3391.00,1.9181
3390.00,1.9276
3389.00,1.9365
3388.00,1.9451
3387.00,1.9536
3386.00,1.9619
3385.00,1.9700
3384.00,1.9778
3383.00,1.9849
3382.00,1.9916
3381.00,1.9980
3380.00,2.0042
3379.00,2.0098
3378.00,2.0145
3377.00,2.0182
3376.00,2.0212
3375.00,2.0238
3374.00,2.0260
3373.00,2.0282
3372.00,2.0306
3371.00,2.0332
3370.00,2.0359
3369.00,2.0380
3368.00,2.0390
3367.00,2.0387
3366.00,2.0373
3365.00,2.0355
3364.00,2.0337
3363.00,2.0319
3362.00,2.0297
3361.00,2.0269
3360.00,2.0237
3359.00,2.0200
3358.00,2.0161
3357.00,2.0123
3356.00,2.0088
3355.00,2.0052
3354.00,2.0007
3353.00,1.9948
3352.00,1.9875
3351.00,1.9793
3350.00,1.9707
3349.00,1.9623
3348.00,1.9539
3347.00,1.9453
3346.00,1.9361
3345.00,1.9262
3344.00,1.9154
3343.00,1.9039
3342.00,1.8921
3341.00,1.8801
3340.00,1.8678
3339.00,1.8550
3338.00,1.8413
3337.00,1.8267
3336.00,1.8110
3335.00,1.7946
3334.00,1.7775
3333.00,1.7601
3332.00,1.7420
3331.00,1.7231
3330.00,1.7036
3329.00,1.6834
3328.00,1.6627
3327.00,1.6413
3326.00,1.6193
3325.00,1.5967
3324.00,1.5735
3323.00,1.5498
3322.00,1.5254
3321.00,1.5003
3320.00,1.4746
3319.00,1.4483
3318.00,1.4216
3317.00,1.3946
3316.00,1.3676
3315.00,1.3407
3314.00,1.3142
3313.00,1.2882
3312.00,1.2630
3311.00,1.2388
3310.00,1.2156
3309.00,1.1937
3308.00,1.1731
3307.00,1.1541
3306.00,1.1368
3305.00,1.1216
3304.00,1.1085
3303.00,1.0977
3302.00,1.0892
3301.00,1.0831
3300.00,1.0793
3299.00,1.0780
3298.00,1.0791
3297.00,1.0826
3296.00,1.0886
3295.00,1.0968
3294.00,1.1072
3293.00,1.1195
3292.00,1.1338
3291.00,1.1497
3290.00,1.1672
3289.00,1.1862
3288.00,1.2063
3287.00,1.2275
3286.00,1.2497
3285.00,1.2727
3284.00,1.2964
3283.00,1.3207
3282.00,1.3456
3281.00,1.3707
3280.00,1.3959
3279.00,1.4211
3278.00,1.4463
3277.00,1.4717
3276.00,1.4972
3275.00,1.5226
3274.00,1.5476
3273.00,1.5722
3272.00,1.5963
3271.00,1.6203
3270.00,1.6438
3269.00,1.6668
3268.00,1.6892
3267.00,1.7109
3266.00,1.7320
3265.00,1.7524
3264.00,1.7722
3263.00,1.7914
3262.00,1.8100
3261.00,1.8280
3260.00,1.8454
3259.00,1.8621
3258.00,1.8782
3257.00,1.8937
3256.00,1.9085
3255.00,1.9226
3254.00,1.9360
3253.00,1.9486
3252.00,1.9606
3251.00,1.9720
3250.00,1.9831
3249.00,1.9939
3248.00,2.0042
3247.00,2.0139
3246.00,2.0226
3245.00,2.0306
3244.00,2.0381
3243.00,2.0454
3242.00,2.0528
3241.00,2.0600
3240.00,2.0666
3239.00,2.0723
3238.00,2.0773
3237.00,2.0819
3236.00,2.0863
3235.00,2.0903
3234.00,2.0938
3233.00,2.0967
3232.00,2.0988
3231.00,2.1003
3230.00,2.1015
3229.00,2.1028
3228.00,2.1043
3227.00,2.1055
3226.00,2.1061
3225.00,2.1061
3224.00,2.1056
3223.00,2.1045
3222.00,2.1030
3221.00,2.1011
3220.00,2.0988
3219.00,2.0960
3218.00,2.0925
3217.00,2.0884
3216.00,2.0839
3215.00,2.0791
3214.00,2.0738
3213.00,2.0682
3212.00,2.0622
3211.00,2.0560
3210.00,2.0495
3209.00,2.0428
3208.00,2.0357
3207.00,2.0282
3206.00,2.0206
3205.00,2.0128
3204.00,2.0049
3203.00,1.9967
3202.00,1.9881
3201.00,1.9789
3200.00,1.9687
3199.00,1.9574
3198.00,1.9451
3197.00,1.9317
3196.00,1.9173
3195.00,1.9015
3194.00,1.8846
3193.00,1.8667
3192.00,1.8483
3191.00,1.8293
3190.00,1.8098
3189.00,1.7896
3188.00,1.7687
3187.00,1.7467
3186.00,1.7238
3185.00,1.7001
3184.00,1.6757
3183.00,1.6509
3182.00,1.6255
3181.00,1.5997
3180.00,1.5736
3179.00,1.5474
3178.00,1.5216
3177.00,1.4966
3176.00,1.4727
3175.00,1.4509
3174.00,1.4318
3173.00,1.4164
3172.00,1.4057
3171.00,1.4005
3170.00,1.4019
3169.00,1.4101
3168.00,1.4248
3167.00,1.4442
3166.00,1.4648
3165.00,1.4817
3164.00,1.4892
3163.00,1.4835
3162.00,1.4636
3161.00,1.4326
3160.00,1.3955
3159.00,1.3572
3158.00,1.3214
3157.00,1.2906
3156.00,1.2659
3155.00,1.2478
3154.00,1.2360
3153.00,1.2298
3152.00,1.2287
3151.00,1.2321
3150.00,1.2392
3149.00,1.2496
3148.00,1.2629
3147.00,1.2787
3146.00,1.2966
3145.00,1.3163
3144.00,1.3374
3143.00,1.3595
3142.00,1.3827
3141.00,1.4067
3140.00,1.4316
3139.00,1.4573
3138.00,1.4834
3137.00,1.5096
3136.00,1.5357
3135.00,1.5618
3134.00,1.5877
3133.00,1.6134
3132.00,1.6388
3131.00,1.6638
3130.00,1.6884
3129.00,1.7127
3128.00,1.7367
3127.00,1.7601
3126.00,1.7830
3125.00,1.8052
3124.00,1.8268
3123.00,1.8474
3122.00,1.8672
3121.00,1.8862
3120.00,1.9049
3119.00,1.9231
3118.00,1.9407
3117.00,1.9575
3116.00,1.9734
3115.00,1.9883
3114.00,2.0026
3113.00,2.0165
3112.00,2.0300
3111.00,2.0430
3110.00,2.0553
3109.00,2.0667
3108.00,2.0771
3107.00,2.0871
3106.00,2.0970
3105.00,2.1070
3104.00,2.1166
3103.00,2.1253
3102.00,2.1331
3101.00,2.1400
3100.00,2.1465
3099.00,2.1526
3098.00,2.1587
3097.00,2.1646
3096.00,2.1698
3095.00,2.1742
3094.00,2.1781
3093.00,2.1822
3092.00,2.1866
3091.00,2.1908
3090.00,2.1945
3089.00,2.1971
3088.00,2.1987
3087.00,2.1995
3086.00,2.1997
3085.00,2.1997
3084.00,2.1994
3083.00,2.1986
3082.00,2.1974
3081.00,2.1963
3080.00,2.1955
3079.00,2.1945
3078.00,2.1924
3077.00,2.1892
3076.00,2.1850
3075.00,2.1803
3074.00,2.1757
3073.00,2.1713
3072.00,2.1670
3071.00,2.1621
3070.00,2.1564
3069.00,2.1501
3068.00,2.1435
3067.00,2.1364
3066.00,2.1290
3065.00,2.1208
3064.00,2.1117
3063.00,2.1017
3062.00,2.0910
3061.00,2.0801
3060.00,2.0693
3059.00,2.0586
3058.00,2.0476
3057.00,2.0358
3056.00,2.0228
3055.00,2.0087
3054.00,1.9938
3053.00,1.9786
3052.00,1.9634
3051.00,1.9479
3050.00,1.9317
3049.00,1.9144
3048.00,1.8962
3047.00,1.8771
3046.00,1.8573
3045.00,1.8372
3044.00,1.8168
3043.00,1.7963
3042.00,1.7755
3041.00,1.7545
3040.00,1.7332
3039.00,1.7119
3038.00,1.6908
3037.00,1.6701
3036.00,1.6500
3035.00,1.6304
3034.00,1.6116
3033.00,1.5939
3032.00,1.5774
3031.00,1.5623
3030.00,1.5487
3029.00,1.5368
3028.00,1.5269
3027.00,1.5192
3026.00,1.5138
3025.00,1.5109
3024.00,1.5105
3023.00,1.5124
3022.00,1.5166
3021.00,1.5232
3020.00,1.5320
3019.00,1.5432
3018.00,1.5566
3017.00,1.5720
3016.00,1.5893
3015.00,1.6081
3014.00,1.6282
3013.00,1.6493
3012.00,1.6712
3011.00,1.6936
3010.00,1.7161
3009.00,1.7383
3008.00,1.7597
3007.00,1.7797
3006.00,1.7981
3005.00,1.8146
3004.00,1.8292
3003.00,1.8416
3002.00,1.8518
3001.00,1.8598
3000.00,1.8659
2999.00,1.8706
2998.00,1.8744
2997.00,1.8779
2996.00,1.8816
2995.00,1.8857
2994.00,1.8905
2993.00,1.8964
2992.00,1.9038
2991.00,1.9132
2990.00,1.9244
2989.00,1.9370
2988.00,1.9509
2987.00,1.9663
2986.00,1.9831
2985.00,2.0011
2984.00,2.0196
2983.00,2.0384
2982.00,2.0575
2981.00,2.0773
2980.00,2.0974
2979.00,2.1170
2978.00,2.1361
2977.00,2.1550
2976.00,2.1739
2975.00,2.1926
2974.00,2.2108
2973.00,2.2284
2972.00,2.2455
2971.00,2.2622
2970.00,2.2783
2969.00,2.2938
2968.00,2.3086
2967.00,2.3225
2966.00,2.3354
2965.00,2.3477
2964.00,2.3597
2963.00,2.3709
2962.00,2.3810
2961.00,2.3902
2960.00,2.3994
2959.00,2.4090
2958.00,2.4192
2957.00,2.4297
2956.00,2.4404
2955.00,2.4517
2954.00,2.4641
2953.00,2.4777
2952.00,2.4920
2951.00,2.5064
2950.00,2.5206
2949.00,2.5349
2948.00,2.5496
2947.00,2.5638
2946.00,2.5761
2945.00,2.5847
2944.00,2.5878
2943.00,2.5845
2942.00,2.5750
2941.00,2.5614
2940.00,2.5458
2939.00,2.5300
2938.00,2.5149
2937.00,2.5008
2936.00,2.4872
2935.00,2.4742
2934.00,2.4623
2933.00,2.4520
2932.00,2.4434
2931.00,2.4358
2930.00,2.4285
2929.00,2.4219
2928.00,2.4161
2927.00,2.4103
2926.00,2.4039
2925.00,2.3968
2924.00,2.3900
2923.00,2.3840
2922.00,2.3786
2921.00,2.3734
2920.00,2.3682
2919.00,2.3629
2918.00,2.3573
2917.00,2.3516
2916.00,2.3459
2915.00,2.3406
2914.00,2.3357
2913.00,2.3303
2912.00,2.3239
2911.00,2.3164
2910.00,2.3083
2909.00,2.3002
2908.00,2.2918
2907.00,2.2829
2906.00,2.2735
2905.00,2.2635
2904.00,2.2529
2903.00,2.2418
2902.00,2.2300
2901.00,2.2176
2900.00,2.2042
2899.00,2.1901
2898.00,2.1755
2897.00,2.1608
2896.00,2.1455
2895.00,2.1293
2894.00,2.1121
2893.00,2.0941
2892.00,2.0752
2891.00,2.0556
2890.00,2.0352
2889.00,2.0141
2888.00,1.9925
2887.00,1.9708
2886.00,1.9492
2885.00,1.9279
2884.00,1.9068
2883.00,1.8862
2882.00,1.8663
2881.00,1.8476
2880.00,1.8306
2879.00,1.8159
2878.00,1.8041
2877.00,1.7953
2876.00,1.7895
2875.00,1.7867
2874.00,1.7866
2873.00,1.7885
2872.00,1.7917
2871.00,1.7951
2870.00,1.7977
2869.00,1.7983
2868.00,1.7958
2867.00,1.7896
2866.00,1.7802
2865.00,1.7680
2864.00,1.7534
2863.00,1.7363
2862.00,1.7163
2861.00,1.6931
2860.00,1.6669
2859.00,1.6381
2858.00,1.6077
2857.00,1.5768
2856.00,1.5467
2855.00,1.5183
2854.00,1.4929
2853.00,1.4716
2852.00,1.4549
2851.00,1.4429
2850.00,1.4358
2849.00,1.4335
2848.00,1.4359
2847.00,1.4428
2846.00,1.4538
2845.00,1.4684
2844.00,1.4861
2843.00,1.5062
2842.00,1.5283
2841.00,1.5519
2840.00,1.5770
2839.00,1.6032
2838.00,1.6303
2837.00,1.6580
2836.00,1.6859
2835.00,1.7139
2834.00,1.7419
2833.00,1.7698
2832.00,1.7975
2831.00,1.8247
2830.00,1.8510
2829.00,1.8768
2828.00,1.9023
2827.00,1.9276
2826.00,1.9524
2825.00,1.9762
2824.00,1.9987
2823.00,2.0201
2822.00,2.0411
2821.00,2.0618
2820.00,2.0821
2819.00,2.1015
2818.00,2.1198
2817.00,2.1373
2816.00,2.1543
2815.00,2.1706
2814.00,2.1859
2813.00,2.2001
2812.00,2.2136
2811.00,2.2265
2810.00,2.2391
2809.00,2.2515
2808.00,2.2632
2807.00,2.2739
2806.00,2.2836
2805.00,2.2928
2804.00,2.3014
2803.00,2.3091
2802.00,2.3159
2801.00,2.3226
2800.00,2.3297
2799.00,2.3368
2798.00,2.3427
2797.00,2.3472
2796.00,2.3507
2795.00,2.3545
2794.00,2.3588
2793.00,2.3632
2792.00,2.3670
2791.00,2.3696
2790.00,2.3713
2789.00,2.3725
2788.00,2.3737
2787.00,2.3749
2786.00,2.3754
2785.00,2.3746
2784.00,2.3728
2783.00,2.3708
2782.00,2.3690
2781.00,2.3671
2780.00,2.3642
2779.00,2.3604
2778.00,2.3566
2777.00,2.3531
2776.00,2.3498
2775.00,2.3460
2774.00,2.3411
2773.00,2.3351
2772.00,2.3282
2771.00,2.3206
2770.00,2.3125
2769.00,2.3040
2768.00,2.2950
2767.00,2.2857
2766.00,2.2759
2765.00,2.2652
2764.00,2.2536
2763.00,2.2412
2762.00,2.2285
2761.00,2.2156
2760.00,2.2018
2759.00,2.1870
2758.00,2.1715
2757.00,2.1557
2756.00,2.1394
2755.00,2.1220
2754.00,2.1032
2753.00,2.0834
2752.00,2.0628
2751.00,2.0416
2750.00,2.0196
2749.00,1.9963
2748.00,1.9715
2747.00,1.9452
2746.00,1.9178
2745.00,1.8893
2744.00,1.8596
2743.00,1.8287
2742.00,1.7963
2741.00,1.7625
2740.00,1.7273
2739.00,1.6908
2738.00,1.6531
2737.00,1.6144
2736.00,1.5751
2735.00,1.5352
2734.00,1.4951
2733.00,1.4551
2732.00,1.4156
2731.00,1.3770
2730.00,1.3397
2729.00,1.3039
2728.00,1.2701
2727.00,1.2386
2726.00,1.2099
2725.00,1.1846
2724.00,1.1629
2723.00,1.1453
2722.00,1.1320
2721.00,1.1233
2720.00,1.1193
2719.00,1.1202
2718.00,1.1258
2717.00,1.1362
2716.00,1.1510
2715.00,1.1699
2714.00,1.1924
2713.00,1.2181
2712.00,1.2467
2711.00,1.2776
2710.00,1.3104
2709.00,1.3447
2708.00,1.3803
2707.00,1.4169
2706.00,1.4541
2705.00,1.4919
2704.00,1.5300
2703.00,1.5684
2702.00,1.6066
2701.00,1.6446
2700.00,1.6821
2699.00,1.7190
2698.00,1.7549
2697.00,1.7900
2696.00,1.8242
2695.00,1.8576
2694.00,1.8901
2693.00,1.9218
2692.00,1.9526
2691.00,1.9824
2690.00,2.0109
2689.00,2.0380
2688.00,2.0634
2687.00,2.0873
2686.00,2.1099
2685.00,2.1315
2684.00,2.1525
2683.00,2.1730
2682.00,2.1928
2681.00,2.2112
2680.00,2.2281
2679.00,2.2438
2678.00,2.2588
2677.00,2.2735
2676.00,2.2876
2675.00,2.3012
2674.00,2.3144
2673.00,2.3274
2672.00,2.3396
2671.00,2.3506
2670.00,2.3606
2669.00,2.3700
2668.00,2.3791
2667.00,2.3880
2666.00,2.3966
2665.00,2.4049
2664.00,2.4126
2663.00,2.4195
2662.00,2.4257
2661.00,2.4318
2660.00,2.4375
2659.00,2.4426
2658.00,2.4466
2657.00,2.4498
2656.00,2.4528
2655.00,2.4558
2654.00,2.4590
2653.00,2.4624
2652.00,2.4657
2651.00,2.4685
2650.00,2.4704
2649.00,2.4712
2648.00,2.4714
2647.00,2.4710
2646.00,2.4703
2645.00,2.4696
2644.00,2.4689
2643.00,2.4675
2642.00,2.4650
2641.00,2.4608
2640.00,2.4556
2639.00,2.4504
2638.00,2.4459
2637.00,2.4420
2636.00,2.4376
2635.00,2.4319
2634.00,2.4248
2633.00,2.4174
2632.00,2.4108
2631.00,2.4053
2630.00,2.4006
2629.00,2.3961
2628.00,2.3911
2627.00,2.3852
2626.00,2.3780
2625.00,2.3695
2624.00,2.3599
2623.00,2.3496
2622.00,2.3382
2621.00,2.3255
2620.00,2.3112
2619.00,2.2959
2618.00,2.2801
2617.00,2.2643
2616.00,2.2481
2615.00,2.2310
2614.00,2.2127
2613.00,2.1929
2612.00,2.1715
2611.00,2.1488
2610.00,2.1254
2609.00,2.1012
2608.00,2.0762
2607.00,2.0499
2606.00,2.0222
2605.00,1.9932
2604.00,1.9627
2603.00,1.9305
2602.00,1.8965
2601.00,1.8609
2600.00,1.8236
2599.00,1.7848
2598.00,1.7444
2597.00,1.7024
2596.00,1.6589
2595.00,1.6142
2594.00,1.5687
2593.00,1.5231
2592.00,1.4778
2591.00,1.4334
2590.00,1.3905
2589.00,1.3494
2588.00,1.3107
2587.00,1.2747
2586.00,1.2421
2585.00,1.2132
2584.00,1.1886
2583.00,1.1688
2582.00,1.1540
2581.00,1.1447
2580.00,1.1409
2579.00,1.1428
2578.00,1.1503
2577.00,1.1631
2576.00,1.1809
2575.00,1.2032
2574.00,1.2294
2573.00,1.2590
2572.00,1.2915
2571.00,1.3264
2570.00,1.3630
2569.00,1.4008
2568.00,1.4396
2567.00,1.4791
2566.00,1.5190
2565.00,1.5592
2564.00,1.5996
2563.00,1.6400
2562.00,1.6803
2561.00,1.7203
2560.00,1.7596
2559.00,1.7980
2558.00,1.8354
2557.00,1.8719
2556.00,1.9077
2555.00,1.9428
2554.00,1.9772
2553.00,2.0105
2552.00,2.0423
2551.00,2.0722
2550.00,2.1003
2549.00,2.1270
2548.00,2.1525
2547.00,2.1770
2546.00,2.2008
2545.00,2.2235
2544.00,2.2447
2543.00,2.2643
2542.00,2.2829
2541.00,2.3013
2540.00,2.3196
2539.00,2.3375
2538.00,2.3541
2537.00,2.3691
2536.00,2.3829
2535.00,2.3959
2534.00,2.4087
2533.00,2.4215
2532.00,2.4340
2531.00,2.4459
2530.00,2.4571
2529.00,2.4676
2528.00,2.4777
2527.00,2.4878
2526.00,2.4976
2525.00,2.5067
2524.00,2.5140
2523.00,2.5201
2522.00,2.5260
2521.00,2.5327
2520.00,2.5397
2519.00,2.5457
2518.00,2.5500
2517.00,2.5529
2516.00,2.5555
2515.00,2.5584
2514.00,2.5618
2513.00,2.5652
2512.00,2.5677
2511.00,2.5686
2510.00,2.5683
2509.00,2.5681
2508.00,2.5685
2507.00,2.5695
2506.00,2.5704
2505.00,2.5703
2504.00,2.5695
2503.00,2.5682
2502.00,2.5667
2501.00,2.5650
2500.00,2.5625
2499.00,2.5591
2498.00,2.5550
2497.00,2.5508
2496.00,2.5465
2495.00,2.5415
2494.00,2.5350
2493.00,2.5269
2492.00,2.5178
2491.00,2.5088
2490.00,2.5007
2489.00,2.4933
2488.00,2.4855
2487.00,2.4768
2486.00,2.4675
2485.00,2.4578
2484.00,2.4474
2483.00,2.4360
2482.00,2.4236
2481.00,2.4104
2480.00,2.3967
2479.00,2.3824
2478.00,2.3675
2477.00,2.3518
2476.00,2.3352
2475.00,2.3177
2474.00,2.2994
2473.00,2.2805
2472.00,2.2606
2471.00,2.2393
2470.00,2.2168
2469.00,2.1933
2468.00,2.1688
2467.00,2.1434
2466.00,2.1167
2465.00,2.0884
2464.00,2.0584
2463.00,2.0270
2462.00,1.9945
2461.00,1.9604
2460.00,1.9243
2459.00,1.8857
2458.00,1.8452
2457.00,1.8035
2456.00,1.7608
2455.00,1.7171
2454.00,1.6728
2453.00,1.6286
2452.00,1.5850
2451.00,1.5425
2450.00,1.5014
2449.00,1.4623
2448.00,1.4257
2447.00,1.3922
2446.00,1.3623
2445.00,1.3364
2444.00,1.3151
2443.00,1.2987
2442.00,1.2873
2441.00,1.2812
2440.00,1.2803
2439.00,1.2848
2438.00,1.2944
2437.00,1.3090
2436.00,1.3283
2435.00,1.3519
2434.00,1.3793
2433.00,1.4098
2432.00,1.4431
2431.00,1.4785
2430.00,1.5156
2429.00,1.5540
2428.00,1.5935
2427.00,1.6339
2426.00,1.6748
2425.00,1.7158
2424.00,1.7567
2423.00,1.7972
2422.00,1.8372
2421.00,1.8764
2420.00,1.9145
2419.00,1.9514
2418.00,1.9871
2417.00,2.0216
2416.00,2.0549
2415.00,2.0870
2414.00,2.1172
2413.00,2.1452
2412.00,2.1710
2411.00,2.1952
2410.00,2.2186
2409.00,2.2413
2408.00,2.2633
2407.00,2.2846
2406.00,2.3051
2405.00,2.3246
2404.00,2.3434
2403.00,2.3617
2402.00,2.3795
2401.00,2.3968
2400.00,2.4132
2399.00,2.4288
2398.00,2.4440
2397.00,2.4589
2396.00,2.4730
2395.00,2.4864
2394.00,2.4999
2393.00,2.5139
2392.00,2.5281
2391.00,2.5411
2390.00,2.5540
2389.00,2.5654
2388.00,2.5813
2387.00,2.5821
2386.00,2.5878
2385.00,2.5990
2384.00,2.6075
2383.00,2.6163
2382.00,2.6239
2381.00,2.6319
2380.00,2.6391
2379.00,2.6446
2378.00,2.6475
2377.00,2.6491
2376.00,2.6514
2375.00,2.6552
2374.00,2.6592
2373.00,2.6622
2372.00,2.6642
2371.00,2.6660
2370.00,2.6675
2369.00,2.6677
2368.00,2.6660
2367.00,2.6639
2366.00,2.6637
2365.00,2.6662
2364.00,2.6695
2363.00,2.6706
2362.00,2.6675
2361.00,2.6607
2360.00,2.6524
2359.00,2.6446
2358.00,2.6378
2357.00,2.6320
2356.00,2.6279
2355.00,2.6261
2354.00,2.6255
2353.00,2.6235
2352.00,2.6185
2351.00,2.6111
2350.00,2.6026
2349.00,2.5932
2348.00,2.5826
2347.00,2.5707
2346.00,2.5583
2345.00,2.5458
2344.00,2.5331
2343.00,2.5201
2342.00,2.5069
2341.00,2.4935
2340.00,2.4793
2339.00,2.4638
2338.00,2.4467
2337.00,2.4276
2336.00,2.4076
2335.00,2.3849
2334.00,2.3648
2333.00,2.3393
2332.00,2.3234
2331.00,2.2709
2330.00,2.2962
2329.00,2.3175
2328.00,2.3101
2327.00,2.2757
2326.00,2.2384
2325.00,2.2063
2324.00,2.1973
2323.00,2.2078
2322.00,2.2130
2321.00,2.2074
2320.00,2.1791
2319.00,2.1416
2318.00,2.0919
2317.00,2.0357
2316.00,1.9810
2315.00,1.9386
2314.00,1.9220
2313.00,1.9220
2312.00,1.9345
2311.00,1.9413
2310.00,1.9458
2309.00,1.9443
2308.00,1.9472
2307.00,1.9535
2306.00,1.9675
2305.00,1.9872
2304.00,2.0141
2303.00,2.0489
2302.00,2.0928
2301.00,2.1448
2300.00,2.2031
2299.00,2.2626
2298.00,2.3218
2297.00,2.3762
2296.00,2.4245
2295.00,2.4594
2294.00,2.4774
2293.00,2.4719
2292.00,2.4425
2291.00,2.3909
2290.00,2.3261
2289.00,2.2570
2288.00,2.1927
2287.00,2.1390
2286.00,2.0989
2285.00,2.0731
2284.00,2.0603
2283.00,2.0597
2282.00,2.0707
2281.00,2.0936
2280.00,2.1256
2279.00,2.1636
2278.00,2.2043
2277.00,2.2467
2276.00,2.2899
2275.00,2.3328
2274.00,2.3743
2273.00,2.4141
2272.00,2.4530
2271.00,2.4913
2270.00,2.5295
2269.00,2.5669
2268.00,2.6028
2267.00,2.6369
2266.00,2.6703
2265.00,2.7037
2264.00,2.7367
2263.00,2.7683
2262.00,2.8010
2261.00,2.8386
2260.00,2.8846
2259.00,2.9422
2258.00,3.0170
2257.00,3.1195
2256.00,3.2584
2255.00,3.4329
2254.00,3.6122
2253.00,3.7084
2252.00,3.6377
2251.00,3.4550
2250.00,3.2525
2249.00,3.0658
2248.00,2.9009
2247.00,2.7571
2246.00,2.6360
2245.00,2.5399
2244.00,2.4699
2243.00,2.4246
2242.00,2.4011
2241.00,2.3960
2240.00,2.4056
2239.00,2.4264
2238.00,2.4545
2237.00,2.4861
2236.00,2.5177
2235.00,2.5473
2234.00,2.5745
2233.00,2.5995
2232.00,2.6226
2231.00,2.6438
2230.00,2.6625
2229.00,2.6787
2228.00,2.6926
2227.00,2.7055
2226.00,2.7184
2225.00,2.7314
2224.00,2.7428
2223.00,2.7512
2222.00,2.7567
2221.00,2.7606
2220.00,2.7643
2219.00,2.7686
2218.00,2.7739
2217.00,2.7798
2216.00,2.7851
2215.00,2.7881
2214.00,2.7886
2213.00,2.7879
2212.00,2.7874
2211.00,2.7870
2210.00,2.7860
2209.00,2.7836
2208.00,2.7803
2207.00,2.7768
2206.00,2.7741
2205.00,2.7727
2204.00,2.7720
2203.00,2.7703
2202.00,2.7661
2201.00,2.7594
2200.00,2.7511
2199.00,2.7428
2198.00,2.7353
2197.00,2.7280
2196.00,2.7193
2195.00,2.7084
2194.00,2.6962
2193.00,2.6844
2192.00,2.6727
2191.00,2.6603
2190.00,2.6467
2189.00,2.6326
2188.00,2.6190
2187.00,2.6052
2186.00,2.5905
2185.00,2.5742
2184.00,2.5566
2183.00,2.5378
2182.00,2.5180
2181.00,2.4974
2180.00,2.4764
2179.00,2.4548
2178.00,2.4319
2177.00,2.4073
2176.00,2.3805
2175.00,2.3516
2174.00,2.3210
2173.00,2.2890
2172.00,2.2561
2171.00,2.2222
2170.00,2.1866
2169.00,2.1488
2168.00,2.1082
2167.00,2.0647
2166.00,2.0185
2165.00,1.9699
2164.00,1.9190
2163.00,1.8662
2162.00,1.8117
2161.00,1.7562
2160.00,1.7004
2159.00,1.6452
2158.00,1.5914
2157.00,1.5402
2156.00,1.4924
2155.00,1.4489
2154.00,1.4105
2153.00,1.3779
2152.00,1.3518
2151.00,1.3329
2150.00,1.3219
2149.00,1.3190
2148.00,1.3243
2147.00,1.3376
2146.00,1.3582
2145.00,1.3855
2144.00,1.4186
2143.00,1.4566
2142.00,1.4985
2141.00,1.5433
2140.00,1.5903
2139.00,1.6387
2138.00,1.6882
2137.00,1.7382
2136.00,1.7885
2135.00,1.8385
2134.00,1.8879
2133.00,1.9363
2132.00,1.9839
2131.00,2.0305
2130.00,2.0759
2129.00,2.1197
2128.00,2.1617
2127.00,2.2020
2126.00,2.2408
2125.00,2.2778
2124.00,2.3127
2123.00,2.3451
2122.00,2.3751
2121.00,2.4037
2120.00,2.4322
2119.00,2.4604
2118.00,2.4871
2117.00,2.5109
2116.00,2.5319
2115.00,2.5520
2114.00,2.5726
2113.00,2.5934
2112.00,2.6138
2111.00,2.6334
2110.00,2.6522
2109.00,2.6696
2108.00,2.6853
2107.00,2.6994
2106.00,2.7124
2105.00,2.7245
2104.00,2.7357
2103.00,2.7472
2102.00,2.7598
2101.00,2.7733
2100.00,2.7855
2099.00,2.7950
2098.00,2.8020
2097.00,2.8080
2096.00,2.8140
2095.00,2.8204
2094.00,2.8274
2093.00,2.8349
2092.00,2.8422
2091.00,2.8487
2090.00,2.8537
2089.00,2.8576
2088.00,2.8616
2087.00,2.8665
2086.00,2.8717
2085.00,2.8749
2084.00,2.8750
2083.00,2.8737
2082.00,2.8738
2081.00,2.8770
2080.00,2.8826
2079.00,2.8889
2078.00,2.8941
2077.00,2.8965
2076.00,2.8947
2075.00,2.8894
2074.00,2.8839
2073.00,2.8812
2072.00,2.8820
2071.00,2.8843
2070.00,2.8853
2069.00,2.8831
2068.00,2.8775
2067.00,2.8700
2066.00,2.8627
2065.00,2.8569
2064.00,2.8525
2063.00,2.8483
2062.00,2.8431
2061.00,2.8365
2060.00,2.8287
2059.00,2.8201
2058.00,2.8108
2057.00,2.8007
2056.00,2.7898
2055.00,2.7787
2054.00,2.7678
2053.00,2.7566
2052.00,2.7443
2051.00,2.7308
2050.00,2.7164
2049.00,2.7019
2048.00,2.6872
2047.00,2.6719
2046.00,2.6557
2045.00,2.6385
2044.00,2.6206
2043.00,2.6016
2042.00,2.5813
2041.00,2.5594
2040.00,2.5358
2039.00,2.5108
2038.00,2.4849
2037.00,2.4584
2036.00,2.4313
2035.00,2.4034
2034.00,2.3740
2033.00,2.3428
2032.00,2.3094
2031.00,2.2739
2030.00,2.2359
2029.00,2.1953
2028.00,2.1520
2027.00,2.1064
2026.00,2.0584
2025.00,2.0078
2024.00,1.9549
2023.00,1.8999
2022.00,1.8437
2021.00,1.7875
2020.00,1.7320
2019.00,1.6777
2018.00,1.6252
2017.00,1.5756
2016.00,1.5300
2015.00,1.4897
2014.00,1.4558
2013.00,1.4291
2012.00,1.4104
2011.00,1.3997
2010.00,1.3971
2009.00,1.4024
2008.00,1.4156
2007.00,1.4363
2006.00,1.4639
2005.00,1.4976
2004.00,1.5364
2003.00,1.5793
2002.00,1.6252
2001.00,1.6734
2000.00,1.7233
1999.00,1.7744
1998.00,1.8262
1997.00,1.8780
1996.00,1.9296
1995.00,1.9806
1994.00,2.0307
1993.00,2.0797
1992.00,2.1271
1991.00,2.1727
1990.00,2.2163
1989.00,2.2580
1988.00,2.2983
1987.00,2.3377
1986.00,2.3761
1985.00,2.4132
1984.00,2.4483
1983.00,2.4811
1982.00,2.5115
1981.00,2.5393
1980.00,2.5644
1979.00,2.5873
1978.00,2.6096
1977.00,2.6318
1976.00,2.6526
1975.00,2.6707
1974.00,2.6874
1973.00,2.7059
1972.00,2.7271
1971.00,2.7483
1970.00,2.7658
1969.00,2.7789
1968.00,2.7902
1967.00,2.8020
1966.00,2.8148
1965.00,2.8276
1964.00,2.8401
1963.00,2.8532
1962.00,2.8680
1961.00,2.8837
1960.00,2.8972
1959.00,2.9055
1958.00,2.9090
1957.00,2.9116
1956.00,2.9168
1955.00,2.9254
1954.00,2.9361
1953.00,2.9471
1952.00,2.9565
1951.00,2.9623
1950.00,2.9635
1949.00,2.9622
1948.00,2.9626
1947.00,2.9673
1946.00,2.9756
1945.00,2.9840
1944.00,2.9898
1943.00,2.9928
1942.00,2.9945
1941.00,2.9952
1940.00,2.9939
1939.00,2.9905
1938.00,2.9874
1937.00,2.9868
1936.00,2.9881
1935.00,2.9881
1934.00,2.9849
1933.00,2.9805
1932.00,2.9786
1931.00,2.9800
1930.00,2.9826
1929.00,2.9832
1928.00,2.9811
1927.00,2.9779
1926.00,2.9750
1925.00,2.9717
1924.00,2.9661
1923.00,2.9569
1922.00,2.9449
1921.00,2.9316
1920.00,2.9179
1919.00,2.9045
1918.00,2.8924
1917.00,2.8829
1916.00,2.8765
1915.00,2.8721
1914.00,2.8682
1913.00,2.8634
1912.00,2.8561
1911.00,2.8449
1910.00,2.8298
1909.00,2.8118
1908.00,2.7926
1907.00,2.7730
1906.00,2.7531
1905.00,2.7342
1904.00,2.7173
1903.00,2.7017
1902.00,2.6847
1901.00,2.6641
1900.00,2.6397
1899.00,2.6132
1898.00,2.5859
1897.00,2.5583
1896.00,2.5301
1895.00,2.5006
1894.00,2.4690
1893.00,2.4350
1892.00,2.3987
1891.00,2.3601
1890.00,2.3187
1889.00,2.2747
1888.00,2.2287
1887.00,2.1810
1886.00,2.1320
1885.00,2.0819
1884.00,2.0306
1883.00,1.9772
1882.00,1.9216
1881.00,1.8654
1880.00,1.8102
1879.00,1.7574
1878.00,1.7078
1877.00,1.6625
1876.00,1.6226
1875.00,1.5885
1874.00,1.5605
1873.00,1.5394
1872.00,1.5253
1871.00,1.5180
1870.00,1.5181
1869.00,1.5263
1868.00,1.5422
1867.00,1.5646
1866.00,1.5936
1865.00,1.6310
1864.00,1.6773
1863.00,1.7300
1862.00,1.7856
1861.00,1.8415
1860.00,1.8970
1859.00,1.9516
1858.00,2.0054
1857.00,2.0588
1856.00,2.1120
1855.00,2.1645
1854.00,2.2161
1853.00,2.2665
1852.00,2.3151
1851.00,2.3605
1850.00,2.4020
1849.00,2.4404
1848.00,2.4763
1847.00,2.5092
1846.00,2.5403
1845.00,2.5732
1844.00,2.6094
1843.00,2.6441
1842.00,2.6713
1841.00,2.6909
1840.00,2.7083
1839.00,2.7286
1838.00,2.7531
1837.00,2.7792
1836.00,2.8036
1835.00,2.8254
1834.00,2.8452
1833.00,2.8618
1832.00,2.8739
1831.00,2.8835
1830.00,2.8952
1829.00,2.9115
1828.00,2.9300
1827.00,2.9470
1826.00,2.9626
1825.00,2.9766
1824.00,2.9860
1823.00,2.9891
1822.00,2.9916
1821.00,3.0013
1820.00,3.0194
1819.00,3.0396
1818.00,3.0550
1817.00,3.0630
1816.00,3.0647
1815.00,3.0638
1814.00,3.0645
1813.00,3.0683
1812.00,3.0737
1811.00,3.0786
1810.00,3.0831
1809.00,3.0880
1808.00,3.0924
1807.00,3.0959
1806.00,3.1002
1805.00,3.1066
1804.00,3.1134
1803.00,3.1169
1802.00,3.1156
1801.00,3.1116
1800.00,3.1075
1799.00,3.1048
1798.00,3.1043
1797.00,3.1058
1796.00,3.1071
1795.00,3.1058
1794.00,3.1013
1793.00,3.0945
1792.00,3.0863
1791.00,3.0772
1790.00,3.0677
1789.00,3.0581
1788.00,3.0482
1787.00,3.0390
1786.00,3.0324
1785.00,3.0290
1784.00,3.0263
1783.00,3.0214
1782.00,3.0138
1781.00,3.0048
1780.00,2.9969
1779.00,2.9890
1778.00,2.9784
1777.00,2.9638
1776.00,2.9458
1775.00,2.9272
1774.00,2.9110
1773.00,2.8997
1772.00,2.8913
1771.00,2.8791
1770.00,2.8579
1769.00,2.8297
1768.00,2.8015
1767.00,2.7781
1766.00,2.7590
1765.00,2.7392
1764.00,2.7147
1763.00,2.6859
1762.00,2.6542
1761.00,2.6197
1760.00,2.5819
1759.00,2.5421
1758.00,2.5023
1757.00,2.4627
1756.00,2.4238
1755.00,2.3861
1754.00,2.3487
1753.00,2.3120
1752.00,2.2770
1751.00,2.2433
1750.00,2.2082
1749.00,2.1702
1748.00,2.1330
1747.00,2.1050
1746.00,2.0907
1745.00,2.0886
1744.00,2.0951
1743.00,2.1068
1742.00,2.1224
1741.00,2.1421
1740.00,2.1673
1739.00,2.1980
1738.00,2.2304
1737.00,2.2596
1736.00,2.2884
1735.00,2.3284
1734.00,2.3865
1733.00,2.4522
1732.00,2.5063
1731.00,2.5453
1730.00,2.5821
1729.00,2.6279
1728.00,2.6844
1727.00,2.7463
1726.00,2.8084
1725.00,2.8703
1724.00,2.9316
1723.00,2.9903
1722.00,3.0470
1721.00,3.1042
1720.00,3.1645
1719.00,3.2325
1718.00,3.3111
1717.00,3.3943
1716.00,3.4697
1715.00,3.5393
1714.00,3.6204
1713.00,3.7204
1712.00,3.8197
1711.00,3.8942
1710.00,3.9456
1709.00,3.9704
1708.00,3.9452
1707.00,3.8667
1706.00,3.7505
1705.00,3.6166
1704.00,3.4859
1703.00,3.3639
1702.00,3.2395
1701.00,3.0995
1700.00,2.9552
1699.00,2.8260
1698.00,2.7118
1697.00,2.6114
1696.00,2.5350
1695.00,2.4924
1694.00,2.4765
1693.00,2.4697
1692.00,2.4677
1691.00,2.4795
1690.00,2.5097
1689.00,2.5516
1688.00,2.5947
1687.00,2.6360
1686.00,2.6818
1685.00,2.7401
1684.00,2.8072
1683.00,2.8618
1682.00,2.8863
1681.00,2.8906
1680.00,2.8972
1679.00,2.9153
1678.00,2.9406
1677.00,2.9677
1676.00,2.9969
1675.00,3.0283
1674.00,3.0547
1673.00,3.0690
1672.00,3.0740
1671.00,3.0785
1670.00,3.0896
1669.00,3.1080
1668.00,3.1280
1667.00,3.1438
1666.00,3.1533
1665.00,3.1576
1664.00,3.1600
1663.00,3.1640
1662.00,3.1707
1661.00,3.1789
1660.00,3.1881
1659.00,3.1986
1658.00,3.2105
1657.00,3.2226
1656.00,3.2308
1655.00,3.2331
1654.00,3.2344
1653.00,3.2421
1652.00,3.2541
1651.00,3.2603
1650.00,3.2548
1649.00,3.2370
1648.00,3.2164
1647.00,3.2067
1646.00,3.2081
1645.00,3.2120
1644.00,3.2134
1643.00,3.2141
1642.00,3.2172
1641.00,3.2257
1640.00,3.2393
1639.00,3.2504
1638.00,3.2535
1637.00,3.2515
1636.00,3.2476
1635.00,3.2382
1634.00,3.2195
1633.00,3.1968
1632.00,3.1777
1631.00,3.1666
1630.00,3.1657
1629.00,3.1733
1628.00,3.1819
1627.00,3.1819
1626.00,3.1696
1625.00,3.1509
1624.00,3.1338
1623.00,3.1199
1622.00,3.1048
1621.00,3.0861
1620.00,3.0661
1619.00,3.0481
1618.00,3.0349
1617.00,3.0274
1616.00,3.0215
1615.00,3.0085
1614.00,2.9835
1613.00,2.9510
1612.00,2.9191
1611.00,2.8917
1610.00,2.8663
1609.00,2.8390
1608.00,2.8100
1607.00,2.7813
1606.00,2.7526
1605.00,2.7221
1604.00,2.6889
1603.00,2.6522
1602.00,2.6117
1601.00,2.5685
1600.00,2.5239
1599.00,2.4790
1598.00,2.4333
1597.00,2.3862
1596.00,2.3372
1595.00,2.2878
1594.00,2.2395
1593.00,2.1933
1592.00,2.1497
1591.00,2.1096
1590.00,2.0742
1589.00,2.0443
1588.00,2.0204
1587.00,2.0035
1586.00,1.9949
1585.00,1.9949
1584.00,2.0039
1583.00,2.0214
1582.00,2.0464
1581.00,2.0781
1580.00,2.1134
1579.00,2.1483
1578.00,2.1842
1577.00,2.2292
1576.00,2.2869
1575.00,2.3476
1574.00,2.3957
1573.00,2.4274
1572.00,2.4535
1571.00,2.4871
1570.00,2.5323
1569.00,2.5815
1568.00,2.6246
1567.00,2.6601
1566.00,2.6930
1565.00,2.7280
1564.00,2.7652
1563.00,2.8022
1562.00,2.8387
1561.00,2.8805
1560.00,2.9301
1559.00,2.9746
1558.00,2.9951
1557.00,2.9968
1556.00,3.0028
1555.00,3.0219
1554.00,3.0475
1553.00,3.0750
1552.00,3.1002
1551.00,3.1173
1550.00,3.1269
1549.00,3.1341
1548.00,3.1428
1547.00,3.1554
1546.00,3.1727
1545.00,3.1933
1544.00,3.2132
1543.00,3.2267
1542.00,3.2329
1541.00,3.2377
1540.00,3.2492
1539.00,3.2719
1538.00,3.3002
1537.00,3.3232
1536.00,3.3334
1535.00,3.3345
1534.00,3.3362
1533.00,3.3421
1532.00,3.3472
1531.00,3.3474
1530.00,3.3450
1529.00,3.3417
1528.00,3.3377
1527.00,3.3365
1526.00,3.3438
1525.00,3.3598
1524.00,3.3767
1523.00,3.3846
1522.00,3.3843
1521.00,3.3842
1520.00,3.3848
1519.00,3.3782
1518.00,3.3616
1517.00,3.3427
1516.00,3.3319
1515.00,3.3317
1514.00,3.3374
1513.00,3.3444
1512.00,3.3499
1511.00,3.3505
1510.00,3.3454
1509.00,3.3401
1508.00,3.3421
1507.00,3.3482
1506.00,3.3465
1505.00,3.3368
1504.00,3.3328
1503.00,3.3365
1502.00,3.3384
1501.00,3.3357
1500.00,3.3303
1499.00,3.3237
1498.00,3.3189
1497.00,3.3161
1496.00,3.3104
1495.00,3.2987
1494.00,3.2848
1493.00,3.2727
1492.00,3.2632
1491.00,3.2545
1490.00,3.2443
1489.00,3.2320
1488.00,3.2190
1487.00,3.2074
1486.00,3.1985
1485.00,3.1914
1484.00,3.1850
1483.00,3.1783
1482.00,3.1721
1481.00,3.1687
1480.00,3.1655
1479.00,3.1549
1478.00,3.1326
1477.00,3.1041
1476.00,3.0778
1475.00,3.0583
1474.00,3.0458
1473.00,3.0396
1472.00,3.0383
1471.00,3.0382
1470.00,3.0380
1469.00,3.0411
1468.00,3.0508
1467.00,3.0684
1466.00,3.0914
1465.00,3.1149
1464.00,3.1338
1463.00,3.1457
1462.00,3.1544
1461.00,3.1682
1460.00,3.1946
1459.00,3.2392
1458.00,3.3032
1457.00,3.3793
1456.00,3.4481
1455.00,3.4929
1454.00,3.5160
1453.00,3.5290
1452.00,3.5417
1451.00,3.5576
1450.00,3.5757
1449.00,3.5973
1448.00,3.6241
1447.00,3.6497
1446.00,3.6563
1445.00,3.6360
1444.00,3.6038
1443.00,3.5756
1442.00,3.5560
1441.00,3.5402
1440.00,3.5229
1439.00,3.5067
1438.00,3.4985
1437.00,3.5022
1436.00,3.5157
1435.00,3.5304
1434.00,3.5373
1433.00,3.5344
1432.00,3.5253
1431.00,3.5146
1430.00,3.5022
1429.00,3.4842
1428.00,3.4611
1427.00,3.4414
1426.00,3.4344
1425.00,3.4460
1424.00,3.4776
1423.00,3.5197
1422.00,3.5509
1421.00,3.5510
1420.00,3.5207
1419.00,3.4823
1418.00,3.4544
1417.00,3.4408
1416.00,3.4371
1415.00,3.4369
1414.00,3.4357
1413.00,3.4305
1412.00,3.4190
1411.00,3.4016
1410.00,3.3835
1409.00,3.3709
1408.00,3.3676
1407.00,3.3737
1406.00,3.3850
1405.00,3.3936
1404.00,3.3937
1403.00,3.3857
1402.00,3.3767
1401.00,3.3741
1400.00,3.3803
1399.00,3.3902
1398.00,3.3942
1397.00,3.3894
1396.00,3.3833
1395.00,3.3849
1394.00,3.3949
1393.00,3.4065
1392.00,3.4159
1391.00,3.4245
1390.00,3.4344
1389.00,3.4440
1388.00,3.4519
1387.00,3.4633
1386.00,3.4884
1385.00,3.5325
1384.00,3.5913
1383.00,3.6557
1382.00,3.7162
1381.00,3.7626
1380.00,3.7887
1379.00,3.7995
1378.00,3.8059
1377.00,3.8108
1376.00,3.8024
1375.00,3.7683
1374.00,3.7170
1373.00,3.6694
1372.00,3.6379
1371.00,3.6167
1370.00,3.5891
1369.00,3.5488
1368.00,3.5069
1367.00,3.4762
1366.00,3.4606
1365.00,3.4552
1364.00,3.4532
1363.00,3.4526
1362.00,3.4587
1361.00,3.4777
1360.00,3.5098
1359.00,3.5496
1358.00,3.5890
1357.00,3.6232
1356.00,3.6521
1355.00,3.6697
1354.00,3.6658
1353.00,3.6452
1352.00,3.6237
1351.00,3.6107
1350.00,3.6044
1349.00,3.6006
1348.00,3.6020
1347.00,3.6096
1346.00,3.6168
1345.00,3.6244
1344.00,3.6417
1343.00,3.6690
1342.00,3.6919
1341.00,3.6913
1340.00,3.6644
1339.00,3.6334
1338.00,3.6211
1337.00,3.6266
1336.00,3.6285
1335.00,3.6110
1334.00,3.5810
1333.00,3.5547
1332.00,3.5387
1331.00,3.5311
1330.00,3.5298
1329.00,3.5309
1328.00,3.5276
1327.00,3.5197
1326.00,3.5152
1325.00,3.5167
1324.00,3.5161
1323.00,3.5057
1322.00,3.4874
1321.00,3.4670
1320.00,3.4444
1319.00,3.4191
1318.00,3.3993
1317.00,3.3958
1316.00,3.4073
1315.00,3.4210
1314.00,3.4259
1313.00,3.4245
1312.00,3.4234
1311.00,3.4183
1310.00,3.4008
1309.00,3.3722
1308.00,3.3413
1307.00,3.3108
1306.00,3.2770
1305.00,3.2407
1304.00,3.2079
1303.00,3.1804
1302.00,3.1520
1301.00,3.1162
1300.00,3.0749
1299.00,3.0349
1298.00,2.9976
1297.00,2.9575
1296.00,2.9091
1295.00,2.8529
1294.00,2.7931
1293.00,2.7327
1292.00,2.6728
1291.00,2.6134
1290.00,2.5546
1289.00,2.4969
1288.00,2.4419
1287.00,2.3930
1286.00,2.3535
1285.00,2.3257
1284.00,2.3108
1283.00,2.3089
1282.00,2.3198
1281.00,2.3424
1280.00,2.3747
1279.00,2.4143
1278.00,2.4587
1277.00,2.5048
1276.00,2.5493
1275.00,2.5902
1274.00,2.6275
1273.00,2.6631
1272.00,2.6996
1271.00,2.7381
1270.00,2.7785
1269.00,2.8193
1268.00,2.8590
1267.00,2.8977
1266.00,2.9367
1265.00,2.9775
1264.00,3.0197
1263.00,3.0600
1262.00,3.0950
1261.00,3.1247
1260.00,3.1541
1259.00,3.1898
1258.00,3.2333
1257.00,3.2779
1256.00,3.3138
1255.00,3.3377
1254.00,3.3539
1253.00,3.3673
1252.00,3.3811
1251.00,3.3994
1250.00,3.4274
1249.00,3.4652
1248.00,3.5044
1247.00,3.5344
1246.00,3.5524
1245.00,3.5609
1244.00,3.5610
1243.00,3.5601
1242.00,3.5720
1241.00,3.6042
1240.00,3.6490
1239.00,3.6892
1238.00,3.7156
1237.00,3.7291
1236.00,3.7290
1235.00,3.7164
1234.00,3.6972
1233.00,3.6806
1232.00,3.6729
1231.00,3.6729
1230.00,3.6787
1229.00,3.6943
1228.00,3.7209
1227.00,3.7450
1226.00,3.7510
1225.00,3.7470
1224.00,3.7541
1223.00,3.7805
1222.00,3.8116
1221.00,3.8269
1220.00,3.8247
1219.00,3.8146
1218.00,3.8125
1217.00,3.8169
1216.00,3.7973
1215.00,3.7495
1214.00,3.7139
1213.00,3.7268
1212.00,3.7920
1211.00,3.8766
1210.00,3.9385
1209.00,3.9749
1208.00,3.9889
1207.00,3.9712
1206.00,3.9150
1205.00,3.8391
1204.00,3.7837
1203.00,3.7618
1202.00,3.7707
1201.00,3.8072
1200.00,3.8673
1199.00,3.9384
1198.00,3.9492
1197.00,3.8571
1196.00,3.7645
1195.00,3.7197
1194.00,3.7171
1193.00,3.7391
1192.00,3.7666
1191.00,3.7803
1190.00,3.7585
1189.00,3.7098
1188.00,3.6661
1187.00,3.6474
1186.00,3.6562
1185.00,3.6793
1184.00,3.6961
1183.00,3.6945
1182.00,3.6863
1181.00,3.6917
1180.00,3.7073
1179.00,3.6972
1178.00,3.6367
1177.00,3.5551
1176.00,3.4927
1175.00,3.4593
1174.00,3.4399
1173.00,3.4179
1172.00,3.3928
1171.00,3.3749
1170.00,3.3685
1169.00,3.3690
1168.00,3.3720
1167.00,3.3720
1166.00,3.3555
1165.00,3.3118
1164.00,3.2518
1163.00,3.1956
1162.00,3.1498
1161.00,3.1058
1160.00,3.0560
1159.00,3.0051
1158.00,2.9602
1157.00,2.9196
1156.00,2.8762
1155.00,2.8274
1154.00,2.7763
1153.00,2.7263
1152.00,2.6791
1151.00,2.6370
1150.00,2.6036
1149.00,2.5814
1148.00,2.5709
1147.00,2.5715
1146.00,2.5824
1145.00,2.6035
1144.00,2.6347
1143.00,2.6758
1142.00,2.7258
1141.00,2.7820
1140.00,2.8399
1139.00,2.8977
1138.00,2.9582
1137.00,3.0246
1136.00,3.0932
1135.00,3.1524
1134.00,3.1959
1133.00,3.2298
1132.00,3.2625
1131.00,3.2977
1130.00,3.3392
1129.00,3.3954
1128.00,3.4715
1127.00,3.5567
1126.00,3.6258
1125.00,3.6735
1124.00,3.7271
1123.00,3.8027
1122.00,3.8742
1121.00,3.8906
1120.00,3.8537
1119.00,3.8217
1118.00,3.8073
1117.00,3.7850
1116.00,3.7502
1115.00,3.7283
1114.00,3.7374
1113.00,3.7671
1112.00,3.7880
1111.00,3.7871
1110.00,3.7821
1109.00,3.7867
1108.00,3.8019
1107.00,3.8315
1106.00,3.8737
1105.00,3.9068
1104.00,3.9053
1103.00,3.8662
1102.00,3.8334
1101.00,3.8368
1100.00,3.8398
1099.00,3.8216
1098.00,3.8333
1097.00,3.8936
1096.00,3.9536
1095.00,3.9552
1094.00,3.9042
1093.00,3.8570
1092.00,3.8559
1091.00,3.9073
1090.00,4.0087
1089.00,4.1786
1088.00,4.4688
1087.00,4.7448
1086.00,4.5727
1085.00,4.3185
1084.00,4.1051
1083.00,4.0290
1082.00,4.0606
1081.00,4.1142
1080.00,4.0934
1079.00,3.9783
1078.00,3.8942
1077.00,3.8910
1076.00,3.9344
1075.00,3.9655
1074.00,3.9289
1073.00,3.8637
1072.00,3.8024
1071.00,3.7321
1070.00,3.6923
1069.00,3.7146
1068.00,3.7771
1067.00,3.8237
1066.00,3.8571
1065.00,3.9087
1064.00,3.9416
1063.00,3.9134
1062.00,3.8633
1061.00,3.8408
1060.00,3.8628
1059.00,3.9321
1058.00,4.0403
1057.00,4.1663
1056.00,4.2637
1055.00,4.3015
1054.00,4.3105
1053.00,4.2987
1052.00,4.2937
1051.00,4.2817
1050.00,4.1764
1049.00,4.0554
1048.00,4.0116
1047.00,4.0417
1046.00,4.0858
1045.00,4.1083
1044.00,4.1081
1043.00,4.0661
1042.00,3.9856
1041.00,3.9730
1040.00,4.1005
1039.00,4.3873
1038.00,4.6171
1037.00,4.4727
1036.00,4.2541
1035.00,4.1844
1034.00,4.2232
1033.00,4.3203
1032.00,4.5329
1031.00,4.5123
1030.00,4.3116
1029.00,4.2925
1028.00,4.4455
1027.00,4.7229
1026.00,4.7239
1025.00,4.4054
1024.00,4.2099
1023.00,4.1368
1022.00,4.1072
1021.00,4.0719
1020.00,4.0144
1019.00,3.9633
1018.00,3.9789
1017.00,4.0825
1016.00,4.2413
1015.00,4.3344
1014.00,4.2753
1013.00,4.1178
1012.00,3.9561
1011.00,3.8509
1010.00,3.8111
1009.00,3.8070
1008.00,3.7851
1007.00,3.7263
1006.00,3.6442
1005.00,3.5565
1004.00,3.4784
1003.00,3.4119
1002.00,3.3558
1001.00,3.3152
1000.00,3.2962
999.00,3.2985
998.00,3.3111
997.00,3.3161
996.00,3.3053
995.00,3.2917
994.00,3.2964
993.00,3.3300
992.00,3.3895
991.00,3.4635
990.00,3.5386
989.00,3.6029
988.00,3.6621
987.00,3.7372
986.00,3.8374
985.00,3.9412
984.00,3.9964
983.00,3.9723
982.00,3.9049
981.00,3.8435
980.00,3.8192
979.00,3.8594
978.00,3.9980
977.00,4.2956
976.00,4.7599
975.00,4.4756
974.00,4.3780
973.00,4.5046
972.00,5.1623
971.00,4.7021
970.00,4.3842
969.00,4.2334
968.00,4.1316
967.00,4.0458
966.00,3.9950
965.00,4.0166
964.00,4.1191
963.00,4.3145
962.00,4.6579
961.00,4.4120
960.00,4.1371
959.00,4.0055
958.00,3.9346
957.00,3.8964
956.00,3.8984
955.00,3.9263
954.00,3.9580
953.00,4.0140
952.00,4.0737
951.00,4.0579
950.00,4.0271
949.00,4.0674
948.00,4.2016
947.00,4.3858
946.00,4.6020
945.00,4.6377
944.00,4.2467
943.00,4.1189
942.00,4.1353
941.00,4.1766
940.00,4.1876
939.00,4.1933
938.00,4.2139
937.00,4.2729
936.00,4.3781
935.00,4.3936
934.00,4.2925
933.00,4.2340
932.00,4.1970
931.00,4.1841
930.00,4.2461
929.00,4.3307
928.00,4.2867
927.00,4.1421
926.00,4.0109
925.00,3.9462
924.00,3.9625
923.00,4.0917
922.00,4.4233
921.00,4.4685
920.00,4.1596
919.00,4.0355
918.00,4.0080
917.00,4.0241
916.00,4.0256
915.00,3.9894
914.00,3.9582
913.00,3.9462
912.00,3.9268
911.00,3.9198
910.00,3.9766
909.00,4.0735
908.00,4.0966
907.00,4.0920
906.00,4.1358
905.00,4.1654
904.00,4.1932
903.00,4.3017
902.00,4.4642
901.00,4.5313
900.00,4.4811
899.00,4.3384
898.00,4.1236
897.00,3.9654
896.00,3.8776
895.00,3.8711
894.00,3.9707
893.00,4.1793
892.00,4.4683
891.00,4.8319
890.00,4.8198
889.00,4.5300
888.00,4.5042
887.00,4.7720
886.00,4.6657
885.00,4.2884
884.00,4.1542
883.00,4.1683
882.00,4.2958
881.00,4.2998
880.00,4.0264
879.00,3.8525
878.00,3.8244
877.00,3.9397
876.00,4.1911
875.00,4.3754
874.00,4.2303
873.00,4.0539
872.00,4.0167
871.00,4.1223
870.00,4.2395
869.00,4.3026
868.00,4.2997
867.00,4.1082
866.00,3.9878
865.00,3.9627
864.00,3.9839
863.00,4.0193
862.00,4.0595
861.00,4.0907
860.00,4.1874
859.00,4.4424
858.00,4.1804
857.00,3.9654
856.00,3.9490
855.00,3.9355
854.00,3.8966
853.00,3.9395
852.00,4.0572
851.00,4.1170
850.00,4.0580
849.00,4.0279
848.00,4.1168
847.00,4.2861
846.00,4.4094
845.00,4.3683
844.00,4.2990
843.00,4.4572
842.00,4.3281
841.00,4.0313
840.00,3.9487
839.00,4.0295
838.00,4.2510
837.00,4.3532
836.00,4.2765
835.00,4.2914
834.00,4.2923
833.00,4.2246
832.00,4.0693
831.00,3.8984
830.00,3.7995
829.00,3.7632
828.00,3.7641
827.00,3.8060
826.00,3.9148
825.00,4.0377
824.00,4.0889
823.00,4.1990
822.00,4.5334
821.00,4.9844
820.00,4.4771
819.00,4.2225
818.00,4.1720
817.00,4.4434
816.00,4.4614
815.00,4.0441
814.00,4.0327
813.00,4.2136
812.00,4.1602
811.00,4.0137
810.00,3.9676
809.00,3.9901
808.00,4.0389
807.00,4.0489
806.00,4.0149
805.00,4.0980
804.00,4.4983
803.00,4.6581
802.00,4.4866
801.00,4.4928
800.00,4.2203
799.00,4.1663
798.00,4.3554
797.00,4.7153
796.00,4.4500
795.00,4.3848
794.00,4.8079
793.00,4.3222
792.00,4.0116
791.00,3.9044
790.00,3.8498
789.00,3.7974
788.00,3.7493
787.00,3.7377
786.00,3.7737
785.00,3.8648
784.00,4.0101
783.00,4.1994
782.00,4.3528
781.00,4.3343
780.00,4.2858
779.00,4.3041
778.00,4.3533
777.00,4.2332
776.00,3.9906
775.00,3.8616
774.00,3.8651
773.00,3.9667
772.00,4.1063
771.00,4.2930
770.00,4.5150
769.00,4.4321
768.00,4.2710
767.00,4.1820
766.00,4.1760
765.00,4.1933
764.00,4.1440
763.00,4.1240
762.00,4.2934
761.00,4.4510
760.00,4.1363
759.00,3.9506
758.00,3.8682
757.00,3.8341
756.00,3.8505
755.00,3.9125
754.00,4.0293
753.00,4.1540
752.00,4.1450
751.00,3.9951
750.00,3.8619
749.00,3.8060
748.00,3.8431
747.00,3.9705
746.00,4.2118
745.00,4.4142
744.00,4.1521
743.00,3.9352
742.00,3.8540
741.00,3.8699
740.00,3.9395
739.00,3.9522
738.00,3.8822
737.00,3.8180
736.00,3.8869
735.00,4.1084
734.00,4.0599
733.00,3.9097
732.00,3.9310
731.00,4.0532
730.00,4.1950
729.00,4.2783
728.00,4.2576
727.00,4.1427
726.00,4.0310
725.00,3.9709
724.00,3.9430
723.00,3.8990
722.00,3.8673
721.00,3.9047
720.00,4.0912
719.00,4.4750
718.00,4.4530
717.00,4.2932
716.00,4.2756
715.00,4.4542
714.00,4.5119
713.00,4.2000
712.00,4.1607
711.00,4.2736
710.00,4.4089
709.00,4.6238
708.00,4.6871
707.00,4.3953
706.00,4.2000
705.00,4.2090
704.00,4.3483
703.00,4.4825
702.00,4.3916
701.00,4.2022
700.00,4.1560
