Created as New Dataset,Sample 047 By Administrator Date Wednesday, November 24 2021
cm-1,A
7502.00,0.8243
7501.00,0.8256
7500.00,0.8262
7499.00,0.8251
7498.00,0.8219
7497.00,0.8172
7496.00,0.8125
7495.00,0.8082
7494.00,0.8044
7493.00,0.8010
7492.00,0.7982
7491.00,0.7965
7490.00,0.7954
7489.00,0.7940
7488.00,0.7913
7487.00,0.7867
7486.00,0.7803
7485.00,0.7727
7484.00,0.7642
7483.00,0.7548
7482.00,0.7451
7481.00,0.7362
7480.00,0.7285
7479.00,0.7217
7478.00,0.7150
7477.00,0.7081
7476.00,0.7018
7475.00,0.6967
7474.00,0.6925
7473.00,0.6882
7472.00,0.6832
7471.00,0.6769
7470.00,0.6696
7469.00,0.6615
7468.00,0.6531
7467.00,0.6446
7466.00,0.6364
7465.00,0.6286
7464.00,0.6213
7463.00,0.6140
7462.00,0.6068
7461.00,0.5994
7460.00,0.5919
7459.00,0.5843
7458.00,0.5771
7457.00,0.5706
7456.00,0.5652
7455.00,0.5609
7454.00,0.5572
7453.00,0.5536
7452.00,0.5499
7451.00,0.5461
7450.00,0.5425
7449.00,0.5390
7448.00,0.5357
7447.00,0.5328
7446.00,0.5305
7445.00,0.5288
7444.00,0.5271
7443.00,0.5253
7442.00,0.5237
7441.00,0.5227
7440.00,0.5222
7439.00,0.5219
7438.00,0.5217
7437.00,0.5217
7436.00,0.5221
7435.00,0.5232
7434.00,0.5245
7433.00,0.5258
7432.00,0.5272
7431.00,0.5290
7430.00,0.5316
7429.00,0.5352
7428.00,0.5395
7427.00,0.5443
7426.00,0.5495
7425.00,0.5549
7424.00,0.5605
7423.00,0.5663
7422.00,0.5725
7421.00,0.5790
7420.00,0.5854
7419.00,0.5917
7418.00,0.5980
7417.00,0.6046
7416.00,0.6117
7415.00,0.6188
7414.00,0.6261
7413.00,0.6336
7412.00,0.6416
7411.00,0.6501
7410.00,0.6591
7409.00,0.6683
7408.00,0.6775
7407.00,0.6864
7406.00,0.6953
7405.00,0.7041
7404.00,0.7128
7403.00,0.7213
7402.00,0.7299
7401.00,0.7389
7400.00,0.7480
7399.00,0.7571
7398.00,0.7663
7397.00,0.7757
7396.00,0.7852
7395.00,0.7943
7394.00,0.8030
7393.00,0.8115
7392.00,0.8198
7391.00,0.8278
7390.00,0.8356
7389.00,0.8435
7388.00,0.8518
7387.00,0.8602
7386.00,0.8683
7385.00,0.8760
7384.00,0.8833
7383.00,0.8906
7382.00,0.8981
7381.00,0.9055
7380.00,0.9127
7379.00,0.9198
7378.00,0.9268
7377.00,0.9338
7376.00,0.9401
7375.00,0.9455
7374.00,0.9501
7373.00,0.9543
7372.00,0.9585
7371.00,0.9627
7370.00,0.9669
7369.00,0.9704
7368.00,0.9732
7367.00,0.9754
7366.00,0.9778
7365.00,0.9807
7364.00,0.9833
7363.00,0.9849
7362.00,0.9861
7361.00,0.9879
7360.00,0.9905
7359.00,0.9929
7358.00,0.9942
7357.00,0.9943
7356.00,0.9939
7355.00,0.9934
7354.00,0.9929
7353.00,0.9921
7352.00,0.9906
7351.00,0.9882
7350.00,0.9855
7349.00,0.9827
7348.00,0.9801
7347.00,0.9771
7346.00,0.9737
7345.00,0.9702
7344.00,0.9665
7343.00,0.9622
7342.00,0.9572
7341.00,0.9520
7340.00,0.9472
7339.00,0.9424
7338.00,0.9367
7337.00,0.9302
7336.00,0.9235
7335.00,0.9173
7334.00,0.9110
7333.00,0.9040
7332.00,0.8959
7331.00,0.8878
7330.00,0.8804
7329.00,0.8737
7328.00,0.8670
7327.00,0.8598
7326.00,0.8521
7325.00,0.8442
7324.00,0.8360
7323.00,0.8275
7322.00,0.8186
7321.00,0.8098
7320.00,0.8011
7319.00,0.7927
7318.00,0.7846
7317.00,0.7768
7316.00,0.7692
7315.00,0.7615
7314.00,0.7538
7313.00,0.7460
7312.00,0.7383
7311.00,0.7308
7310.00,0.7237
7309.00,0.7172
7308.00,0.7110
7307.00,0.7049
7306.00,0.6988
7305.00,0.6929
7304.00,0.6874
7303.00,0.6823
7302.00,0.6774
7301.00,0.6728
7300.00,0.6686
7299.00,0.6651
7298.00,0.6621
7297.00,0.6597
7296.00,0.6577
7295.00,0.6561
7294.00,0.6548
7293.00,0.6538
7292.00,0.6534
7291.00,0.6539
7290.00,0.6552
7289.00,0.6570
7288.00,0.6590
7287.00,0.6611
7286.00,0.6636
7285.00,0.6665
7284.00,0.6695
7283.00,0.6726
7282.00,0.6760
7281.00,0.6800
7280.00,0.6848
7279.00,0.6902
7278.00,0.6963
7277.00,0.7026
7276.00,0.7090
7275.00,0.7153
7274.00,0.7216
7273.00,0.7283
7272.00,0.7353
7271.00,0.7426
7270.00,0.7502
7269.00,0.7579
7268.00,0.7657
7267.00,0.7737
7266.00,0.7820
7265.00,0.7903
7264.00,0.7983
7263.00,0.8059
7262.00,0.8138
7261.00,0.8223
7260.00,0.8313
7259.00,0.8401
7258.00,0.8485
7257.00,0.8568
7256.00,0.8652
7255.00,0.8738
7254.00,0.8824
7253.00,0.8909
7252.00,0.8991
7251.00,0.9066
7250.00,0.9139
7249.00,0.9215
7248.00,0.9295
7247.00,0.9374
7246.00,0.9448
7245.00,0.9516
7244.00,0.9583
7243.00,0.9654
7242.00,0.9724
7241.00,0.9791
7240.00,0.9852
7239.00,0.9907
7238.00,0.9961
7237.00,1.0017
7236.00,1.0073
7235.00,1.0125
7234.00,1.0170
7233.00,1.0209
7232.00,1.0248
7231.00,1.0287
7230.00,1.0326
7229.00,1.0362
7228.00,1.0395
7227.00,1.0424
7226.00,1.0449
7225.00,1.0472
7224.00,1.0492
7223.00,1.0509
7222.00,1.0523
7221.00,1.0533
7220.00,1.0539
7219.00,1.0542
7218.00,1.0542
7217.00,1.0542
7216.00,1.0541
7215.00,1.0536
7214.00,1.0527
7213.00,1.0513
7212.00,1.0495
7211.00,1.0476
7210.00,1.0454
7209.00,1.0424
7208.00,1.0387
7207.00,1.0344
7206.00,1.0302
7205.00,1.0263
7204.00,1.0227
7203.00,1.0189
7202.00,1.0145
7201.00,1.0097
7200.00,1.0047
7199.00,0.9997
7198.00,0.9944
7197.00,0.9886
7196.00,0.9821
7195.00,0.9748
7194.00,0.9673
7193.00,0.9599
7192.00,0.9525
7191.00,0.9449
7190.00,0.9368
7189.00,0.9289
7188.00,0.9214
7187.00,0.9141
7186.00,0.9065
7185.00,0.8983
7184.00,0.8897
7183.00,0.8809
7182.00,0.8721
7181.00,0.8635
7180.00,0.8554
7179.00,0.8479
7178.00,0.8407
7177.00,0.8335
7176.00,0.8260
7175.00,0.8183
7174.00,0.8103
7173.00,0.8021
7172.00,0.7936
7171.00,0.7851
7170.00,0.7768
7169.00,0.7687
7168.00,0.7610
7167.00,0.7536
7166.00,0.7468
7165.00,0.7406
7164.00,0.7349
7163.00,0.7295
7162.00,0.7243
7161.00,0.7194
7160.00,0.7149
7159.00,0.7108
7158.00,0.7069
7157.00,0.7032
7156.00,0.6997
7155.00,0.6966
7154.00,0.6942
7153.00,0.6926
7152.00,0.6915
7151.00,0.6908
7150.00,0.6905
7149.00,0.6906
7148.00,0.6911
7147.00,0.6917
7146.00,0.6926
7145.00,0.6942
7144.00,0.6965
7143.00,0.6995
7142.00,0.7029
7141.00,0.7068
7140.00,0.7111
7139.00,0.7159
7138.00,0.7210
7137.00,0.7263
7136.00,0.7317
7135.00,0.7374
7134.00,0.7434
7133.00,0.7498
7132.00,0.7565
7131.00,0.7631
7130.00,0.7696
7129.00,0.7764
7128.00,0.7835
7127.00,0.7909
7126.00,0.7982
7125.00,0.8055
7124.00,0.8130
7123.00,0.8212
7122.00,0.8298
7121.00,0.8385
7120.00,0.8469
7119.00,0.8551
7118.00,0.8634
7117.00,0.8719
7116.00,0.8805
7115.00,0.8891
7114.00,0.8980
7113.00,0.9072
7112.00,0.9165
7111.00,0.9257
7110.00,0.9346
7109.00,0.9433
7108.00,0.9518
7107.00,0.9601
7106.00,0.9678
7105.00,0.9753
7104.00,0.9828
7103.00,0.9905
7102.00,0.9982
7101.00,1.0057
7100.00,1.0131
7099.00,1.0204
7098.00,1.0278
7097.00,1.0350
7096.00,1.0417
7095.00,1.0479
7094.00,1.0541
7093.00,1.0603
7092.00,1.0664
7091.00,1.0722
7090.00,1.0774
7089.00,1.0824
7088.00,1.0874
7087.00,1.0922
7086.00,1.0965
7085.00,1.1001
7084.00,1.1029
7083.00,1.1056
7082.00,1.1084
7081.00,1.1112
7080.00,1.1135
7079.00,1.1151
7078.00,1.1165
7077.00,1.1180
7076.00,1.1197
7075.00,1.1210
7074.00,1.1214
7073.00,1.1211
7072.00,1.1207
7071.00,1.1206
7070.00,1.1206
7069.00,1.1203
7068.00,1.1196
7067.00,1.1182
7066.00,1.1163
7065.00,1.1139
7064.00,1.1111
7063.00,1.1079
7062.00,1.1047
7061.00,1.1015
7060.00,1.0984
7059.00,1.0948
7058.00,1.0907
7057.00,1.0860
7056.00,1.0806
7055.00,1.0747
7054.00,1.0684
7053.00,1.0622
7052.00,1.0561
7051.00,1.0500
7050.00,1.0440
7049.00,1.0379
7048.00,1.0311
7047.00,1.0235
7046.00,1.0152
7045.00,1.0070
7044.00,0.9988
7043.00,0.9905
7042.00,0.9817
7041.00,0.9725
7040.00,0.9630
7039.00,0.9536
7038.00,0.9444
7037.00,0.9351
7036.00,0.9258
7035.00,0.9167
7034.00,0.9079
7033.00,0.8995
7032.00,0.8911
7031.00,0.8825
7030.00,0.8737
7029.00,0.8650
7028.00,0.8564
7027.00,0.8479
7026.00,0.8396
7025.00,0.8313
7024.00,0.8233
7023.00,0.8155
7022.00,0.8079
7021.00,0.8007
7020.00,0.7938
7019.00,0.7874
7018.00,0.7816
7017.00,0.7762
7016.00,0.7713
7015.00,0.7667
7014.00,0.7625
7013.00,0.7586
7012.00,0.7552
7011.00,0.7521
7010.00,0.7494
7009.00,0.7471
7008.00,0.7453
7007.00,0.7440
7006.00,0.7432
7005.00,0.7429
7004.00,0.7432
7003.00,0.7440
7002.00,0.7453
7001.00,0.7470
7000.00,0.7492
6999.00,0.7518
6998.00,0.7548
6997.00,0.7583
6996.00,0.7622
6995.00,0.7665
6994.00,0.7715
6993.00,0.7770
6992.00,0.7828
6991.00,0.7888
6990.00,0.7951
6989.00,0.8016
6988.00,0.8081
6987.00,0.8146
6986.00,0.8214
6985.00,0.8287
6984.00,0.8364
6983.00,0.8444
6982.00,0.8526
6981.00,0.8610
6980.00,0.8693
6979.00,0.8774
6978.00,0.8853
6977.00,0.8935
6976.00,0.9020
6975.00,0.9109
6974.00,0.9198
6973.00,0.9286
6972.00,0.9375
6971.00,0.9461
6970.00,0.9546
6969.00,0.9630
6968.00,0.9712
6967.00,0.9790
6966.00,0.9867
6965.00,0.9944
6964.00,1.0021
6963.00,1.0096
6962.00,1.0170
6961.00,1.0244
6960.00,1.0320
6959.00,1.0396
6958.00,1.0471
6957.00,1.0543
6956.00,1.0610
6955.00,1.0670
6954.00,1.0725
6953.00,1.0779
6952.00,1.0837
6951.00,1.0896
6950.00,1.0953
6949.00,1.1008
6948.00,1.1062
6947.00,1.1112
6946.00,1.1155
6945.00,1.1192
6944.00,1.1225
6943.00,1.1253
6942.00,1.1277
6941.00,1.1297
6940.00,1.1317
6939.00,1.1336
6938.00,1.1354
6937.00,1.1369
6936.00,1.1381
6935.00,1.1391
6934.00,1.1397
6933.00,1.1397
6932.00,1.1390
6931.00,1.1381
6930.00,1.1372
6929.00,1.1361
6928.00,1.1349
6927.00,1.1335
6926.00,1.1319
6925.00,1.1299
6924.00,1.1273
6923.00,1.1239
6922.00,1.1199
6921.00,1.1156
6920.00,1.1113
6919.00,1.1071
6918.00,1.1030
6917.00,1.0988
6916.00,1.0940
6915.00,1.0885
6914.00,1.0826
6913.00,1.0763
6912.00,1.0696
6911.00,1.0626
6910.00,1.0555
6909.00,1.0482
6908.00,1.0409
6907.00,1.0334
6906.00,1.0256
6905.00,1.0177
6904.00,1.0095
6903.00,1.0009
6902.00,0.9922
6901.00,0.9834
6900.00,0.9744
6899.00,0.9652
6898.00,0.9559
6897.00,0.9467
6896.00,0.9377
6895.00,0.9286
6894.00,0.9193
6893.00,0.9101
6892.00,0.9008
6891.00,0.8913
6890.00,0.8817
6889.00,0.8722
6888.00,0.8631
6887.00,0.8543
6886.00,0.8458
6885.00,0.8374
6884.00,0.8293
6883.00,0.8214
6882.00,0.8139
6881.00,0.8068
6880.00,0.8001
6879.00,0.7935
6878.00,0.7870
6877.00,0.7809
6876.00,0.7751
6875.00,0.7697
6874.00,0.7645
6873.00,0.7597
6872.00,0.7554
6871.00,0.7517
6870.00,0.7484
6869.00,0.7455
6868.00,0.7429
6867.00,0.7407
6866.00,0.7391
6865.00,0.7380
6864.00,0.7375
6863.00,0.7375
6862.00,0.7379
6861.00,0.7389
6860.00,0.7403
6859.00,0.7419
6858.00,0.7439
6857.00,0.7462
6856.00,0.7490
6855.00,0.7524
6854.00,0.7565
6853.00,0.7611
6852.00,0.7663
6851.00,0.7718
6850.00,0.7776
6849.00,0.7837
6848.00,0.7899
6847.00,0.7961
6846.00,0.8024
6845.00,0.8092
6844.00,0.8165
6843.00,0.8240
6842.00,0.8319
6841.00,0.8400
6840.00,0.8483
6839.00,0.8567
6838.00,0.8651
6837.00,0.8735
6836.00,0.8820
6835.00,0.8907
6834.00,0.8994
6833.00,0.9084
6832.00,0.9174
6831.00,0.9265
6830.00,0.9354
6829.00,0.9441
6828.00,0.9529
6827.00,0.9618
6826.00,0.9707
6825.00,0.9795
6824.00,0.9883
6823.00,0.9974
6822.00,1.0065
6821.00,1.0155
6820.00,1.0241
6819.00,1.0323
6818.00,1.0403
6817.00,1.0481
6816.00,1.0558
6815.00,1.0633
6814.00,1.0709
6813.00,1.0785
6812.00,1.0860
6811.00,1.0932
6810.00,1.1001
6809.00,1.1065
6808.00,1.1124
6807.00,1.1180
6806.00,1.1235
6805.00,1.1291
6804.00,1.1346
6803.00,1.1398
6802.00,1.1448
6801.00,1.1494
6800.00,1.1535
6799.00,1.1570
6798.00,1.1601
6797.00,1.1630
6796.00,1.1660
6795.00,1.1692
6794.00,1.1723
6793.00,1.1752
6792.00,1.1774
6791.00,1.1790
6790.00,1.1800
6789.00,1.1807
6788.00,1.1812
6787.00,1.1812
6786.00,1.1807
6785.00,1.1798
6784.00,1.1788
6783.00,1.1777
6782.00,1.1761
6781.00,1.1741
6780.00,1.1717
6779.00,1.1693
6778.00,1.1665
6777.00,1.1633
6776.00,1.1595
6775.00,1.1553
6774.00,1.1507
6773.00,1.1456
6772.00,1.1403
6771.00,1.1350
6770.00,1.1297
6769.00,1.1240
6768.00,1.1180
6767.00,1.1117
6766.00,1.1051
6765.00,1.0982
6764.00,1.0909
6763.00,1.0833
6762.00,1.0757
6761.00,1.0681
6760.00,1.0600
6759.00,1.0515
6758.00,1.0427
6757.00,1.0337
6756.00,1.0243
6755.00,1.0146
6754.00,1.0048
6753.00,0.9951
6752.00,0.9856
6751.00,0.9760
6750.00,0.9664
6749.00,0.9570
6748.00,0.9475
6747.00,0.9380
6746.00,0.9283
6745.00,0.9187
6744.00,0.9089
6743.00,0.8992
6742.00,0.8896
6741.00,0.8805
6740.00,0.8716
6739.00,0.8629
6738.00,0.8542
6737.00,0.8458
6736.00,0.8378
6735.00,0.8302
6734.00,0.8229
6733.00,0.8158
6732.00,0.8091
6731.00,0.8029
6730.00,0.7972
6729.00,0.7919
6728.00,0.7870
6727.00,0.7825
6726.00,0.7786
6725.00,0.7753
6724.00,0.7725
6723.00,0.7701
6722.00,0.7683
6721.00,0.7672
6720.00,0.7667
6719.00,0.7667
6718.00,0.7671
6717.00,0.7679
6716.00,0.7691
6715.00,0.7707
6714.00,0.7728
6713.00,0.7754
6712.00,0.7784
6711.00,0.7820
6710.00,0.7861
6709.00,0.7909
6708.00,0.7960
6707.00,0.8014
6706.00,0.8071
6705.00,0.8132
6704.00,0.8197
6703.00,0.8265
6702.00,0.8335
6701.00,0.8409
6700.00,0.8485
6699.00,0.8563
6698.00,0.8643
6697.00,0.8726
6696.00,0.8810
6695.00,0.8895
6694.00,0.8981
6693.00,0.9070
6692.00,0.9160
6691.00,0.9248
6690.00,0.9334
6689.00,0.9420
6688.00,0.9506
6687.00,0.9591
6686.00,0.9678
6685.00,0.9766
6684.00,0.9856
6683.00,0.9944
6682.00,1.0028
6681.00,1.0111
6680.00,1.0195
6679.00,1.0280
6678.00,1.0365
6677.00,1.0450
6676.00,1.0535
6675.00,1.0621
6674.00,1.0704
6673.00,1.0783
6672.00,1.0856
6671.00,1.0924
6670.00,1.0988
6669.00,1.1051
6668.00,1.1113
6667.00,1.1174
6666.00,1.1232
6665.00,1.1288
6664.00,1.1343
6663.00,1.1393
6662.00,1.1438
6661.00,1.1479
6660.00,1.1518
6659.00,1.1556
6658.00,1.1591
6657.00,1.1625
6656.00,1.1658
6655.00,1.1690
6654.00,1.1717
6653.00,1.1739
6652.00,1.1756
6651.00,1.1768
6650.00,1.1779
6649.00,1.1788
6648.00,1.1793
6647.00,1.1794
6646.00,1.1793
6645.00,1.1789
6644.00,1.1780
6643.00,1.1765
6642.00,1.1744
6641.00,1.1721
6640.00,1.1696
6639.00,1.1668
6638.00,1.1639
6637.00,1.1610
6636.00,1.1580
6635.00,1.1545
6634.00,1.1503
6633.00,1.1455
6632.00,1.1405
6631.00,1.1353
6630.00,1.1297
6629.00,1.1237
6628.00,1.1173
6627.00,1.1107
6626.00,1.1038
6625.00,1.0967
6624.00,1.0894
6623.00,1.0818
6622.00,1.0740
6621.00,1.0657
6620.00,1.0572
6619.00,1.0485
6618.00,1.0397
6617.00,1.0307
6616.00,1.0214
6615.00,1.0121
6614.00,1.0026
6613.00,0.9931
6612.00,0.9834
6611.00,0.9736
6610.00,0.9639
6609.00,0.9541
6608.00,0.9444
6607.00,0.9347
6606.00,0.9250
6605.00,0.9154
6604.00,0.9057
6603.00,0.8960
6602.00,0.8863
6601.00,0.8771
6600.00,0.8681
6599.00,0.8592
6598.00,0.8505
6597.00,0.8422
6596.00,0.8341
6595.00,0.8262
6594.00,0.8185
6593.00,0.8111
6592.00,0.8040
6591.00,0.7973
6590.00,0.7909
6589.00,0.7849
6588.00,0.7793
6587.00,0.7741
6586.00,0.7693
6585.00,0.7649
6584.00,0.7610
6583.00,0.7575
6582.00,0.7547
6581.00,0.7525
6580.00,0.7508
6579.00,0.7495
6578.00,0.7486
6577.00,0.7481
6576.00,0.7480
6575.00,0.7484
6574.00,0.7494
6573.00,0.7510
6572.00,0.7532
6571.00,0.7559
6570.00,0.7592
6569.00,0.7631
6568.00,0.7674
6567.00,0.7719
6566.00,0.7767
6565.00,0.7821
6564.00,0.7878
6563.00,0.7938
6562.00,0.8001
6561.00,0.8068
6560.00,0.8140
6559.00,0.8217
6558.00,0.8296
6557.00,0.8377
6556.00,0.8459
6555.00,0.8543
6554.00,0.8628
6553.00,0.8714
6552.00,0.8803
6551.00,0.8896
6550.00,0.8990
6549.00,0.9085
6548.00,0.9180
6547.00,0.9275
6546.00,0.9369
6545.00,0.9460
6544.00,0.9550
6543.00,0.9639
6542.00,0.9732
6541.00,0.9826
6540.00,0.9920
6539.00,1.0014
6538.00,1.0107
6537.00,1.0201
6536.00,1.0294
6535.00,1.0385
6534.00,1.0477
6533.00,1.0566
6532.00,1.0650
6531.00,1.0728
6530.00,1.0802
6529.00,1.0877
6528.00,1.0950
6527.00,1.1022
6526.00,1.1095
6525.00,1.1168
6524.00,1.1243
6523.00,1.1316
6522.00,1.1386
6521.00,1.1450
6520.00,1.1511
6519.00,1.1567
6518.00,1.1618
6517.00,1.1665
6516.00,1.1705
6515.00,1.1741
6514.00,1.1776
6513.00,1.1811
6512.00,1.1846
6511.00,1.1879
6510.00,1.1911
6509.00,1.1940
6508.00,1.1966
6507.00,1.1988
6506.00,1.2007
6505.00,1.2022
6504.00,1.2034
6503.00,1.2042
6502.00,1.2042
6501.00,1.2035
6500.00,1.2025
6499.00,1.2013
6498.00,1.2001
6497.00,1.1985
6496.00,1.1963
6495.00,1.1940
6494.00,1.1918
6493.00,1.1893
6492.00,1.1862
6491.00,1.1824
6490.00,1.1783
6489.00,1.1739
6488.00,1.1692
6487.00,1.1643
6486.00,1.1592
6485.00,1.1540
6484.00,1.1483
6483.00,1.1420
6482.00,1.1353
6481.00,1.1285
6480.00,1.1212
6479.00,1.1135
6478.00,1.1054
6477.00,1.0971
6476.00,1.0885
6475.00,1.0795
6474.00,1.0701
6473.00,1.0606
6472.00,1.0511
6471.00,1.0416
6470.00,1.0321
6469.00,1.0224
6468.00,1.0125
6467.00,1.0022
6466.00,0.9917
6465.00,0.9812
6464.00,0.9708
6463.00,0.9604
6462.00,0.9500
6461.00,0.9396
6460.00,0.9291
6459.00,0.9187
6458.00,0.9085
6457.00,0.8984
6456.00,0.8884
6455.00,0.8784
6454.00,0.8686
6453.00,0.8590
6452.00,0.8496
6451.00,0.8404
6450.00,0.8317
6449.00,0.8233
6448.00,0.8154
6447.00,0.8079
6446.00,0.8008
6445.00,0.7943
6444.00,0.7883
6443.00,0.7827
6442.00,0.7777
6441.00,0.7733
6440.00,0.7694
6439.00,0.7659
6438.00,0.7628
6437.00,0.7603
6436.00,0.7583
6435.00,0.7569
6434.00,0.7560
6433.00,0.7558
6432.00,0.7561
6431.00,0.7570
6430.00,0.7583
6429.00,0.7603
6428.00,0.7627
6427.00,0.7657
6426.00,0.7693
6425.00,0.7735
6424.00,0.7782
6423.00,0.7834
6422.00,0.7890
6421.00,0.7951
6420.00,0.8014
6419.00,0.8080
6418.00,0.8149
6417.00,0.8221
6416.00,0.8296
6415.00,0.8374
6414.00,0.8455
6413.00,0.8539
6412.00,0.8624
6411.00,0.8708
6410.00,0.8794
6409.00,0.8884
6408.00,0.8977
6407.00,0.9070
6406.00,0.9164
6405.00,0.9259
6404.00,0.9355
6403.00,0.9451
6402.00,0.9545
6401.00,0.9635
6400.00,0.9724
6399.00,0.9813
6398.00,0.9905
6397.00,0.9997
6396.00,1.0089
6395.00,1.0178
6394.00,1.0267
6393.00,1.0357
6392.00,1.0447
6391.00,1.0533
6390.00,1.0615
6389.00,1.0697
6388.00,1.0779
6387.00,1.0860
6386.00,1.0936
6385.00,1.1010
6384.00,1.1082
6383.00,1.1152
6382.00,1.1217
6381.00,1.1277
6380.00,1.1335
6379.00,1.1390
6378.00,1.1442
6377.00,1.1494
6376.00,1.1546
6375.00,1.1598
6374.00,1.1646
6373.00,1.1687
6372.00,1.1720
6371.00,1.1748
6370.00,1.1773
6369.00,1.1797
6368.00,1.1820
6367.00,1.1841
6366.00,1.1862
6365.00,1.1882
6364.00,1.1898
6363.00,1.1905
6362.00,1.1905
6361.00,1.1901
6360.00,1.1898
6359.00,1.1894
6358.00,1.1886
6357.00,1.1871
6356.00,1.1852
6355.00,1.1830
6354.00,1.1804
6353.00,1.1775
6352.00,1.1743
6351.00,1.1708
6350.00,1.1674
6349.00,1.1638
6348.00,1.1596
6347.00,1.1548
6346.00,1.1496
6345.00,1.1442
6344.00,1.1386
6343.00,1.1328
6342.00,1.1266
6341.00,1.1204
6340.00,1.1142
6339.00,1.1080
6338.00,1.1016
6337.00,1.0951
6336.00,1.0886
6335.00,1.0819
6334.00,1.0751
6333.00,1.0680
6332.00,1.0604
6331.00,1.0523
6330.00,1.0438
6329.00,1.0350
6328.00,1.0258
6327.00,1.0160
6326.00,1.0058
6325.00,0.9954
6324.00,0.9846
6323.00,0.9735
6322.00,0.9621
6321.00,0.9508
6320.00,0.9395
6319.00,0.9280
6318.00,0.9164
6317.00,0.9047
6316.00,0.8932
6315.00,0.8817
6314.00,0.8704
6313.00,0.8595
6312.00,0.8490
6311.00,0.8390
6310.00,0.8294
6309.00,0.8201
6308.00,0.8112
6307.00,0.8026
6306.00,0.7945
6305.00,0.7868
6304.00,0.7795
6303.00,0.7726
6302.00,0.7661
6301.00,0.7600
6300.00,0.7543
6299.00,0.7493
6298.00,0.7448
6297.00,0.7411
6296.00,0.7378
6295.00,0.7351
6294.00,0.7329
6293.00,0.7313
6292.00,0.7302
6291.00,0.7295
6290.00,0.7295
6289.00,0.7302
6288.00,0.7314
6287.00,0.7333
6286.00,0.7358
6285.00,0.7389
6284.00,0.7425
6283.00,0.7466
6282.00,0.7511
6281.00,0.7561
6280.00,0.7613
6279.00,0.7669
6278.00,0.7731
6277.00,0.7798
6276.00,0.7870
6275.00,0.7944
6274.00,0.8022
6273.00,0.8103
6272.00,0.8187
6271.00,0.8272
6270.00,0.8357
6269.00,0.8444
6268.00,0.8535
6267.00,0.8628
6266.00,0.8725
6265.00,0.8823
6264.00,0.8922
6263.00,0.9020
6262.00,0.9117
6261.00,0.9213
6260.00,0.9309
6259.00,0.9405
6258.00,0.9503
6257.00,0.9603
6256.00,0.9706
6255.00,0.9808
6254.00,0.9908
6253.00,1.0005
6252.00,1.0100
6251.00,1.0194
6250.00,1.0287
6249.00,1.0378
6248.00,1.0466
6247.00,1.0554
6246.00,1.0642
6245.00,1.0730
6244.00,1.0815
6243.00,1.0897
6242.00,1.0981
6241.00,1.1066
6240.00,1.1146
6239.00,1.1218
6238.00,1.1284
6237.00,1.1350
6236.00,1.1417
6235.00,1.1480
6234.00,1.1540
6233.00,1.1598
6232.00,1.1654
6231.00,1.1703
6230.00,1.1746
6229.00,1.1785
6228.00,1.1825
6227.00,1.1863
6226.00,1.1897
6225.00,1.1924
6224.00,1.1945
6223.00,1.1965
6222.00,1.1984
6221.00,1.2002
6220.00,1.2017
6219.00,1.2030
6218.00,1.2039
6217.00,1.2042
6216.00,1.2036
6215.00,1.2024
6214.00,1.2012
6213.00,1.2001
6212.00,1.1992
6211.00,1.1979
6210.00,1.1962
6209.00,1.1939
6208.00,1.1911
6207.00,1.1877
6206.00,1.1838
6205.00,1.1795
6204.00,1.1750
6203.00,1.1701
6202.00,1.1651
6201.00,1.1599
6200.00,1.1541
6199.00,1.1480
6198.00,1.1416
6197.00,1.1350
6196.00,1.1280
6195.00,1.1206
6194.00,1.1129
6193.00,1.1053
6192.00,1.0975
6191.00,1.0892
6190.00,1.0803
6189.00,1.0708
6188.00,1.0610
6187.00,1.0509
6186.00,1.0405
6185.00,1.0300
6184.00,1.0195
6183.00,1.0089
6182.00,0.9984
6181.00,0.9876
6180.00,0.9765
6179.00,0.9654
6178.00,0.9544
6177.00,0.9436
6176.00,0.9328
6175.00,0.9216
6174.00,0.9104
6173.00,0.8992
6172.00,0.8880
6171.00,0.8769
6170.00,0.8659
6169.00,0.8552
6168.00,0.8448
6167.00,0.8348
6166.00,0.8249
6165.00,0.8153
6164.00,0.8059
6163.00,0.7969
6162.00,0.7885
6161.00,0.7805
6160.00,0.7730
6159.00,0.7658
6158.00,0.7592
6157.00,0.7532
6156.00,0.7476
6155.00,0.7425
6154.00,0.7379
6153.00,0.7339
6152.00,0.7305
6151.00,0.7278
6150.00,0.7256
6149.00,0.7242
6148.00,0.7236
6147.00,0.7237
6146.00,0.7244
6145.00,0.7257
6144.00,0.7275
6143.00,0.7299
6142.00,0.7327
6141.00,0.7362
6140.00,0.7402
6139.00,0.7449
6138.00,0.7501
6137.00,0.7558
6136.00,0.7619
6135.00,0.7682
6134.00,0.7750
6133.00,0.7822
6132.00,0.7897
6131.00,0.7976
6130.00,0.8059
6129.00,0.8147
6128.00,0.8237
6127.00,0.8328
6126.00,0.8421
6125.00,0.8514
6124.00,0.8608
6123.00,0.8703
6122.00,0.8800
6121.00,0.8898
6120.00,0.8997
6119.00,0.9097
6118.00,0.9198
6117.00,0.9301
6116.00,0.9403
6115.00,0.9503
6114.00,0.9603
6113.00,0.9703
6112.00,0.9804
6111.00,0.9903
6110.00,1.0000
6109.00,1.0097
6108.00,1.0193
6107.00,1.0286
6106.00,1.0376
6105.00,1.0464
6104.00,1.0549
6103.00,1.0634
6102.00,1.0718
6101.00,1.0801
6100.00,1.0883
6099.00,1.0963
6098.00,1.1041
6097.00,1.1115
6096.00,1.1185
6095.00,1.1250
6094.00,1.1312
6093.00,1.1371
6092.00,1.1426
6091.00,1.1477
6090.00,1.1525
6089.00,1.1573
6088.00,1.1620
6087.00,1.1665
6086.00,1.1707
6085.00,1.1745
6084.00,1.1777
6083.00,1.1804
6082.00,1.1827
6081.00,1.1847
6080.00,1.1862
6079.00,1.1874
6078.00,1.1885
6077.00,1.1893
6076.00,1.1897
6075.00,1.1892
6074.00,1.1879
6073.00,1.1864
6072.00,1.1849
6071.00,1.1832
6070.00,1.1814
6069.00,1.1793
6068.00,1.1770
6067.00,1.1745
6066.00,1.1716
6065.00,1.1686
6064.00,1.1653
6063.00,1.1618
6062.00,1.1579
6061.00,1.1535
6060.00,1.1485
6059.00,1.1430
6058.00,1.1371
6057.00,1.1311
6056.00,1.1248
6055.00,1.1183
6054.00,1.1116
6053.00,1.1047
6052.00,1.0973
6051.00,1.0896
6050.00,1.0817
6049.00,1.0737
6048.00,1.0650
6047.00,1.0558
6046.00,1.0462
6045.00,1.0366
6044.00,1.0268
6043.00,1.0168
6042.00,1.0066
6041.00,0.9966
6040.00,0.9865
6039.00,0.9762
6038.00,0.9655
6037.00,0.9548
6036.00,0.9440
6035.00,0.9330
6034.00,0.9219
6033.00,0.9108
6032.00,0.8998
6031.00,0.8886
6030.00,0.8773
6029.00,0.8660
6028.00,0.8548
6027.00,0.8437
6026.00,0.8327
6025.00,0.8223
6024.00,0.8123
6023.00,0.8025
6022.00,0.7929
6021.00,0.7836
6020.00,0.7749
6019.00,0.7665
6018.00,0.7586
6017.00,0.7511
6016.00,0.7442
6015.00,0.7378
6014.00,0.7318
6013.00,0.7264
6012.00,0.7216
6011.00,0.7174
6010.00,0.7138
6009.00,0.7109
6008.00,0.7085
6007.00,0.7067
6006.00,0.7055
6005.00,0.7051
6004.00,0.7054
6003.00,0.7065
6002.00,0.7082
6001.00,0.7106
6000.00,0.7137
5999.00,0.7173
5998.00,0.7214
5997.00,0.7260
5996.00,0.7311
5995.00,0.7367
5994.00,0.7427
5993.00,0.7490
5992.00,0.7558
5991.00,0.7631
5990.00,0.7709
5989.00,0.7792
5988.00,0.7878
5987.00,0.7965
5986.00,0.8054
5985.00,0.8145
5984.00,0.8237
5983.00,0.8330
5982.00,0.8427
5981.00,0.8528
5980.00,0.8632
5979.00,0.8736
5978.00,0.8840
5977.00,0.8945
5976.00,0.9051
5975.00,0.9158
5974.00,0.9267
5973.00,0.9376
5972.00,0.9485
5971.00,0.9592
5970.00,0.9698
5969.00,0.9805
5968.00,0.9911
5967.00,1.0017
5966.00,1.0122
5965.00,1.0228
5964.00,1.0332
5963.00,1.0433
5962.00,1.0530
5961.00,1.0625
5960.00,1.0718
5959.00,1.0808
5958.00,1.0897
5957.00,1.0983
5956.00,1.1070
5955.00,1.1154
5954.00,1.1235
5953.00,1.1309
5952.00,1.1379
5951.00,1.1443
5950.00,1.1502
5949.00,1.1558
5948.00,1.1611
5947.00,1.1661
5946.00,1.1709
5945.00,1.1754
5944.00,1.1797
5943.00,1.1839
5942.00,1.1878
5941.00,1.1915
5940.00,1.1948
5939.00,1.1975
5938.00,1.1997
5937.00,1.2013
5936.00,1.2027
5935.00,1.2039
5934.00,1.2049
5933.00,1.2058
5932.00,1.2067
5931.00,1.2073
5930.00,1.2073
5929.00,1.2067
5928.00,1.2055
5927.00,1.2039
5926.00,1.2021
5925.00,1.2002
5924.00,1.1980
5923.00,1.1954
5922.00,1.1923
5921.00,1.1888
5920.00,1.1850
5919.00,1.1809
5918.00,1.1762
5917.00,1.1710
5916.00,1.1654
5915.00,1.1594
5914.00,1.1531
5913.00,1.1468
5912.00,1.1406
5911.00,1.1343
5910.00,1.1276
5909.00,1.1205
5908.00,1.1125
5907.00,1.1038
5906.00,1.0946
5905.00,1.0852
5904.00,1.0757
5903.00,1.0661
5902.00,1.0561
5901.00,1.0456
5900.00,1.0349
5899.00,1.0240
5898.00,1.0129
5897.00,1.0016
5896.00,0.9902
5895.00,0.9785
5894.00,0.9666
5893.00,0.9545
5892.00,0.9424
5891.00,0.9302
5890.00,0.9181
5889.00,0.9060
5888.00,0.8940
5887.00,0.8821
5886.00,0.8701
5885.00,0.8583
5884.00,0.8468
5883.00,0.8355
5882.00,0.8245
5881.00,0.8137
5880.00,0.8032
5879.00,0.7928
5878.00,0.7829
5877.00,0.7734
5876.00,0.7645
5875.00,0.7560
5874.00,0.7481
5873.00,0.7407
5872.00,0.7337
5871.00,0.7272
5870.00,0.7213
5869.00,0.7161
5868.00,0.7116
5867.00,0.7079
5866.00,0.7050
5865.00,0.7029
5864.00,0.7014
5863.00,0.7006
5862.00,0.7004
5861.00,0.7009
5860.00,0.7020
5859.00,0.7038
5858.00,0.7062
5857.00,0.7093
5856.00,0.7131
5855.00,0.7176
5854.00,0.7226
5853.00,0.7281
5852.00,0.7342
5851.00,0.7408
5850.00,0.7479
5849.00,0.7555
5848.00,0.7635
5847.00,0.7719
5846.00,0.7807
5845.00,0.7900
5844.00,0.7996
5843.00,0.8094
5842.00,0.8194
5841.00,0.8296
5840.00,0.8400
5839.00,0.8504
5838.00,0.8609
5837.00,0.8715
5836.00,0.8823
5835.00,0.8931
5834.00,0.9040
5833.00,0.9150
5832.00,0.9260
5831.00,0.9369
5830.00,0.9476
5829.00,0.9581
5828.00,0.9682
5827.00,0.9781
5826.00,0.9881
5825.00,0.9984
5824.00,1.0088
5823.00,1.0191
5822.00,1.0292
5821.00,1.0392
5820.00,1.0488
5819.00,1.0578
5818.00,1.0665
5817.00,1.0752
5816.00,1.0839
5815.00,1.0925
5814.00,1.1008
5813.00,1.1088
5812.00,1.1167
5811.00,1.1244
5810.00,1.1319
5809.00,1.1392
5808.00,1.1460
5807.00,1.1526
5806.00,1.1590
5805.00,1.1653
5804.00,1.1712
5803.00,1.1767
5802.00,1.1819
5801.00,1.1866
5800.00,1.1910
5799.00,1.1948
5798.00,1.1983
5797.00,1.2015
5796.00,1.2045
5795.00,1.2069
5794.00,1.2087
5793.00,1.2102
5792.00,1.2114
5791.00,1.2125
5790.00,1.2133
5789.00,1.2137
5788.00,1.2138
5787.00,1.2136
5786.00,1.2132
5785.00,1.2123
5784.00,1.2111
5783.00,1.2094
5782.00,1.2073
5781.00,1.2048
5780.00,1.2018
5779.00,1.1983
5778.00,1.1946
5777.00,1.1906
5776.00,1.1862
5775.00,1.1812
5774.00,1.1758
5773.00,1.1704
5772.00,1.1649
5771.00,1.1591
5770.00,1.1530
5769.00,1.1465
5768.00,1.1395
5767.00,1.1321
5766.00,1.1241
5765.00,1.1158
5764.00,1.1072
5763.00,1.0983
5762.00,1.0889
5761.00,1.0792
5760.00,1.0691
5759.00,1.0589
5758.00,1.0486
5757.00,1.0380
5756.00,1.0271
5755.00,1.0158
5754.00,1.0042
5753.00,0.9924
5752.00,0.9806
5751.00,0.9687
5750.00,0.9569
5749.00,0.9449
5748.00,0.9327
5747.00,0.9202
5746.00,0.9075
5745.00,0.8948
5744.00,0.8822
5743.00,0.8697
5742.00,0.8574
5741.00,0.8454
5740.00,0.8337
5739.00,0.8221
5738.00,0.8106
5737.00,0.7993
5736.00,0.7884
5735.00,0.7779
5734.00,0.7677
5733.00,0.7580
5732.00,0.7487
5731.00,0.7401
5730.00,0.7320
5729.00,0.7245
5728.00,0.7176
5727.00,0.7114
5726.00,0.7058
5725.00,0.7009
5724.00,0.6966
5723.00,0.6928
5722.00,0.6898
5721.00,0.6874
5720.00,0.6859
5719.00,0.6852
5718.00,0.6853
5717.00,0.6861
5716.00,0.6876
5715.00,0.6897
5714.00,0.6926
5713.00,0.6961
5712.00,0.7001
5711.00,0.7048
5710.00,0.7099
5709.00,0.7157
5708.00,0.7219
5707.00,0.7286
5706.00,0.7359
5705.00,0.7439
5704.00,0.7523
5703.00,0.7610
5702.00,0.7698
5701.00,0.7789
5700.00,0.7882
5699.00,0.7978
5698.00,0.8077
5697.00,0.8180
5696.00,0.8287
5695.00,0.8396
5694.00,0.8506
5693.00,0.8618
5692.00,0.8730
5691.00,0.8842
5690.00,0.8953
5689.00,0.9065
5688.00,0.9177
5687.00,0.9291
5686.00,0.9406
5685.00,0.9522
5684.00,0.9640
5683.00,0.9756
5682.00,0.9870
5681.00,0.9982
5680.00,1.0090
5679.00,1.0196
5678.00,1.0300
5677.00,1.0404
5676.00,1.0508
5675.00,1.0609
5674.00,1.0708
5673.00,1.0805
5672.00,1.0898
5671.00,1.0989
5670.00,1.1075
5669.00,1.1159
5668.00,1.1240
5667.00,1.1319
5666.00,1.1395
5665.00,1.1469
5664.00,1.1540
5663.00,1.1609
5662.00,1.1673
5661.00,1.1734
5660.00,1.1793
5659.00,1.1850
5658.00,1.1905
5657.00,1.1957
5656.00,1.2006
5655.00,1.2051
5654.00,1.2090
5653.00,1.2125
5652.00,1.2155
5651.00,1.2182
5650.00,1.2205
5649.00,1.2224
5648.00,1.2237
5647.00,1.2246
5646.00,1.2250
5645.00,1.2252
5644.00,1.2252
5643.00,1.2250
5642.00,1.2243
5641.00,1.2232
5640.00,1.2216
5639.00,1.2196
5638.00,1.2172
5637.00,1.2144
5636.00,1.2112
5635.00,1.2079
5634.00,1.2042
5633.00,1.2003
5632.00,1.1960
5631.00,1.1914
5630.00,1.1864
5629.00,1.1809
5628.00,1.1748
5627.00,1.1681
5626.00,1.1612
5625.00,1.1541
5624.00,1.1466
5623.00,1.1388
5622.00,1.1306
5621.00,1.1219
5620.00,1.1127
5619.00,1.1032
5618.00,1.0934
5617.00,1.0834
5616.00,1.0731
5615.00,1.0624
5614.00,1.0516
5613.00,1.0404
5612.00,1.0290
5611.00,1.0172
5610.00,1.0051
5609.00,0.9927
5608.00,0.9802
5607.00,0.9675
5606.00,0.9547
5605.00,0.9416
5604.00,0.9284
5603.00,0.9149
5602.00,0.9014
5601.00,0.8880
5600.00,0.8749
5599.00,0.8620
5598.00,0.8493
5597.00,0.8368
5596.00,0.8245
5595.00,0.8124
5594.00,0.8006
5593.00,0.7891
5592.00,0.7780
5591.00,0.7673
5590.00,0.7570
5589.00,0.7473
5588.00,0.7381
5587.00,0.7296
5586.00,0.7217
5585.00,0.7145
5584.00,0.7079
5583.00,0.7021
5582.00,0.6969
5581.00,0.6925
5580.00,0.6889
5579.00,0.6861
5578.00,0.6840
5577.00,0.6827
5576.00,0.6822
5575.00,0.6824
5574.00,0.6835
5573.00,0.6853
5572.00,0.6880
5571.00,0.6914
5570.00,0.6956
5569.00,0.7004
5568.00,0.7058
5567.00,0.7118
5566.00,0.7184
5565.00,0.7256
5564.00,0.7334
5563.00,0.7415
5562.00,0.7502
5561.00,0.7594
5560.00,0.7689
5559.00,0.7788
5558.00,0.7891
5557.00,0.7998
5556.00,0.8108
5555.00,0.8219
5554.00,0.8333
5553.00,0.8449
5552.00,0.8567
5551.00,0.8686
5550.00,0.8806
5549.00,0.8927
5548.00,0.9049
5547.00,0.9172
5546.00,0.9296
5545.00,0.9421
5544.00,0.9544
5543.00,0.9664
5542.00,0.9782
5541.00,0.9898
5540.00,1.0013
5539.00,1.0127
5538.00,1.0241
5537.00,1.0356
5536.00,1.0471
5535.00,1.0584
5534.00,1.0694
5533.00,1.0799
5532.00,1.0900
5531.00,1.0998
5530.00,1.1093
5529.00,1.1187
5528.00,1.1282
5527.00,1.1377
5526.00,1.1470
5525.00,1.1559
5524.00,1.1641
5523.00,1.1715
5522.00,1.1785
5521.00,1.1851
5520.00,1.1917
5519.00,1.1982
5518.00,1.2045
5517.00,1.2104
5516.00,1.2157
5515.00,1.2205
5514.00,1.2248
5513.00,1.2289
5512.00,1.2328
5511.00,1.2365
5510.00,1.2400
5509.00,1.2430
5508.00,1.2454
5507.00,1.2471
5506.00,1.2484
5505.00,1.2494
5504.00,1.2502
5503.00,1.2507
5502.00,1.2508
5501.00,1.2504
5500.00,1.2493
5499.00,1.2476
5498.00,1.2455
5497.00,1.2431
5496.00,1.2405
5495.00,1.2378
5494.00,1.2348
5493.00,1.2315
5492.00,1.2279
5491.00,1.2241
5490.00,1.2199
5489.00,1.2153
5488.00,1.2103
5487.00,1.2048
5486.00,1.1989
5485.00,1.1925
5484.00,1.1856
5483.00,1.1780
5482.00,1.1697
5481.00,1.1610
5480.00,1.1521
5479.00,1.1430
5478.00,1.1336
5477.00,1.1239
5476.00,1.1137
5475.00,1.1033
5474.00,1.0929
5473.00,1.0824
5472.00,1.0715
5471.00,1.0601
5470.00,1.0482
5469.00,1.0357
5468.00,1.0228
5467.00,1.0095
5466.00,0.9963
5465.00,0.9830
5464.00,0.9695
5463.00,0.9557
5462.00,0.9415
5461.00,0.9274
5460.00,0.9133
5459.00,0.8994
5458.00,0.8857
5457.00,0.8721
5456.00,0.8586
5455.00,0.8449
5454.00,0.8314
5453.00,0.8182
5452.00,0.8052
5451.00,0.7925
5450.00,0.7802
5449.00,0.7685
5448.00,0.7572
5447.00,0.7463
5446.00,0.7360
5445.00,0.7264
5444.00,0.7176
5443.00,0.7095
5442.00,0.7019
5441.00,0.6951
5440.00,0.6892
5439.00,0.6842
5438.00,0.6802
5437.00,0.6769
5436.00,0.6743
5435.00,0.6724
5434.00,0.6714
5433.00,0.6713
5432.00,0.6722
5431.00,0.6739
5430.00,0.6764
5429.00,0.6797
5428.00,0.6838
5427.00,0.6888
5426.00,0.6944
5425.00,0.7007
5424.00,0.7075
5423.00,0.7149
5422.00,0.7229
5421.00,0.7315
5420.00,0.7404
5419.00,0.7498
5418.00,0.7596
5417.00,0.7698
5416.00,0.7804
5415.00,0.7913
5414.00,0.8026
5413.00,0.8142
5412.00,0.8261
5411.00,0.8381
5410.00,0.8505
5409.00,0.8632
5408.00,0.8761
5407.00,0.8891
5406.00,0.9021
5405.00,0.9150
5404.00,0.9278
5403.00,0.9405
5402.00,0.9532
5401.00,0.9660
5400.00,0.9787
5399.00,0.9913
5398.00,1.0038
5397.00,1.0162
5396.00,1.0284
5395.00,1.0405
5394.00,1.0524
5393.00,1.0643
5392.00,1.0759
5391.00,1.0875
5390.00,1.0988
5389.00,1.1100
5388.00,1.1208
5387.00,1.1312
5386.00,1.1412
5385.00,1.1510
5384.00,1.1604
5383.00,1.1693
5382.00,1.1779
5381.00,1.1862
5380.00,1.1941
5379.00,1.2017
5378.00,1.2091
5377.00,1.2163
5376.00,1.2234
5375.00,1.2301
5374.00,1.2364
5373.00,1.2423
5372.00,1.2476
5371.00,1.2524
5370.00,1.2567
5369.00,1.2607
5368.00,1.2644
5367.00,1.2677
5366.00,1.2706
5365.00,1.2732
5364.00,1.2752
5363.00,1.2769
5362.00,1.2779
5361.00,1.2784
5360.00,1.2786
5359.00,1.2784
5358.00,1.2781
5357.00,1.2776
5356.00,1.2768
5355.00,1.2757
5354.00,1.2741
5353.00,1.2720
5352.00,1.2693
5351.00,1.2659
5350.00,1.2620
5349.00,1.2579
5348.00,1.2539
5347.00,1.2499
5346.00,1.2455
5345.00,1.2405
5344.00,1.2348
5343.00,1.2286
5342.00,1.2220
5341.00,1.2149
5340.00,1.2075
5339.00,1.1996
5338.00,1.1912
5337.00,1.1825
5336.00,1.1736
5335.00,1.1645
5334.00,1.1551
5333.00,1.1452
5332.00,1.1348
5331.00,1.1241
5330.00,1.1132
5329.00,1.1017
5328.00,1.0897
5327.00,1.0772
5326.00,1.0645
5325.00,1.0517
5324.00,1.0388
5323.00,1.0255
5322.00,1.0121
5321.00,0.9984
5320.00,0.9844
5319.00,0.9701
5318.00,0.9559
5317.00,0.9416
5316.00,0.9274
5315.00,0.9132
5314.00,0.8990
5313.00,0.8849
5312.00,0.8709
5311.00,0.8571
5310.00,0.8436
5309.00,0.8304
5308.00,0.8175
5307.00,0.8049
5306.00,0.7927
5305.00,0.7809
5304.00,0.7698
5303.00,0.7592
5302.00,0.7493
5301.00,0.7401
5300.00,0.7318
5299.00,0.7242
5298.00,0.7174
5297.00,0.7114
5296.00,0.7061
5295.00,0.7016
5294.00,0.6981
5293.00,0.6956
5292.00,0.6939
5291.00,0.6931
5290.00,0.6933
5289.00,0.6944
5288.00,0.6963
5287.00,0.6990
5286.00,0.7025
5285.00,0.7068
5284.00,0.7121
5283.00,0.7182
5282.00,0.7251
5281.00,0.7326
5280.00,0.7407
5279.00,0.7492
5278.00,0.7583
5277.00,0.7679
5276.00,0.7779
5275.00,0.7882
5274.00,0.7991
5273.00,0.8104
5272.00,0.8222
5271.00,0.8343
5270.00,0.8467
5269.00,0.8593
5268.00,0.8721
5267.00,0.8848
5266.00,0.8976
5265.00,0.9105
5264.00,0.9235
5263.00,0.9369
5262.00,0.9505
5261.00,0.9642
5260.00,0.9777
5259.00,0.9909
5258.00,1.0039
5257.00,1.0167
5256.00,1.0293
5255.00,1.0419
5254.00,1.0546
5253.00,1.0672
5252.00,1.0795
5251.00,1.0913
5250.00,1.1027
5249.00,1.1140
5248.00,1.1252
5247.00,1.1364
5246.00,1.1476
5245.00,1.1584
5244.00,1.1688
5243.00,1.1788
5242.00,1.1886
5241.00,1.1982
5240.00,1.2075
5239.00,1.2164
5238.00,1.2248
5237.00,1.2327
5236.00,1.2400
5235.00,1.2470
5234.00,1.2538
5233.00,1.2602
5232.00,1.2662
5231.00,1.2719
5230.00,1.2772
5229.00,1.2822
5228.00,1.2869
5227.00,1.2911
5226.00,1.2947
5225.00,1.2977
5224.00,1.3004
5223.00,1.3028
5222.00,1.3052
5221.00,1.3075
5220.00,1.3095
5219.00,1.3108
5218.00,1.3112
5217.00,1.3110
5216.00,1.3103
5215.00,1.3094
5214.00,1.3082
5213.00,1.3068
5212.00,1.3050
5211.00,1.3028
5210.00,1.3000
5209.00,1.2969
5208.00,1.2934
5207.00,1.2896
5206.00,1.2856
5205.00,1.2816
5204.00,1.2773
5203.00,1.2726
5202.00,1.2672
5201.00,1.2612
5200.00,1.2549
5199.00,1.2484
5198.00,1.2416
5197.00,1.2345
5196.00,1.2271
5195.00,1.2192
5194.00,1.2108
5193.00,1.2018
5192.00,1.1922
5191.00,1.1821
5190.00,1.1714
5189.00,1.1602
5188.00,1.1486
5187.00,1.1367
5186.00,1.1244
5185.00,1.1116
5184.00,1.0984
5183.00,1.0847
5182.00,1.0708
5181.00,1.0566
5180.00,1.0422
5179.00,1.0276
5178.00,1.0127
5177.00,0.9977
5176.00,0.9825
5175.00,0.9671
5174.00,0.9517
5173.00,0.9363
5172.00,0.9209
5171.00,0.9054
5170.00,0.8900
5169.00,0.8749
5168.00,0.8600
5167.00,0.8455
5166.00,0.8313
5165.00,0.8174
5164.00,0.8039
5163.00,0.7909
5162.00,0.7784
5161.00,0.7666
5160.00,0.7556
5159.00,0.7452
5158.00,0.7356
5157.00,0.7267
5156.00,0.7186
5155.00,0.7113
5154.00,0.7049
5153.00,0.6994
5152.00,0.6949
5151.00,0.6913
5150.00,0.6887
5149.00,0.6871
5148.00,0.6864
5147.00,0.6865
5146.00,0.6876
5145.00,0.6896
5144.00,0.6925
5143.00,0.6964
5142.00,0.7012
5141.00,0.7068
5140.00,0.7132
5139.00,0.7203
5138.00,0.7281
5137.00,0.7366
5136.00,0.7458
5135.00,0.7555
5134.00,0.7659
5133.00,0.7767
5132.00,0.7881
5131.00,0.7998
5130.00,0.8120
5129.00,0.8245
5128.00,0.8373
5127.00,0.8503
5126.00,0.8636
5125.00,0.8771
5124.00,0.8909
5123.00,0.9049
5122.00,0.9190
5121.00,0.9332
5120.00,0.9474
5119.00,0.9616
5118.00,0.9756
5117.00,0.9896
5116.00,1.0034
5115.00,1.0173
5114.00,1.0311
5113.00,1.0450
5112.00,1.0588
5111.00,1.0723
5110.00,1.0855
5109.00,1.0984
5108.00,1.1111
5107.00,1.1236
5106.00,1.1360
5105.00,1.1483
5104.00,1.1605
5103.00,1.1724
5102.00,1.1838
5101.00,1.1947
5100.00,1.2051
5099.00,1.2151
5098.00,1.2249
5097.00,1.2346
5096.00,1.2440
5095.00,1.2530
5094.00,1.2615
5093.00,1.2694
5092.00,1.2770
5091.00,1.2844
5090.00,1.2915
5089.00,1.2983
5088.00,1.3047
5087.00,1.3105
5086.00,1.3158
5085.00,1.3204
5084.00,1.3246
5083.00,1.3283
5082.00,1.3315
5081.00,1.3343
5080.00,1.3367
5079.00,1.3391
5078.00,1.3414
5077.00,1.3436
5076.00,1.3454
5075.00,1.3466
5074.00,1.3472
5073.00,1.3471
5072.00,1.3464
5071.00,1.3453
5070.00,1.3438
5069.00,1.3419
5068.00,1.3397
5067.00,1.3371
5066.00,1.3343
5065.00,1.3310
5064.00,1.3272
5063.00,1.3229
5062.00,1.3182
5061.00,1.3132
5060.00,1.3081
5059.00,1.3027
5058.00,1.2971
5057.00,1.2909
5056.00,1.2841
5055.00,1.2768
5054.00,1.2689
5053.00,1.2606
5052.00,1.2519
5051.00,1.2427
5050.00,1.2331
5049.00,1.2231
5048.00,1.2125
5047.00,1.2015
5046.00,1.1901
5045.00,1.1785
5044.00,1.1665
5043.00,1.1542
5042.00,1.1416
5041.00,1.1286
5040.00,1.1150
5039.00,1.1009
5038.00,1.0865
5037.00,1.0718
5036.00,1.0568
5035.00,1.0416
5034.00,1.0262
5033.00,1.0106
5032.00,0.9949
5031.00,0.9790
5030.00,0.9630
5029.00,0.9470
5028.00,0.9311
5027.00,0.9152
5026.00,0.8995
5025.00,0.8839
5024.00,0.8686
5023.00,0.8536
5022.00,0.8388
5021.00,0.8245
5020.00,0.8107
5019.00,0.7974
5018.00,0.7848
5017.00,0.7729
5016.00,0.7619
5015.00,0.7517
5014.00,0.7422
5013.00,0.7336
5012.00,0.7259
5011.00,0.7191
5010.00,0.7134
5009.00,0.7087
5008.00,0.7051
5007.00,0.7025
5006.00,0.7009
5005.00,0.7005
5004.00,0.7010
5003.00,0.7026
5002.00,0.7052
5001.00,0.7088
5000.00,0.7133
4999.00,0.7187
4998.00,0.7250
4997.00,0.7322
4996.00,0.7400
4995.00,0.7486
4994.00,0.7577
4993.00,0.7675
4992.00,0.7778
4991.00,0.7887
4990.00,0.8002
4989.00,0.8122
4988.00,0.8245
4987.00,0.8372
4986.00,0.8500
4985.00,0.8631
4984.00,0.8764
4983.00,0.8902
4982.00,0.9046
4981.00,0.9193
4980.00,0.9343
4979.00,0.9492
4978.00,0.9642
4977.00,0.9792
4976.00,0.9941
4975.00,1.0088
4974.00,1.0234
4973.00,1.0379
4972.00,1.0522
4971.00,1.0664
4970.00,1.0806
4969.00,1.0948
4968.00,1.1087
4967.00,1.1225
4966.00,1.1362
4965.00,1.1496
4964.00,1.1627
4963.00,1.1754
4962.00,1.1878
4961.00,1.1998
4960.00,1.2115
4959.00,1.2228
4958.00,1.2338
4957.00,1.2444
4956.00,1.2546
4955.00,1.2643
4954.00,1.2738
4953.00,1.2831
4952.00,1.2921
4951.00,1.3007
4950.00,1.3089
4949.00,1.3164
4948.00,1.3232
4947.00,1.3294
4946.00,1.3352
4945.00,1.3407
4944.00,1.3460
4943.00,1.3509
4942.00,1.3556
4941.00,1.3598
4940.00,1.3636
4939.00,1.3669
4938.00,1.3697
4937.00,1.3722
4936.00,1.3742
4935.00,1.3757
4934.00,1.3770
4933.00,1.3780
4932.00,1.3787
4931.00,1.3789
4930.00,1.3786
4929.00,1.3776
4928.00,1.3761
4927.00,1.3742
4926.00,1.3722
4925.00,1.3700
4924.00,1.3674
4923.00,1.3644
4922.00,1.3608
4921.00,1.3569
4920.00,1.3526
4919.00,1.3480
4918.00,1.3430
4917.00,1.3375
4916.00,1.3315
4915.00,1.3248
4914.00,1.3176
4913.00,1.3099
4912.00,1.3016
4911.00,1.2928
4910.00,1.2836
4909.00,1.2740
4908.00,1.2642
4907.00,1.2541
4906.00,1.2438
4905.00,1.2330
4904.00,1.2217
4903.00,1.2098
4902.00,1.1974
4901.00,1.1846
4900.00,1.1715
4899.00,1.1578
4898.00,1.1437
4897.00,1.1291
4896.00,1.1141
4895.00,1.0988
4894.00,1.0832
4893.00,1.0675
4892.00,1.0514
4891.00,1.0350
4890.00,1.0184
4889.00,1.0016
4888.00,0.9846
4887.00,0.9677
4886.00,0.9508
4885.00,0.9340
4884.00,0.9174
4883.00,0.9010
4882.00,0.8847
4881.00,0.8687
4880.00,0.8531
4879.00,0.8379
4878.00,0.8232
4877.00,0.8092
4876.00,0.7956
4875.00,0.7827
4874.00,0.7705
4873.00,0.7591
4872.00,0.7486
4871.00,0.7389
4870.00,0.7301
4869.00,0.7223
4868.00,0.7155
4867.00,0.7097
4866.00,0.7051
4865.00,0.7016
4864.00,0.6991
4863.00,0.6978
4862.00,0.6975
4861.00,0.6984
4860.00,0.7004
4859.00,0.7035
4858.00,0.7078
4857.00,0.7131
4856.00,0.7194
4855.00,0.7266
4854.00,0.7347
4853.00,0.7436
4852.00,0.7533
4851.00,0.7638
4850.00,0.7749
4849.00,0.7866
4848.00,0.7989
4847.00,0.8117
4846.00,0.8250
4845.00,0.8387
4844.00,0.8528
4843.00,0.8673
4842.00,0.8820
4841.00,0.8969
4840.00,0.9121
4839.00,0.9274
4838.00,0.9429
4837.00,0.9585
4836.00,0.9741
4835.00,0.9897
4834.00,1.0053
4833.00,1.0211
4832.00,1.0368
4831.00,1.0526
4830.00,1.0681
4829.00,1.0836
4828.00,1.0988
4827.00,1.1137
4826.00,1.1283
4825.00,1.1427
4824.00,1.1569
4823.00,1.1708
4822.00,1.1846
4821.00,1.1981
4820.00,1.2113
4819.00,1.2239
4818.00,1.2360
4817.00,1.2478
4816.00,1.2594
4815.00,1.2709
4814.00,1.2823
4813.00,1.2933
4812.00,1.3037
4811.00,1.3136
4810.00,1.3229
4809.00,1.3318
4808.00,1.3401
4807.00,1.3479
4806.00,1.3553
4805.00,1.3623
4804.00,1.3688
4803.00,1.3749
4802.00,1.3806
4801.00,1.3858
4800.00,1.3906
4799.00,1.3952
4798.00,1.3996
4797.00,1.4038
4796.00,1.4075
4795.00,1.4106
4794.00,1.4134
4793.00,1.4158
4792.00,1.4179
4791.00,1.4195
4790.00,1.4203
4789.00,1.4205
4788.00,1.4202
4787.00,1.4196
4786.00,1.4188
4785.00,1.4178
4784.00,1.4163
4783.00,1.4143
4782.00,1.4118
4781.00,1.4089
4780.00,1.4056
4779.00,1.4020
4778.00,1.3981
4777.00,1.3938
4776.00,1.3891
4775.00,1.3840
4774.00,1.3784
4773.00,1.3722
4772.00,1.3655
4771.00,1.3582
4770.00,1.3504
4769.00,1.3421
4768.00,1.3334
4767.00,1.3243
4766.00,1.3147
4765.00,1.3049
4764.00,1.2947
4763.00,1.2841
4762.00,1.2730
4761.00,1.2615
4760.00,1.2494
4759.00,1.2368
4758.00,1.2236
4757.00,1.2099
4756.00,1.1956
4755.00,1.1808
4754.00,1.1657
4753.00,1.1503
4752.00,1.1347
4751.00,1.1186
4750.00,1.1021
4749.00,1.0850
4748.00,1.0676
4747.00,1.0500
4746.00,1.0323
4745.00,1.0147
4744.00,0.9969
4743.00,0.9789
4742.00,0.9609
4741.00,0.9429
4740.00,0.9251
4739.00,0.9076
4738.00,0.8904
4737.00,0.8736
4736.00,0.8571
4735.00,0.8411
4734.00,0.8258
4733.00,0.8111
4732.00,0.7972
4731.00,0.7841
4730.00,0.7719
4729.00,0.7605
4728.00,0.7502
4727.00,0.7409
4726.00,0.7327
4725.00,0.7256
4724.00,0.7198
4723.00,0.7152
4722.00,0.7118
4721.00,0.7096
4720.00,0.7086
4719.00,0.7088
4718.00,0.7103
4717.00,0.7130
4716.00,0.7169
4715.00,0.7220
4714.00,0.7282
4713.00,0.7355
4712.00,0.7438
4711.00,0.7529
4710.00,0.7629
4709.00,0.7737
4708.00,0.7853
4707.00,0.7976
4706.00,0.8107
4705.00,0.8243
4704.00,0.8384
4703.00,0.8529
4702.00,0.8679
4701.00,0.8831
4700.00,0.8986
4699.00,0.9142
4698.00,0.9301
4697.00,0.9462
4696.00,0.9624
4695.00,0.9787
4694.00,0.9952
4693.00,1.0118
4692.00,1.0284
4691.00,1.0449
4690.00,1.0613
4689.00,1.0775
4688.00,1.0937
4687.00,1.1098
4686.00,1.1257
4685.00,1.1413
4684.00,1.1567
4683.00,1.1718
4682.00,1.1868
4681.00,1.2016
4680.00,1.2163
4679.00,1.2307
4678.00,1.2447
4677.00,1.2583
4676.00,1.2714
4675.00,1.2841
4674.00,1.2962
4673.00,1.3077
4672.00,1.3188
4671.00,1.3295
4670.00,1.3399
4669.00,1.3500
4668.00,1.3598
4667.00,1.3690
4666.00,1.3779
4665.00,1.3862
4664.00,1.3940
4663.00,1.4014
4662.00,1.4083
4661.00,1.4149
4660.00,1.4209
4659.00,1.4264
4658.00,1.4312
4657.00,1.4355
4656.00,1.4392
4655.00,1.4428
4654.00,1.4464
4653.00,1.4497
4652.00,1.4526
4651.00,1.4549
4650.00,1.4567
4649.00,1.4581
4648.00,1.4592
4647.00,1.4600
4646.00,1.4602
4645.00,1.4598
4644.00,1.4587
4643.00,1.4570
4642.00,1.4551
4641.00,1.4531
4640.00,1.4507
4639.00,1.4478
4638.00,1.4443
4637.00,1.4402
4636.00,1.4357
4635.00,1.4308
4634.00,1.4256
4633.00,1.4199
4632.00,1.4137
4631.00,1.4070
4630.00,1.3999
4629.00,1.3925
4628.00,1.3846
4627.00,1.3762
4626.00,1.3672
4625.00,1.3578
4624.00,1.3479
4623.00,1.3377
4622.00,1.3271
4621.00,1.3162
4620.00,1.3049
4619.00,1.2932
4618.00,1.2811
4617.00,1.2686
4616.00,1.2557
4615.00,1.2423
4614.00,1.2283
4613.00,1.2138
4612.00,1.1989
4611.00,1.1838
4610.00,1.1683
4609.00,1.1524
4608.00,1.1362
4607.00,1.1195
4606.00,1.1024
4605.00,1.0849
4604.00,1.0671
4603.00,1.0490
4602.00,1.0307
4601.00,1.0122
4600.00,0.9936
4599.00,0.9749
4598.00,0.9563
4597.00,0.9379
4596.00,0.9197
4595.00,0.9019
4594.00,0.8844
4593.00,0.8674
4592.00,0.8508
4591.00,0.8348
4590.00,0.8195
4589.00,0.8050
4588.00,0.7914
4587.00,0.7789
4586.00,0.7674
4585.00,0.7570
4584.00,0.7478
4583.00,0.7397
4582.00,0.7329
4581.00,0.7274
4580.00,0.7233
4579.00,0.7204
4578.00,0.7190
4577.00,0.7190
4576.00,0.7203
4575.00,0.7229
4574.00,0.7269
4573.00,0.7320
4572.00,0.7383
4571.00,0.7459
4570.00,0.7545
4569.00,0.7642
4568.00,0.7749
4567.00,0.7863
4566.00,0.7986
4565.00,0.8116
4564.00,0.8253
4563.00,0.8395
4562.00,0.8544
4561.00,0.8697
4560.00,0.8855
4559.00,0.9016
4558.00,0.9181
4557.00,0.9348
4556.00,0.9517
4555.00,0.9689
4554.00,0.9863
4553.00,1.0038
4552.00,1.0214
4551.00,1.0389
4550.00,1.0565
4549.00,1.0740
4548.00,1.0913
4547.00,1.1086
4546.00,1.1258
4545.00,1.1428
4544.00,1.1598
4543.00,1.1765
4542.00,1.1930
4541.00,1.2091
4540.00,1.2249
4539.00,1.2402
4538.00,1.2552
4537.00,1.2697
4536.00,1.2840
4535.00,1.2979
4534.00,1.3116
4533.00,1.3249
4532.00,1.3378
4531.00,1.3502
4530.00,1.3623
4529.00,1.3739
4528.00,1.3849
4527.00,1.3954
4526.00,1.4053
4525.00,1.4148
4524.00,1.4238
4523.00,1.4323
4522.00,1.4405
4521.00,1.4481
4520.00,1.4553
4519.00,1.4621
4518.00,1.4685
4517.00,1.4746
4516.00,1.4802
4515.00,1.4852
4514.00,1.4896
4513.00,1.4936
4512.00,1.4970
4511.00,1.5001
4510.00,1.5029
4509.00,1.5056
4508.00,1.5081
4507.00,1.5101
4506.00,1.5114
4505.00,1.5121
4504.00,1.5123
4503.00,1.5119
4502.00,1.5110
4501.00,1.5097
4500.00,1.5079
4499.00,1.5058
4498.00,1.5033
4497.00,1.5004
4496.00,1.4971
4495.00,1.4932
4494.00,1.4888
4493.00,1.4842
4492.00,1.4792
4491.00,1.4739
4490.00,1.4682
4489.00,1.4620
4488.00,1.4553
4487.00,1.4480
4486.00,1.4401
4485.00,1.4316
4484.00,1.4226
4483.00,1.4133
4482.00,1.4036
4481.00,1.3936
4480.00,1.3833
4479.00,1.3725
4478.00,1.3613
4477.00,1.3496
4476.00,1.3373
4475.00,1.3244
4474.00,1.3109
4473.00,1.2968
4472.00,1.2822
4471.00,1.2672
4470.00,1.2518
4469.00,1.2362
4468.00,1.2201
4467.00,1.2037
4466.00,1.1868
4465.00,1.1696
4464.00,1.1521
4463.00,1.1344
4462.00,1.1166
4461.00,1.0988
4460.00,1.0810
4459.00,1.0633
4458.00,1.0457
4457.00,1.0284
4456.00,1.0115
4455.00,0.9951
4454.00,0.9792
4453.00,0.9641
4452.00,0.9498
4451.00,0.9364
4450.00,0.9241
4449.00,0.9129
4448.00,0.9027
4447.00,0.8936
4446.00,0.8856
4445.00,0.8787
4444.00,0.8728
4443.00,0.8678
4442.00,0.8637
4441.00,0.8602
4440.00,0.8572
4439.00,0.8546
4438.00,0.8522
4437.00,0.8499
4436.00,0.8478
4435.00,0.8458
4434.00,0.8439
4433.00,0.8423
4432.00,0.8412
4431.00,0.8408
4430.00,0.8414
4429.00,0.8430
4428.00,0.8459
4427.00,0.8500
4426.00,0.8554
4425.00,0.8622
4424.00,0.8703
4423.00,0.8798
4422.00,0.8905
4421.00,0.9024
4420.00,0.9152
4419.00,0.9289
4418.00,0.9434
4417.00,0.9587
4416.00,0.9747
4415.00,0.9914
4414.00,1.0085
4413.00,1.0261
4412.00,1.0440
4411.00,1.0620
4410.00,1.0802
4409.00,1.0984
4408.00,1.1167
4407.00,1.1350
4406.00,1.1533
4405.00,1.1715
4404.00,1.1897
4403.00,1.2077
4402.00,1.2253
4401.00,1.2425
4400.00,1.2592
4399.00,1.2753
4398.00,1.2908
4397.00,1.3057
4396.00,1.3201
4395.00,1.3340
4394.00,1.3475
4393.00,1.3608
4392.00,1.3735
4391.00,1.3857
4390.00,1.3975
4389.00,1.4090
4388.00,1.4202
4387.00,1.4313
4386.00,1.4419
4385.00,1.4520
4384.00,1.4617
4383.00,1.4709
4382.00,1.4799
4381.00,1.4888
4380.00,1.4974
4379.00,1.5057
4378.00,1.5137
4377.00,1.5213
4376.00,1.5283
4375.00,1.5347
4374.00,1.5406
4373.00,1.5461
4372.00,1.5512
4371.00,1.5560
4370.00,1.5603
4369.00,1.5642
4368.00,1.5674
4367.00,1.5700
4366.00,1.5721
4365.00,1.5737
4364.00,1.5749
4363.00,1.5758
4362.00,1.5767
4361.00,1.5775
4360.00,1.5780
4359.00,1.5777
4358.00,1.5767
4357.00,1.5750
4356.00,1.5731
4355.00,1.5709
4354.00,1.5686
4353.00,1.5660
4352.00,1.5629
4351.00,1.5593
4350.00,1.5552
4349.00,1.5505
4348.00,1.5453
4347.00,1.5397
4346.00,1.5339
4345.00,1.5281
4344.00,1.5220
4343.00,1.5153
4342.00,1.5078
4341.00,1.4994
4340.00,1.4904
4339.00,1.4810
4338.00,1.4714
4337.00,1.4614
4336.00,1.4510
4335.00,1.4400
4334.00,1.4283
4333.00,1.4161
4332.00,1.4034
4331.00,1.3902
4330.00,1.3767
4329.00,1.3629
4328.00,1.3487
4327.00,1.3341
4326.00,1.3189
4325.00,1.3033
4324.00,1.2871
4323.00,1.2706
4322.00,1.2537
4321.00,1.2363
4320.00,1.2185
4319.00,1.2001
4318.00,1.1810
4317.00,1.1613
4316.00,1.1411
4315.00,1.1204
4314.00,1.0993
4313.00,1.0780
4312.00,1.0564
4311.00,1.0347
4310.00,1.0131
4309.00,0.9915
4308.00,0.9703
4307.00,0.9494
4306.00,0.9291
4305.00,0.9094
4304.00,0.8905
4303.00,0.8725
4302.00,0.8555
4301.00,0.8396
4300.00,0.8249
4299.00,0.8113
4298.00,0.7992
4297.00,0.7884
4296.00,0.7792
4295.00,0.7714
4294.00,0.7651
4293.00,0.7604
4292.00,0.7573
4291.00,0.7558
4290.00,0.7559
4289.00,0.7576
4288.00,0.7609
4287.00,0.7656
4286.00,0.7719
4285.00,0.7795
4284.00,0.7884
4283.00,0.7986
4282.00,0.8099
4281.00,0.8222
4280.00,0.8354
4279.00,0.8495
4278.00,0.8645
4277.00,0.8802
4276.00,0.8965
4275.00,0.9133
4274.00,0.9307
4273.00,0.9484
4272.00,0.9665
4271.00,0.9848
4270.00,1.0035
4269.00,1.0225
4268.00,1.0417
4267.00,1.0610
4266.00,1.0804
4265.00,1.0998
4264.00,1.1192
4263.00,1.1384
4262.00,1.1576
4261.00,1.1765
4260.00,1.1952
4259.00,1.2137
4258.00,1.2321
4257.00,1.2504
4256.00,1.2685
4255.00,1.2863
4254.00,1.3037
4253.00,1.3207
4252.00,1.3372
4251.00,1.3533
4250.00,1.3690
4249.00,1.3843
4248.00,1.3991
4247.00,1.4134
4246.00,1.4271
4245.00,1.4402
4244.00,1.4528
4243.00,1.4649
4242.00,1.4765
4241.00,1.4878
4240.00,1.4986
4239.00,1.5090
4238.00,1.5188
4237.00,1.5280
4236.00,1.5368
4235.00,1.5452
4234.00,1.5532
4233.00,1.5608
4232.00,1.5676
4231.00,1.5738
4230.00,1.5793
4229.00,1.5844
4228.00,1.5891
4227.00,1.5934
4226.00,1.5972
4225.00,1.6005
4224.00,1.6033
4223.00,1.6058
4222.00,1.6079
4221.00,1.6097
4220.00,1.6110
4219.00,1.6119
4218.00,1.6123
4217.00,1.6122
4216.00,1.6118
4215.00,1.6111
4214.00,1.6100
4213.00,1.6085
4212.00,1.6065
4211.00,1.6038
4210.00,1.6007
4209.00,1.5971
4208.00,1.5932
4207.00,1.5890
4206.00,1.5844
4205.00,1.5794
4204.00,1.5739
4203.00,1.5679
4202.00,1.5616
4201.00,1.5549
4200.00,1.5476
4199.00,1.5397
4198.00,1.5310
4197.00,1.5219
4196.00,1.5122
4195.00,1.5021
4194.00,1.4915
4193.00,1.4803
4192.00,1.4687
4191.00,1.4564
4190.00,1.4436
4189.00,1.4302
4188.00,1.4163
4187.00,1.4017
4186.00,1.3866
4185.00,1.3708
4184.00,1.3545
4183.00,1.3376
4182.00,1.3202
4181.00,1.3021
4180.00,1.2832
4179.00,1.2636
4178.00,1.2433
4177.00,1.2227
4176.00,1.2018
4175.00,1.1806
4174.00,1.1590
4173.00,1.1372
4172.00,1.1150
4171.00,1.0926
4170.00,1.0701
4169.00,1.0476
4168.00,1.0252
4167.00,1.0029
4166.00,0.9810
4165.00,0.9595
4164.00,0.9386
4163.00,0.9184
4162.00,0.8990
4161.00,0.8805
4160.00,0.8629
4159.00,0.8465
4158.00,0.8313
4157.00,0.8175
4156.00,0.8050
4155.00,0.7941
4154.00,0.7847
4153.00,0.7769
4152.00,0.7709
4151.00,0.7667
4150.00,0.7642
4149.00,0.7635
4148.00,0.7645
4147.00,0.7673
4146.00,0.7717
4145.00,0.7778
4144.00,0.7855
4143.00,0.7946
4142.00,0.8052
4141.00,0.8171
4140.00,0.8302
4139.00,0.8444
4138.00,0.8595
4137.00,0.8755
4136.00,0.8924
4135.00,0.9099
4134.00,0.9281
4133.00,0.9468
4132.00,0.9659
4131.00,0.9855
4130.00,1.0054
4129.00,1.0255
4128.00,1.0459
4127.00,1.0664
4126.00,1.0871
4125.00,1.1079
4124.00,1.1287
4123.00,1.1494
4122.00,1.1699
4121.00,1.1904
4120.00,1.2108
4119.00,1.2310
4118.00,1.2510
4117.00,1.2708
4116.00,1.2902
4115.00,1.3093
4114.00,1.3280
4113.00,1.3463
4112.00,1.3641
4111.00,1.3814
4110.00,1.3983
4109.00,1.4150
4108.00,1.4312
4107.00,1.4469
4106.00,1.4619
4105.00,1.4763
4104.00,1.4900
4103.00,1.5030
4102.00,1.5156
4101.00,1.5277
4100.00,1.5395
4099.00,1.5509
4098.00,1.5616
4097.00,1.5716
4096.00,1.5808
4095.00,1.5895
4094.00,1.5978
4093.00,1.6059
4092.00,1.6136
4091.00,1.6208
4090.00,1.6273
4089.00,1.6334
4088.00,1.6389
4087.00,1.6440
4086.00,1.6484
4085.00,1.6524
4084.00,1.6560
4083.00,1.6593
4082.00,1.6625
4081.00,1.6653
4080.00,1.6676
4079.00,1.6696
4078.00,1.6712
4077.00,1.6723
4076.00,1.6728
4075.00,1.6728
4074.00,1.6722
4073.00,1.6711
4072.00,1.6695
4071.00,1.6674
4070.00,1.6651
4069.00,1.6624
4068.00,1.6594
4067.00,1.6560
4066.00,1.6521
4065.00,1.6477
4064.00,1.6429
4063.00,1.6376
4062.00,1.6319
4061.00,1.6258
4060.00,1.6192
4059.00,1.6121
4058.00,1.6044
4057.00,1.5961
4056.00,1.5875
4055.00,1.5783
4054.00,1.5687
4053.00,1.5586
4052.00,1.5479
4051.00,1.5367
4050.00,1.5247
4049.00,1.5120
4048.00,1.4986
4047.00,1.4848
4046.00,1.4706
4045.00,1.4561
4044.00,1.4412
4043.00,1.4256
4042.00,1.4094
4041.00,1.3927
4040.00,1.3754
4039.00,1.3576
4038.00,1.3394
4037.00,1.3210
4036.00,1.3024
4035.00,1.2835
4034.00,1.2643
4033.00,1.2447
4032.00,1.2248
4031.00,1.2046
4030.00,1.1843
4029.00,1.1636
4028.00,1.1427
4027.00,1.1214
4026.00,1.0997
4025.00,1.0777
4024.00,1.0554
4023.00,1.0332
4022.00,1.0110
4021.00,0.9891
4020.00,0.9677
4019.00,0.9469
4018.00,0.9270
4017.00,0.9080
4016.00,0.8901
4015.00,0.8734
4014.00,0.8580
4013.00,0.8441
4012.00,0.8318
4011.00,0.8213
4010.00,0.8126
4009.00,0.8058
4008.00,0.8010
4007.00,0.7981
4006.00,0.7972
4005.00,0.7984
4004.00,0.8017
4003.00,0.8069
4002.00,0.8139
4001.00,0.8227
4000.00,0.8330
3999.00,0.8449
3998.00,0.8582
3997.00,0.8729
3996.00,0.8887
3995.00,0.9055
3994.00,0.9232
3993.00,0.9417
3992.00,0.9610
3991.00,0.9812
3990.00,1.0021
3989.00,1.0235
3988.00,1.0454
3987.00,1.0675
3986.00,1.0897
3985.00,1.1120
3984.00,1.1343
3983.00,1.1567
3982.00,1.1789
3981.00,1.2009
3980.00,1.2226
3979.00,1.2440
3978.00,1.2651
3977.00,1.2859
3976.00,1.3062
3975.00,1.3261
3974.00,1.3453
3973.00,1.3639
3972.00,1.3820
3971.00,1.3996
3970.00,1.4170
3969.00,1.4340
3968.00,1.4504
3967.00,1.4664
3966.00,1.4819
3965.00,1.4971
3964.00,1.5120
3963.00,1.5265
3962.00,1.5405
3961.00,1.5541
3960.00,1.5674
3959.00,1.5803
3958.00,1.5926
3957.00,1.6043
3956.00,1.6154
3955.00,1.6259
3954.00,1.6356
3953.00,1.6445
3952.00,1.6526
3951.00,1.6602
3950.00,1.6677
3949.00,1.6753
3948.00,1.6825
3947.00,1.6890
3946.00,1.6949
3945.00,1.7006
3944.00,1.7063
3943.00,1.7122
3942.00,1.7176
3941.00,1.7222
3940.00,1.7258
3939.00,1.7285
3938.00,1.7304
3937.00,1.7316
3936.00,1.7322
3935.00,1.7327
3934.00,1.7331
3933.00,1.7337
3932.00,1.7342
3931.00,1.7342
3930.00,1.7334
3929.00,1.7317
3928.00,1.7295
3927.00,1.7269
3926.00,1.7241
3925.00,1.7209
3924.00,1.7174
3923.00,1.7132
3922.00,1.7082
3921.00,1.7027
3920.00,1.6968
3919.00,1.6908
3918.00,1.6847
3917.00,1.6783
3916.00,1.6715
3915.00,1.6643
3914.00,1.6567
3913.00,1.6485
3912.00,1.6397
3911.00,1.6301
3910.00,1.6196
3909.00,1.6082
3908.00,1.5962
3907.00,1.5833
3906.00,1.5697
3905.00,1.5551
3904.00,1.5397
3903.00,1.5237
3902.00,1.5072
3901.00,1.4905
3900.00,1.4734
3899.00,1.4560
3898.00,1.4382
3897.00,1.4201
3896.00,1.4017
3895.00,1.3829
3894.00,1.3633
3893.00,1.3424
3892.00,1.3197
3891.00,1.2953
3890.00,1.2699
3889.00,1.2448
3888.00,1.2202
3887.00,1.1953
3886.00,1.1691
3885.00,1.1417
3884.00,1.1142
3883.00,1.0876
3882.00,1.0618
3881.00,1.0363
3880.00,1.0109
3879.00,0.9860
3878.00,0.9624
3877.00,0.9403
3876.00,0.9194
3875.00,0.8993
3874.00,0.8800
3873.00,0.8621
3872.00,0.8461
3871.00,0.8316
3870.00,0.8183
3869.00,0.8064
3868.00,0.7966
3867.00,0.7898
3866.00,0.7860
3865.00,0.7848
3864.00,0.7857
3863.00,0.7885
3862.00,0.7931
3861.00,0.7999
3860.00,0.8087
3859.00,0.8190
3858.00,0.8304
3857.00,0.8427
3856.00,0.8564
3855.00,0.8725
3854.00,0.8915
3853.00,0.9132
3852.00,0.9360
3851.00,0.9582
3850.00,0.9795
3849.00,1.0008
3848.00,1.0226
3847.00,1.0449
3846.00,1.0675
3845.00,1.0904
3844.00,1.1138
3843.00,1.1375
3842.00,1.1612
3841.00,1.1846
3840.00,1.2075
3839.00,1.2305
3838.00,1.2544
3837.00,1.2793
3836.00,1.3046
3835.00,1.3290
3834.00,1.3524
3833.00,1.3750
3832.00,1.3972
3831.00,1.4190
3830.00,1.4402
3829.00,1.4606
3828.00,1.4803
3827.00,1.4994
3826.00,1.5179
3825.00,1.5353
3824.00,1.5516
3823.00,1.5669
3822.00,1.5820
3821.00,1.5974
3820.00,1.6129
3819.00,1.6275
3818.00,1.6408
3817.00,1.6534
3816.00,1.6656
3815.00,1.6774
3814.00,1.6887
3813.00,1.6993
3812.00,1.7094
3811.00,1.7191
3810.00,1.7283
3809.00,1.7368
3808.00,1.7442
3807.00,1.7507
3806.00,1.7568
3805.00,1.7628
3804.00,1.7685
3803.00,1.7735
3802.00,1.7780
3801.00,1.7820
3800.00,1.7855
3799.00,1.7884
3798.00,1.7910
3797.00,1.7934
3796.00,1.7958
3795.00,1.7979
3794.00,1.7998
3793.00,1.8010
3792.00,1.8015
3791.00,1.8013
3790.00,1.8008
3789.00,1.8001
3788.00,1.7992
3787.00,1.7978
3786.00,1.7961
3785.00,1.7935
3784.00,1.7901
3783.00,1.7861
3782.00,1.7818
3781.00,1.7770
3780.00,1.7711
3779.00,1.7644
3778.00,1.7574
3777.00,1.7506
3776.00,1.7438
3775.00,1.7371
3774.00,1.7300
3773.00,1.7223
3772.00,1.7133
3771.00,1.7029
3770.00,1.6913
3769.00,1.6789
3768.00,1.6661
3767.00,1.6534
3766.00,1.6407
3765.00,1.6278
3764.00,1.6143
3763.00,1.6004
3762.00,1.5856
3761.00,1.5698
3760.00,1.5526
3759.00,1.5343
3758.00,1.5152
3757.00,1.4958
3756.00,1.4764
3755.00,1.4573
3754.00,1.4380
3753.00,1.4174
3752.00,1.3943
3751.00,1.3681
3750.00,1.3398
3749.00,1.3113
3748.00,1.2845
3747.00,1.2599
3746.00,1.2355
3745.00,1.2091
3744.00,1.1801
3743.00,1.1509
3742.00,1.1238
3741.00,1.0991
3740.00,1.0755
3739.00,1.0520
3738.00,1.0280
3737.00,1.0033
3736.00,0.9785
3735.00,0.9539
3734.00,0.9303
3733.00,0.9079
3732.00,0.8868
3731.00,0.8675
3730.00,0.8508
3729.00,0.8377
3728.00,0.8283
3727.00,0.8223
3726.00,0.8193
3725.00,0.8187
3724.00,0.8207
3723.00,0.8245
3722.00,0.8280
3721.00,0.8296
3720.00,0.8309
3719.00,0.8378
3718.00,0.8541
3717.00,0.8804
3716.00,0.9092
3715.00,0.9392
3714.00,0.9542
3713.00,0.9836
3712.00,1.0131
3711.00,1.0367
3710.00,1.0642
3709.00,1.0902
3708.00,1.1175
3707.00,1.1444
3706.00,1.1712
3705.00,1.1975
3704.00,1.2234
3703.00,1.2497
3702.00,1.2766
3701.00,1.3045
3700.00,1.3325
3699.00,1.3604
3698.00,1.3873
3697.00,1.4135
3696.00,1.4391
3695.00,1.4641
3694.00,1.4882
3693.00,1.5112
3692.00,1.5332
3691.00,1.5537
3690.00,1.5736
3689.00,1.5937
3688.00,1.6148
3687.00,1.6360
3686.00,1.6558
3685.00,1.6738
3684.00,1.6901
3683.00,1.7055
3682.00,1.7204
3681.00,1.7348
3680.00,1.7486
3679.00,1.7615
3678.00,1.7733
3677.00,1.7845
3676.00,1.7952
3675.00,1.8061
3674.00,1.8165
3673.00,1.8258
3672.00,1.8341
3671.00,1.8417
3670.00,1.8494
3669.00,1.8573
3668.00,1.8652
3667.00,1.8724
3666.00,1.8789
3665.00,1.8849
3664.00,1.8907
3663.00,1.8962
3662.00,1.9011
3661.00,1.9053
3660.00,1.9086
3659.00,1.9113
3658.00,1.9136
3657.00,1.9157
3656.00,1.9174
3655.00,1.9183
3654.00,1.9184
3653.00,1.9184
3652.00,1.9187
3651.00,1.9192
3650.00,1.9194
3649.00,1.9187
3648.00,1.9173
3647.00,1.9156
3646.00,1.9146
3645.00,1.9147
3644.00,1.9153
3643.00,1.9156
3642.00,1.9149
3641.00,1.9130
3640.00,1.9103
3639.00,1.9070
3638.00,1.9031
3637.00,1.8990
3636.00,1.8944
3635.00,1.8892
3634.00,1.8831
3633.00,1.8761
3632.00,1.8681
3631.00,1.8597
3630.00,1.8512
3629.00,1.8422
3628.00,1.8325
3627.00,1.8225
3626.00,1.8127
3625.00,1.8033
3624.00,1.7939
3623.00,1.7840
3622.00,1.7733
3621.00,1.7617
3620.00,1.7478
3619.00,1.7308
3618.00,1.7118
3617.00,1.6944
3616.00,1.6815
3615.00,1.6729
3614.00,1.6656
3613.00,1.6560
3612.00,1.6429
3611.00,1.6276
3610.00,1.6113
3609.00,1.5942
3608.00,1.5766
3607.00,1.5588
3606.00,1.5408
3605.00,1.5228
3604.00,1.5045
3603.00,1.4859
3602.00,1.4667
3601.00,1.4470
3600.00,1.4265
3599.00,1.4055
3598.00,1.3843
3597.00,1.3632
3596.00,1.3424
3595.00,1.3218
3594.00,1.3014
3593.00,1.2812
3592.00,1.2616
3591.00,1.2428
3590.00,1.2252
3589.00,1.2090
3588.00,1.1939
3587.00,1.1800
3586.00,1.1675
3585.00,1.1570
3584.00,1.1484
3583.00,1.1419
3582.00,1.1374
3581.00,1.1350
3580.00,1.1346
3579.00,1.1358
3578.00,1.1384
3577.00,1.1425
3576.00,1.1482
3575.00,1.1555
3574.00,1.1643
3573.00,1.1742
3572.00,1.1849
3571.00,1.1963
3570.00,1.2087
3569.00,1.2227
3568.00,1.2391
3567.00,1.2576
3566.00,1.2772
3565.00,1.2971
3564.00,1.3166
3563.00,1.3358
3562.00,1.3551
3561.00,1.3748
3560.00,1.3950
3559.00,1.4155
3558.00,1.4359
3557.00,1.4560
3556.00,1.4756
3555.00,1.4950
3554.00,1.5144
3553.00,1.5338
3552.00,1.5532
3551.00,1.5719
3550.00,1.5897
3549.00,1.6065
3548.00,1.6230
3547.00,1.6396
3546.00,1.6565
3545.00,1.6735
3544.00,1.6900
3543.00,1.7059
3542.00,1.7211
3541.00,1.7358
3540.00,1.7499
3539.00,1.7633
3538.00,1.7760
3537.00,1.7882
3536.00,1.8000
3535.00,1.8112
3534.00,1.8220
3533.00,1.8324
3532.00,1.8427
3531.00,1.8526
3530.00,1.8622
3529.00,1.8714
3528.00,1.8799
3527.00,1.8880
3526.00,1.8957
3525.00,1.9034
3524.00,1.9111
3523.00,1.9187
3522.00,1.9260
3521.00,1.9329
3520.00,1.9393
3519.00,1.9449
3518.00,1.9500
3517.00,1.9548
3516.00,1.9594
3515.00,1.9636
3514.00,1.9673
3513.00,1.9704
3512.00,1.9727
3511.00,1.9743
3510.00,1.9754
3509.00,1.9764
3508.00,1.9774
3507.00,1.9783
3506.00,1.9789
3505.00,1.9792
3504.00,1.9793
3503.00,1.9792
3502.00,1.9787
3501.00,1.9775
3500.00,1.9756
3499.00,1.9732
3498.00,1.9707
3497.00,1.9682
3496.00,1.9655
3495.00,1.9621
3494.00,1.9578
3493.00,1.9529
3492.00,1.9475
3491.00,1.9415
3490.00,1.9354
3489.00,1.9290
3488.00,1.9223
3487.00,1.9150
3486.00,1.9071
3485.00,1.8990
3484.00,1.8905
3483.00,1.8814
3482.00,1.8716
3481.00,1.8615
3480.00,1.8512
3479.00,1.8406
3478.00,1.8292
3477.00,1.8169
3476.00,1.8037
3475.00,1.7899
3474.00,1.7757
3473.00,1.7611
3472.00,1.7461
3471.00,1.7302
3470.00,1.7134
3469.00,1.6959
3468.00,1.6777
3467.00,1.6588
3466.00,1.6391
3465.00,1.6188
3464.00,1.5976
3463.00,1.5757
3462.00,1.5531
3461.00,1.5298
3460.00,1.5061
3459.00,1.4818
3458.00,1.4572
3457.00,1.4323
3456.00,1.4069
3455.00,1.3812
3454.00,1.3552
3453.00,1.3292
3452.00,1.3034
3451.00,1.2779
3450.00,1.2530
3449.00,1.2287
3448.00,1.2051
3447.00,1.1824
3446.00,1.1609
3445.00,1.1408
3444.00,1.1224
3443.00,1.1057
3442.00,1.0909
3441.00,1.0781
3440.00,1.0673
3439.00,1.0586
3438.00,1.0522
3437.00,1.0481
3436.00,1.0464
3435.00,1.0471
3434.00,1.0502
3433.00,1.0555
3432.00,1.0630
3431.00,1.0726
3430.00,1.0841
3429.00,1.0974
3428.00,1.1124
3427.00,1.1289
3426.00,1.1467
3425.00,1.1656
3424.00,1.1857
3423.00,1.2067
3422.00,1.2286
3421.00,1.2513
3420.00,1.2746
3419.00,1.2983
3418.00,1.3224
3417.00,1.3466
3416.00,1.3710
3415.00,1.3953
3414.00,1.4197
3413.00,1.4441
3412.00,1.4686
3411.00,1.4928
3410.00,1.5167
3409.00,1.5400
3408.00,1.5628
3407.00,1.5854
3406.00,1.6077
3405.00,1.6295
3404.00,1.6505
3403.00,1.6707
3402.00,1.6901
3401.00,1.7088
3400.00,1.7267
3399.00,1.7441
3398.00,1.7609
3397.00,1.7773
3396.00,1.7932
3395.00,1.8084
3394.00,1.8231
3393.00,1.8372
3392.00,1.8511
3391.00,1.8646
3390.00,1.8774
3389.00,1.8894
3388.00,1.9006
3387.00,1.9114
3386.00,1.9216
3385.00,1.9313
3384.00,1.9404
3383.00,1.9492
3382.00,1.9579
3381.00,1.9665
3380.00,1.9748
3379.00,1.9824
3378.00,1.9892
3377.00,1.9950
3376.00,2.0001
3375.00,2.0048
3374.00,2.0093
3373.00,2.0137
3372.00,2.0178
3371.00,2.0217
3370.00,2.0254
3369.00,2.0286
3368.00,2.0312
3367.00,2.0331
3366.00,2.0346
3365.00,2.0359
3364.00,2.0367
3363.00,2.0369
3362.00,2.0364
3361.00,2.0357
3360.00,2.0347
3359.00,2.0333
3358.00,2.0315
3357.00,2.0292
3356.00,2.0262
3355.00,2.0223
3354.00,2.0176
3353.00,2.0123
3352.00,2.0068
3351.00,2.0016
3350.00,1.9968
3349.00,1.9919
3348.00,1.9864
3347.00,1.9799
3346.00,1.9725
3345.00,1.9645
3344.00,1.9559
3343.00,1.9467
3342.00,1.9370
3341.00,1.9269
3340.00,1.9164
3339.00,1.9054
3338.00,1.8939
3337.00,1.8817
3336.00,1.8688
3335.00,1.8552
3334.00,1.8410
3333.00,1.8265
3332.00,1.8115
3331.00,1.7960
3330.00,1.7798
3329.00,1.7629
3328.00,1.7454
3327.00,1.7273
3326.00,1.7088
3325.00,1.6896
3324.00,1.6697
3323.00,1.6487
3322.00,1.6266
3321.00,1.6037
3320.00,1.5801
3319.00,1.5559
3318.00,1.5309
3317.00,1.5052
3316.00,1.4789
3315.00,1.4522
3314.00,1.4251
3313.00,1.3979
3312.00,1.3706
3311.00,1.3434
3310.00,1.3164
3309.00,1.2900
3308.00,1.2643
3307.00,1.2394
3306.00,1.2156
3305.00,1.1932
3304.00,1.1722
3303.00,1.1531
3302.00,1.1358
3301.00,1.1205
3300.00,1.1074
3299.00,1.0964
3298.00,1.0878
3297.00,1.0817
3296.00,1.0779
3295.00,1.0766
3294.00,1.0778
3293.00,1.0815
3292.00,1.0874
3291.00,1.0956
3290.00,1.1059
3289.00,1.1182
3288.00,1.1322
3287.00,1.1480
3286.00,1.1652
3285.00,1.1838
3284.00,1.2037
3283.00,1.2246
3282.00,1.2464
3281.00,1.2690
3280.00,1.2923
3279.00,1.3161
3278.00,1.3405
3277.00,1.3653
3276.00,1.3905
3275.00,1.4158
3274.00,1.4413
3273.00,1.4668
3272.00,1.4921
3271.00,1.5173
3270.00,1.5422
3269.00,1.5669
3268.00,1.5911
3267.00,1.6147
3266.00,1.6376
3265.00,1.6600
3264.00,1.6821
3263.00,1.7040
3262.00,1.7256
3261.00,1.7466
3260.00,1.7670
3259.00,1.7868
3258.00,1.8060
3257.00,1.8246
3256.00,1.8423
3255.00,1.8591
3254.00,1.8749
3253.00,1.8899
3252.00,1.9042
3251.00,1.9180
3250.00,1.9315
3249.00,1.9449
3248.00,1.9578
3247.00,1.9699
3246.00,1.9811
3245.00,1.9916
3244.00,2.0015
3243.00,2.0110
3242.00,2.0201
3241.00,2.0288
3240.00,2.0370
3239.00,2.0444
3238.00,2.0512
3237.00,2.0576
3236.00,2.0637
3235.00,2.0697
3234.00,2.0752
3233.00,2.0804
3232.00,2.0852
3231.00,2.0892
3230.00,2.0924
3229.00,2.0949
3228.00,2.0971
3227.00,2.0994
3226.00,2.1017
3225.00,2.1039
3224.00,2.1054
3223.00,2.1061
3222.00,2.1058
3221.00,2.1048
3220.00,2.1038
3219.00,2.1030
3218.00,2.1024
3217.00,2.1015
3216.00,2.0996
3215.00,2.0964
3214.00,2.0920
3213.00,2.0872
3212.00,2.0827
3211.00,2.0787
3210.00,2.0749
3209.00,2.0707
3208.00,2.0656
3207.00,2.0597
3206.00,2.0532
3205.00,2.0464
3204.00,2.0397
3203.00,2.0332
3202.00,2.0266
3201.00,2.0194
3200.00,2.0112
3199.00,2.0018
3198.00,1.9912
3197.00,1.9797
3196.00,1.9676
3195.00,1.9549
3194.00,1.9415
3193.00,1.9272
3192.00,1.9117
3191.00,1.8952
3190.00,1.8781
3189.00,1.8607
3188.00,1.8427
3187.00,1.8237
3186.00,1.8037
3185.00,1.7828
3184.00,1.7615
3183.00,1.7396
3182.00,1.7170
3181.00,1.6936
3180.00,1.6695
3179.00,1.6449
3178.00,1.6199
3177.00,1.5949
3176.00,1.5703
3175.00,1.5468
3174.00,1.5249
3173.00,1.5056
3172.00,1.4899
3171.00,1.4791
3170.00,1.4743
3169.00,1.4762
3168.00,1.4847
3167.00,1.4983
3166.00,1.5143
3165.00,1.5281
3164.00,1.5344
3163.00,1.5289
3162.00,1.5098
3161.00,1.4793
3160.00,1.4412
3159.00,1.4001
3158.00,1.3600
3157.00,1.3231
3156.00,1.2909
3155.00,1.2640
3154.00,1.2425
3153.00,1.2265
3152.00,1.2156
3151.00,1.2094
3150.00,1.2075
3149.00,1.2093
3148.00,1.2146
3147.00,1.2228
3146.00,1.2337
3145.00,1.2470
3144.00,1.2623
3143.00,1.2795
3142.00,1.2984
3141.00,1.3186
3140.00,1.3402
3139.00,1.3629
3138.00,1.3865
3137.00,1.4109
3136.00,1.4358
3135.00,1.4613
3134.00,1.4870
3133.00,1.5130
3132.00,1.5390
3131.00,1.5649
3130.00,1.5906
3129.00,1.6160
3128.00,1.6412
3127.00,1.6661
3126.00,1.6908
3125.00,1.7151
3124.00,1.7391
3123.00,1.7624
3122.00,1.7850
3121.00,1.8068
3120.00,1.8278
3119.00,1.8481
3118.00,1.8680
3117.00,1.8875
3116.00,1.9063
3115.00,1.9244
3114.00,1.9415
3113.00,1.9580
3112.00,1.9739
3111.00,1.9890
3110.00,2.0035
3109.00,2.0172
3108.00,2.0304
3107.00,2.0429
3106.00,2.0548
3105.00,2.0663
3104.00,2.0776
3103.00,2.0884
3102.00,2.0987
3101.00,2.1084
3100.00,2.1175
3099.00,2.1257
3098.00,2.1332
3097.00,2.1402
3096.00,2.1469
3095.00,2.1533
3094.00,2.1593
3093.00,2.1649
3092.00,2.1701
3091.00,2.1749
3090.00,2.1790
3089.00,2.1823
3088.00,2.1852
3087.00,2.1878
3086.00,2.1905
3085.00,2.1931
3084.00,2.1951
3083.00,2.1966
3082.00,2.1979
3081.00,2.1990
3080.00,2.1999
3079.00,2.1998
3078.00,2.1987
3077.00,2.1969
3076.00,2.1948
3075.00,2.1928
3074.00,2.1910
3073.00,2.1887
3072.00,2.1855
3071.00,2.1810
3070.00,2.1760
3069.00,2.1712
3068.00,2.1666
3067.00,2.1619
3066.00,2.1563
3065.00,2.1494
3064.00,2.1413
3063.00,2.1329
3062.00,2.1246
3061.00,2.1164
3060.00,2.1078
3059.00,2.0984
3058.00,2.0883
3057.00,2.0778
3056.00,2.0668
3055.00,2.0553
3054.00,2.0431
3053.00,2.0303
3052.00,2.0170
3051.00,2.0034
3050.00,1.9893
3049.00,1.9746
3048.00,1.9591
3047.00,1.9430
3046.00,1.9265
3045.00,1.9096
3044.00,1.8919
3043.00,1.8732
3042.00,1.8534
3041.00,1.8328
3040.00,1.8122
3039.00,1.7916
3038.00,1.7714
3037.00,1.7512
3036.00,1.7309
3035.00,1.7106
3034.00,1.6904
3033.00,1.6706
3032.00,1.6515
3031.00,1.6332
3030.00,1.6160
3029.00,1.6001
3028.00,1.5855
3027.00,1.5726
3026.00,1.5615
3025.00,1.5524
3024.00,1.5455
3023.00,1.5410
3022.00,1.5390
3021.00,1.5395
3020.00,1.5424
3019.00,1.5475
3018.00,1.5549
3017.00,1.5647
3016.00,1.5768
3015.00,1.5911
3014.00,1.6072
3013.00,1.6248
3012.00,1.6435
3011.00,1.6631
3010.00,1.6830
3009.00,1.7029
3008.00,1.7224
3007.00,1.7409
3006.00,1.7580
3005.00,1.7735
3004.00,1.7869
3003.00,1.7982
3002.00,1.8074
3001.00,1.8145
3000.00,1.8196
2999.00,1.8228
2998.00,1.8247
2997.00,1.8260
2996.00,1.8276
2995.00,1.8298
2994.00,1.8333
2993.00,1.8381
2992.00,1.8443
2991.00,1.8522
2990.00,1.8618
2989.00,1.8734
2988.00,1.8872
2987.00,1.9029
2986.00,1.9201
2985.00,1.9383
2984.00,1.9572
2983.00,1.9768
2982.00,1.9972
2981.00,2.0184
2980.00,2.0402
2979.00,2.0620
2978.00,2.0834
2977.00,2.1046
2976.00,2.1259
2975.00,2.1473
2974.00,2.1686
2973.00,2.1892
2972.00,2.2089
2971.00,2.2275
2970.00,2.2453
2969.00,2.2624
2968.00,2.2788
2967.00,2.2945
2966.00,2.3093
2965.00,2.3232
2964.00,2.3361
2963.00,2.3477
2962.00,2.3581
2961.00,2.3680
2960.00,2.3783
2959.00,2.3895
2958.00,2.4014
2957.00,2.4136
2956.00,2.4261
2955.00,2.4390
2954.00,2.4521
2953.00,2.4653
2952.00,2.4785
2951.00,2.4920
2950.00,2.5061
2949.00,2.5212
2948.00,2.5369
2947.00,2.5522
2946.00,2.5652
2945.00,2.5740
2944.00,2.5776
2943.00,2.5758
2942.00,2.5682
2941.00,2.5551
2940.00,2.5380
2939.00,2.5198
2938.00,2.5030
2937.00,2.4882
2936.00,2.4748
2935.00,2.4624
2934.00,2.4507
2933.00,2.4395
2932.00,2.4289
2931.00,2.4193
2930.00,2.4116
2929.00,2.4057
2928.00,2.4009
2927.00,2.3967
2926.00,2.3928
2925.00,2.3893
2924.00,2.3860
2923.00,2.3824
2922.00,2.3784
2921.00,2.3742
2920.00,2.3700
2919.00,2.3656
2918.00,2.3610
2917.00,2.3563
2916.00,2.3517
2915.00,2.3472
2914.00,2.3429
2913.00,2.3385
2912.00,2.3337
2911.00,2.3284
2910.00,2.3226
2909.00,2.3164
2908.00,2.3095
2907.00,2.3021
2906.00,2.2941
2905.00,2.2855
2904.00,2.2767
2903.00,2.2679
2902.00,2.2592
2901.00,2.2500
2900.00,2.2394
2899.00,2.2276
2898.00,2.2150
2897.00,2.2022
2896.00,2.1892
2895.00,2.1757
2894.00,2.1615
2893.00,2.1462
2892.00,2.1296
2891.00,2.1117
2890.00,2.0929
2889.00,2.0741
2888.00,2.0554
2887.00,2.0368
2886.00,2.0177
2885.00,1.9981
2884.00,1.9780
2883.00,1.9578
2882.00,1.9382
2881.00,1.9196
2880.00,1.9024
2879.00,1.8871
2878.00,1.8742
2877.00,1.8636
2876.00,1.8555
2875.00,1.8499
2874.00,1.8468
2873.00,1.8459
2872.00,1.8465
2871.00,1.8473
2870.00,1.8472
2869.00,1.8455
2868.00,1.8416
2867.00,1.8349
2866.00,1.8251
2865.00,1.8121
2864.00,1.7962
2863.00,1.7776
2862.00,1.7564
2861.00,1.7325
2860.00,1.7053
2859.00,1.6749
2858.00,1.6420
2857.00,1.6075
2856.00,1.5727
2855.00,1.5387
2854.00,1.5067
2853.00,1.4776
2852.00,1.4521
2851.00,1.4308
2850.00,1.4141
2849.00,1.4022
2848.00,1.3954
2847.00,1.3934
2846.00,1.3960
2845.00,1.4027
2844.00,1.4133
2843.00,1.4273
2842.00,1.4443
2841.00,1.4637
2840.00,1.4851
2839.00,1.5081
2838.00,1.5325
2837.00,1.5580
2836.00,1.5844
2835.00,1.6116
2834.00,1.6394
2833.00,1.6674
2832.00,1.6955
2831.00,1.7234
2830.00,1.7511
2829.00,1.7786
2828.00,1.8059
2827.00,1.8327
2826.00,1.8593
2825.00,1.8855
2824.00,1.9113
2823.00,1.9364
2822.00,1.9607
2821.00,1.9842
2820.00,2.0075
2819.00,2.0303
2818.00,2.0522
2817.00,2.0726
2816.00,2.0917
2815.00,2.1099
2814.00,2.1277
2813.00,2.1450
2812.00,2.1617
2811.00,2.1776
2810.00,2.1926
2809.00,2.2069
2808.00,2.2204
2807.00,2.2333
2806.00,2.2457
2805.00,2.2575
2804.00,2.2685
2803.00,2.2783
2802.00,2.2871
2801.00,2.2953
2800.00,2.3028
2799.00,2.3097
2798.00,2.3166
2797.00,2.3238
2796.00,2.3309
2795.00,2.3375
2794.00,2.3435
2793.00,2.3491
2792.00,2.3547
2791.00,2.3598
2790.00,2.3640
2789.00,2.3672
2788.00,2.3695
2787.00,2.3711
2786.00,2.3721
2785.00,2.3726
2784.00,2.3729
2783.00,2.3730
2782.00,2.3729
2781.00,2.3725
2780.00,2.3717
2779.00,2.3707
2778.00,2.3693
2777.00,2.3673
2776.00,2.3647
2775.00,2.3614
2774.00,2.3575
2773.00,2.3529
2772.00,2.3471
2771.00,2.3402
2770.00,2.3329
2769.00,2.3261
2768.00,2.3196
2767.00,2.3127
2766.00,2.3050
2765.00,2.2963
2764.00,2.2871
2763.00,2.2776
2762.00,2.2677
2761.00,2.2574
2760.00,2.2462
2759.00,2.2341
2758.00,2.2212
2757.00,2.2076
2756.00,2.1937
2755.00,2.1793
2754.00,2.1642
2753.00,2.1481
2752.00,2.1311
2751.00,2.1130
2750.00,2.0938
2749.00,2.0735
2748.00,2.0521
2747.00,2.0299
2746.00,2.0067
2745.00,1.9822
2744.00,1.9565
2743.00,1.9297
2742.00,1.9021
2741.00,1.8736
2740.00,1.8438
2739.00,1.8125
2738.00,1.7795
2737.00,1.7452
2736.00,1.7096
2735.00,1.6726
2734.00,1.6344
2733.00,1.5950
2732.00,1.5547
2731.00,1.5138
2730.00,1.4727
2729.00,1.4317
2728.00,1.3911
2727.00,1.3516
2726.00,1.3135
2725.00,1.2775
2724.00,1.2440
2723.00,1.2133
2722.00,1.1861
2721.00,1.1627
2720.00,1.1435
2719.00,1.1289
2718.00,1.1190
2717.00,1.1139
2716.00,1.1139
2715.00,1.1188
2714.00,1.1284
2713.00,1.1426
2712.00,1.1609
2711.00,1.1829
2710.00,1.2081
2709.00,1.2360
2708.00,1.2662
2707.00,1.2983
2706.00,1.3320
2705.00,1.3669
2704.00,1.4030
2703.00,1.4398
2702.00,1.4771
2701.00,1.5149
2700.00,1.5529
2699.00,1.5908
2698.00,1.6286
2697.00,1.6659
2696.00,1.7030
2695.00,1.7395
2694.00,1.7755
2693.00,1.8109
2692.00,1.8456
2691.00,1.8792
2690.00,1.9115
2689.00,1.9426
2688.00,1.9723
2687.00,2.0007
2686.00,2.0278
2685.00,2.0536
2684.00,2.0784
2683.00,2.1024
2682.00,2.1256
2681.00,2.1476
2680.00,2.1681
2679.00,2.1869
2678.00,2.2046
2677.00,2.2216
2676.00,2.2380
2675.00,2.2536
2674.00,2.2685
2673.00,2.2828
2672.00,2.2968
2671.00,2.3101
2670.00,2.3225
2669.00,2.3336
2668.00,2.3438
2667.00,2.3537
2666.00,2.3638
2665.00,2.3741
2664.00,2.3841
2663.00,2.3934
2662.00,2.4021
2661.00,2.4106
2660.00,2.4189
2659.00,2.4264
2658.00,2.4324
2657.00,2.4367
2656.00,2.4402
2655.00,2.4441
2654.00,2.4491
2653.00,2.4545
2652.00,2.4587
2651.00,2.4616
2650.00,2.4638
2649.00,2.4664
2648.00,2.4693
2647.00,2.4717
2646.00,2.4729
2645.00,2.4728
2644.00,2.4714
2643.00,2.4695
2642.00,2.4681
2641.00,2.4674
2640.00,2.4668
2639.00,2.4652
2638.00,2.4625
2637.00,2.4587
2636.00,2.4538
2635.00,2.4480
2634.00,2.4423
2633.00,2.4376
2632.00,2.4339
2631.00,2.4306
2630.00,2.4274
2629.00,2.4242
2628.00,2.4204
2627.00,2.4152
2626.00,2.4082
2625.00,2.4000
2624.00,2.3913
2623.00,2.3824
2622.00,2.3731
2621.00,2.3633
2620.00,2.3527
2619.00,2.3409
2618.00,2.3277
2617.00,2.3133
2616.00,2.2983
2615.00,2.2831
2614.00,2.2675
2613.00,2.2511
2612.00,2.2337
2611.00,2.2150
2610.00,2.1954
2609.00,2.1748
2608.00,2.1535
2607.00,2.1314
2606.00,2.1083
2605.00,2.0840
2604.00,2.0583
2603.00,2.0312
2602.00,2.0025
2601.00,1.9720
2600.00,1.9400
2599.00,1.9066
2598.00,1.8718
2597.00,1.8354
2596.00,1.7970
2595.00,1.7567
2594.00,1.7147
2593.00,1.6711
2592.00,1.6264
2591.00,1.5810
2590.00,1.5351
2589.00,1.4893
2588.00,1.4439
2587.00,1.3995
2586.00,1.3567
2585.00,1.3162
2584.00,1.2786
2583.00,1.2446
2582.00,1.2146
2581.00,1.1892
2580.00,1.1687
2579.00,1.1534
2578.00,1.1438
2577.00,1.1398
2576.00,1.1416
2575.00,1.1490
2574.00,1.1616
2573.00,1.1793
2572.00,1.2013
2571.00,1.2270
2570.00,1.2559
2569.00,1.2873
2568.00,1.3208
2567.00,1.3561
2566.00,1.3928
2565.00,1.4306
2564.00,1.4694
2563.00,1.5088
2562.00,1.5486
2561.00,1.5886
2560.00,1.6288
2559.00,1.6690
2558.00,1.7092
2557.00,1.7489
2556.00,1.7880
2555.00,1.8261
2554.00,1.8634
2553.00,1.8996
2552.00,1.9347
2551.00,1.9688
2550.00,2.0020
2549.00,2.0342
2548.00,2.0651
2547.00,2.0941
2546.00,2.1210
2545.00,2.1465
2544.00,2.1714
2543.00,2.1959
2542.00,2.2197
2541.00,2.2421
2540.00,2.2628
2539.00,2.2818
2538.00,2.2997
2537.00,2.3173
2536.00,2.3348
2535.00,2.3517
2534.00,2.3673
2533.00,2.3816
2532.00,2.3952
2531.00,2.4088
2530.00,2.4226
2529.00,2.4360
2528.00,2.4481
2527.00,2.4586
2526.00,2.4677
2525.00,2.4759
2524.00,2.4838
2523.00,2.4917
2522.00,2.5000
2521.00,2.5087
2520.00,2.5178
2519.00,2.5265
2518.00,2.5335
2517.00,2.5385
2516.00,2.5424
2515.00,2.5465
2514.00,2.5511
2513.00,2.5552
2512.00,2.5580
2511.00,2.5601
2510.00,2.5624
2509.00,2.5647
2508.00,2.5668
2507.00,2.5688
2506.00,2.5703
2505.00,2.5707
2504.00,2.5696
2503.00,2.5679
2502.00,2.5668
2501.00,2.5665
2500.00,2.5663
2499.00,2.5658
2498.00,2.5650
2497.00,2.5633
2496.00,2.5602
2495.00,2.5561
2494.00,2.5521
2493.00,2.5484
2492.00,2.5436
2491.00,2.5366
2490.00,2.5279
2489.00,2.5189
2488.00,2.5109
2487.00,2.5036
2486.00,2.4968
2485.00,2.4898
2484.00,2.4821
2483.00,2.4733
2482.00,2.4629
2481.00,2.4513
2480.00,2.4389
2479.00,2.4264
2478.00,2.4138
2477.00,2.4009
2476.00,2.3873
2475.00,2.3728
2474.00,2.3572
2473.00,2.3407
2472.00,2.3230
2471.00,2.3043
2470.00,2.2849
2469.00,2.2650
2468.00,2.2444
2467.00,2.2226
2466.00,2.1994
2465.00,2.1747
2464.00,2.1489
2463.00,2.1222
2462.00,2.0945
2461.00,2.0655
2460.00,2.0348
2459.00,2.0021
2458.00,1.9673
2457.00,1.9305
2456.00,1.8919
2455.00,1.8519
2454.00,1.8108
2453.00,1.7687
2452.00,1.7255
2451.00,1.6816
2450.00,1.6373
2449.00,1.5932
2448.00,1.5499
2447.00,1.5079
2446.00,1.4680
2445.00,1.4308
2444.00,1.3969
2443.00,1.3668
2442.00,1.3409
2441.00,1.3195
2440.00,1.3029
2439.00,1.2914
2438.00,1.2853
2437.00,1.2848
2436.00,1.2898
2435.00,1.3000
2434.00,1.3152
2433.00,1.3348
2432.00,1.3586
2431.00,1.3861
2430.00,1.4166
2429.00,1.4498
2428.00,1.4850
2427.00,1.5219
2426.00,1.5600
2425.00,1.5991
2424.00,1.6389
2423.00,1.6791
2422.00,1.7196
2421.00,1.7601
2420.00,1.8003
2419.00,1.8397
2418.00,1.8780
2417.00,1.9150
2416.00,1.9507
2415.00,1.9849
2414.00,2.0178
2413.00,2.0495
2412.00,2.0798
2411.00,2.1084
2410.00,2.1356
2409.00,2.1616
2408.00,2.1867
2407.00,2.2107
2406.00,2.2338
2405.00,2.2561
2404.00,2.2779
2403.00,2.2988
2402.00,2.3188
2401.00,2.3382
2400.00,2.3575
2399.00,2.3768
2398.00,2.3956
2397.00,2.4135
2396.00,2.4302
2395.00,2.4461
2394.00,2.4614
2393.00,2.4778
2392.00,2.4936
2391.00,2.5012
2390.00,2.5155
2389.00,2.5285
2388.00,2.5414
2387.00,2.5535
2386.00,2.5654
2385.00,2.5770
2384.00,2.5874
2383.00,2.5963
2382.00,2.6040
2381.00,2.6111
2380.00,2.6181
2379.00,2.6257
2378.00,2.6343
2377.00,2.6433
2376.00,2.6509
2375.00,2.6562
2374.00,2.6598
2373.00,2.6631
2372.00,2.6665
2371.00,2.6696
2370.00,2.6724
2369.00,2.6751
2368.00,2.6782
2367.00,2.6822
2366.00,2.6867
2365.00,2.6903
2364.00,2.6904
2363.00,2.6866
2362.00,2.6815
2361.00,2.6785
2360.00,2.6780
2359.00,2.6785
2358.00,2.6781
2357.00,2.6753
2356.00,2.6691
2355.00,2.6603
2354.00,2.6520
2353.00,2.6465
2352.00,2.6434
2351.00,2.6398
2350.00,2.6339
2349.00,2.6262
2348.00,2.6177
2347.00,2.6088
2346.00,2.5996
2345.00,2.5902
2344.00,2.5805
2343.00,2.5700
2342.00,2.5587
2341.00,2.5474
2340.00,2.5365
2339.00,2.5251
2338.00,2.5118
2337.00,2.4958
2336.00,2.4767
2335.00,2.4576
2334.00,2.4365
2333.00,2.4202
2332.00,2.3957
2331.00,2.3819
2330.00,2.3365
2329.00,2.1579
2328.00,2.1628
2327.00,2.1700
2326.00,2.1798
2325.00,2.1784
2324.00,2.1625
2323.00,2.1394
2322.00,2.1077
2321.00,2.0694
2320.00,2.0337
2319.00,2.0054
2318.00,1.9981
2317.00,1.9970
2316.00,2.0031
2315.00,1.9933
2314.00,1.9778
2313.00,1.9462
2312.00,1.9150
2311.00,1.8776
2310.00,1.8456
2309.00,1.8134
2308.00,1.7905
2307.00,1.7752
2306.00,1.7753
2305.00,1.7876
2304.00,1.8155
2303.00,1.8518
2302.00,1.8995
2301.00,1.9526
2300.00,2.0146
2299.00,2.0789
2298.00,2.1477
2297.00,2.2137
2296.00,2.2759
2295.00,2.3257
2294.00,2.3577
2293.00,2.3649
2292.00,2.3453
2291.00,2.3023
2290.00,2.2430
2289.00,2.1771
2288.00,2.1124
2287.00,2.0558
2286.00,2.0116
2285.00,1.9833
2284.00,1.9704
2283.00,1.9712
2282.00,1.9828
2281.00,2.0039
2280.00,2.0329
2279.00,2.0684
2278.00,2.1086
2277.00,2.1520
2276.00,2.1982
2275.00,2.2462
2274.00,2.2948
2273.00,2.3423
2272.00,2.3881
2271.00,2.4324
2270.00,2.4758
2269.00,2.5175
2268.00,2.5568
2267.00,2.5937
2266.00,2.6300
2265.00,2.6668
2264.00,2.7033
2263.00,2.7395
2262.00,2.7761
2261.00,2.8168
2260.00,2.8652
2259.00,2.9264
2258.00,3.0064
2257.00,3.1121
2256.00,3.2490
2255.00,3.4137
2254.00,3.5762
2253.00,3.6533
2252.00,3.5792
2251.00,3.4124
2250.00,3.2281
2249.00,3.0517
2248.00,2.8889
2247.00,2.7419
2246.00,2.6139
2245.00,2.5086
2244.00,2.4288
2243.00,2.3750
2242.00,2.3456
2241.00,2.3374
2240.00,2.3458
2239.00,2.3659
2238.00,2.3937
2237.00,2.4257
2236.00,2.4593
2235.00,2.4926
2234.00,2.5245
2233.00,2.5546
2232.00,2.5829
2231.00,2.6091
2230.00,2.6330
2229.00,2.6544
2228.00,2.6732
2227.00,2.6891
2226.00,2.7025
2225.00,2.7137
2224.00,2.7234
2223.00,2.7322
2222.00,2.7407
2221.00,2.7489
2220.00,2.7565
2219.00,2.7627
2218.00,2.7674
2217.00,2.7718
2216.00,2.7768
2215.00,2.7825
2214.00,2.7879
2213.00,2.7917
2212.00,2.7934
2211.00,2.7932
2210.00,2.7915
2209.00,2.7883
2208.00,2.7845
2207.00,2.7813
2206.00,2.7802
2205.00,2.7811
2204.00,2.7825
2203.00,2.7827
2202.00,2.7804
2201.00,2.7757
2200.00,2.7696
2199.00,2.7630
2198.00,2.7561
2197.00,2.7482
2196.00,2.7393
2195.00,2.7302
2194.00,2.7217
2193.00,2.7138
2192.00,2.7059
2191.00,2.6967
2190.00,2.6854
2189.00,2.6716
2188.00,2.6566
2187.00,2.6421
2186.00,2.6289
2185.00,2.6163
2184.00,2.6022
2183.00,2.5857
2182.00,2.5674
2181.00,2.5488
2180.00,2.5307
2179.00,2.5130
2178.00,2.4944
2177.00,2.4736
2176.00,2.4496
2175.00,2.4228
2174.00,2.3948
2173.00,2.3671
2172.00,2.3396
2171.00,2.3112
2170.00,2.2805
2169.00,2.2474
2168.00,2.2119
2167.00,2.1745
2166.00,2.1348
2165.00,2.0927
2164.00,2.0483
2163.00,2.0016
2162.00,1.9525
2161.00,1.9012
2160.00,1.8480
2159.00,1.7932
2158.00,1.7372
2157.00,1.6809
2156.00,1.6251
2155.00,1.5711
2154.00,1.5199
2153.00,1.4724
2152.00,1.4297
2151.00,1.3926
2150.00,1.3621
2149.00,1.3389
2148.00,1.3237
2147.00,1.3168
2146.00,1.3181
2145.00,1.3276
2144.00,1.3449
2143.00,1.3691
2142.00,1.3993
2141.00,1.4345
2140.00,1.4738
2139.00,1.5164
2138.00,1.5614
2137.00,1.6082
2136.00,1.6566
2135.00,1.7059
2134.00,1.7557
2133.00,1.8055
2132.00,1.8552
2131.00,1.9045
2130.00,1.9532
2129.00,2.0011
2128.00,2.0475
2127.00,2.0923
2126.00,2.1356
2125.00,2.1774
2124.00,2.2171
2123.00,2.2545
2122.00,2.2898
2121.00,2.3238
2120.00,2.3566
2119.00,2.3879
2118.00,2.4170
2117.00,2.4440
2116.00,2.4696
2115.00,2.4945
2114.00,2.5188
2113.00,2.5418
2112.00,2.5632
2111.00,2.5835
2110.00,2.6031
2109.00,2.6222
2108.00,2.6406
2107.00,2.6586
2106.00,2.6758
2105.00,2.6909
2104.00,2.7031
2103.00,2.7137
2102.00,2.7252
2101.00,2.7392
2100.00,2.7555
2099.00,2.7726
2098.00,2.7885
2097.00,2.8010
2096.00,2.8094
2095.00,2.8151
2094.00,2.8204
2093.00,2.8260
2092.00,2.8314
2091.00,2.8363
2090.00,2.8409
2089.00,2.8456
2088.00,2.8503
2087.00,2.8552
2086.00,2.8600
2085.00,2.8641
2084.00,2.8668
2083.00,2.8688
2082.00,2.8719
2081.00,2.8768
2080.00,2.8819
2079.00,2.8850
2078.00,2.8856
2077.00,2.8854
2076.00,2.8866
2075.00,2.8899
2074.00,2.8935
2073.00,2.8953
2072.00,2.8953
2071.00,2.8957
2070.00,2.8979
2069.00,2.9005
2068.00,2.9007
2067.00,2.8973
2066.00,2.8911
2065.00,2.8834
2064.00,2.8749
2063.00,2.8663
2062.00,2.8583
2061.00,2.8510
2060.00,2.8440
2059.00,2.8374
2058.00,2.8313
2057.00,2.8250
2056.00,2.8180
2055.00,2.8102
2054.00,2.8019
2053.00,2.7920
2052.00,2.7790
2051.00,2.7636
2050.00,2.7477
2049.00,2.7332
2048.00,2.7197
2047.00,2.7063
2046.00,2.6924
2045.00,2.6784
2044.00,2.6643
2043.00,2.6498
2042.00,2.6343
2041.00,2.6171
2040.00,2.5981
2039.00,2.5774
2038.00,2.5556
2037.00,2.5327
2036.00,2.5078
2035.00,2.4799
2034.00,2.4497
2033.00,2.4187
2032.00,2.3883
2031.00,2.3581
2030.00,2.3269
2029.00,2.2934
2028.00,2.2571
2027.00,2.2179
2026.00,2.1760
2025.00,2.1316
2024.00,2.0852
2023.00,2.0367
2022.00,1.9857
2021.00,1.9320
2020.00,1.8765
2019.00,1.8203
2018.00,1.7643
2017.00,1.7087
2016.00,1.6543
2015.00,1.6021
2014.00,1.5536
2013.00,1.5100
2012.00,1.4723
2011.00,1.4414
2010.00,1.4179
2009.00,1.4025
2008.00,1.3955
2007.00,1.3971
2006.00,1.4071
2005.00,1.4251
2004.00,1.4503
2003.00,1.4817
2002.00,1.5181
2001.00,1.5589
2000.00,1.6030
1999.00,1.6497
1998.00,1.6982
1997.00,1.7477
1996.00,1.7976
1995.00,1.8479
1994.00,1.8990
1993.00,1.9509
1992.00,2.0028
1991.00,2.0533
1990.00,2.1020
1989.00,2.1490
1988.00,2.1945
1987.00,2.2383
1986.00,2.2804
1985.00,2.3210
1984.00,2.3596
1983.00,2.3959
1982.00,2.4296
1981.00,2.4609
1980.00,2.4906
1979.00,2.5192
1978.00,2.5469
1977.00,2.5730
1976.00,2.5974
1975.00,2.6205
1974.00,2.6432
1973.00,2.6654
1972.00,2.6863
1971.00,2.7057
1970.00,2.7248
1969.00,2.7441
1968.00,2.7628
1967.00,2.7794
1966.00,2.7936
1965.00,2.8063
1964.00,2.8184
1963.00,2.8303
1962.00,2.8420
1961.00,2.8536
1960.00,2.8648
1959.00,2.8756
1958.00,2.8868
1957.00,2.8994
1956.00,2.9128
1955.00,2.9252
1954.00,2.9349
1953.00,2.9426
1952.00,2.9500
1951.00,2.9570
1950.00,2.9619
1949.00,2.9639
1948.00,2.9648
1947.00,2.9667
1946.00,2.9701
1945.00,2.9748
1944.00,2.9805
1943.00,2.9871
1942.00,2.9939
1941.00,2.9998
1940.00,3.0045
1939.00,3.0077
1938.00,3.0087
1937.00,3.0064
1936.00,3.0011
1935.00,2.9961
1934.00,2.9944
1933.00,2.9970
1932.00,3.0014
1931.00,3.0033
1930.00,3.0004
1929.00,2.9940
1928.00,2.9876
1927.00,2.9841
1926.00,2.9835
1925.00,2.9840
1924.00,2.9824
1923.00,2.9763
1922.00,2.9661
1921.00,2.9554
1920.00,2.9484
1919.00,2.9455
1918.00,2.9429
1917.00,2.9369
1916.00,2.9279
1915.00,2.9176
1914.00,2.9063
1913.00,2.8940
1912.00,2.8817
1911.00,2.8705
1910.00,2.8596
1909.00,2.8473
1908.00,2.8335
1907.00,2.8188
1906.00,2.8031
1905.00,2.7855
1904.00,2.7659
1903.00,2.7452
1902.00,2.7244
1901.00,2.7044
1900.00,2.6855
1899.00,2.6672
1898.00,2.6473
1897.00,2.6242
1896.00,2.5982
1895.00,2.5700
1894.00,2.5406
1893.00,2.5104
1892.00,2.4802
1891.00,2.4498
1890.00,2.4167
1889.00,2.3792
1888.00,2.3385
1887.00,2.2970
1886.00,2.2551
1885.00,2.2112
1884.00,2.1638
1883.00,2.1127
1882.00,2.0586
1881.00,2.0028
1880.00,1.9461
1879.00,1.8895
1878.00,1.8336
1877.00,1.7796
1876.00,1.7285
1875.00,1.6806
1874.00,1.6356
1873.00,1.5944
1872.00,1.5600
1871.00,1.5363
1870.00,1.5246
1869.00,1.5220
1868.00,1.5244
1867.00,1.5317
1866.00,1.5457
1865.00,1.5680
1864.00,1.5985
1863.00,1.6359
1862.00,1.6788
1861.00,1.7263
1860.00,1.7770
1859.00,1.8295
1858.00,1.8830
1857.00,1.9370
1856.00,1.9914
1855.00,2.0456
1854.00,2.0996
1853.00,2.1528
1852.00,2.2042
1851.00,2.2535
1850.00,2.3004
1849.00,2.3439
1848.00,2.3822
1847.00,2.4164
1846.00,2.4520
1845.00,2.4929
1844.00,2.5356
1843.00,2.5747
1842.00,2.6092
1841.00,2.6405
1840.00,2.6701
1839.00,2.6981
1838.00,2.7238
1837.00,2.7464
1836.00,2.7654
1835.00,2.7810
1834.00,2.7957
1833.00,2.8130
1832.00,2.8351
1831.00,2.8602
1830.00,2.8816
1829.00,2.8948
1828.00,2.9033
1827.00,2.9142
1826.00,2.9321
1825.00,2.9537
1824.00,2.9710
1823.00,2.9800
1822.00,2.9842
1821.00,2.9888
1820.00,2.9962
1819.00,3.0068
1818.00,3.0212
1817.00,3.0377
1816.00,3.0520
1815.00,3.0622
1814.00,3.0709
1813.00,3.0806
1812.00,3.0882
1811.00,3.0898
1810.00,3.0876
1809.00,3.0880
1808.00,3.0935
1807.00,3.1015
1806.00,3.1094
1805.00,3.1164
1804.00,3.1202
1803.00,3.1185
1802.00,3.1130
1801.00,3.1099
1800.00,3.1140
1799.00,3.1238
1798.00,3.1321
1797.00,3.1314
1796.00,3.1204
1795.00,3.1069
1794.00,3.1000
1793.00,3.1002
1792.00,3.1008
1791.00,3.0987
1790.00,3.0972
1789.00,3.0959
1788.00,3.0914
1787.00,3.0833
1786.00,3.0755
1785.00,3.0707
1784.00,3.0678
1783.00,3.0660
1782.00,3.0647
1781.00,3.0598
1780.00,3.0473
1779.00,3.0300
1778.00,3.0141
1777.00,2.9998
1776.00,2.9824
1775.00,2.9623
1774.00,2.9478
1773.00,2.9409
1772.00,2.9316
1771.00,2.9145
1770.00,2.8940
1769.00,2.8743
1768.00,2.8548
1767.00,2.8333
1766.00,2.8101
1765.00,2.7867
1764.00,2.7638
1763.00,2.7410
1762.00,2.7152
1761.00,2.6842
1760.00,2.6498
1759.00,2.6149
1758.00,2.5819
1757.00,2.5485
1756.00,2.5106
1755.00,2.4677
1754.00,2.4228
1753.00,2.3805
1752.00,2.3448
1751.00,2.3155
1750.00,2.2896
1749.00,2.2637
1748.00,2.2353
1747.00,2.2069
1746.00,2.1834
1745.00,2.1677
1744.00,2.1590
1743.00,2.1558
1742.00,2.1588
1741.00,2.1700
1740.00,2.1864
1739.00,2.2005
1738.00,2.2076
1737.00,2.2109
1736.00,2.2240
1735.00,2.2597
1734.00,2.3126
1733.00,2.3712
1732.00,2.4313
1731.00,2.4889
1730.00,2.5440
1729.00,2.5993
1728.00,2.6573
1727.00,2.7187
1726.00,2.7828
1725.00,2.8484
1724.00,2.9135
1723.00,2.9747
1722.00,3.0296
1721.00,3.0786
1720.00,3.1287
1719.00,3.1902
1718.00,3.2658
1717.00,3.3547
1716.00,3.4600
1715.00,3.5775
1714.00,3.6848
1713.00,3.7534
1712.00,3.7883
1711.00,3.8295
1710.00,3.8939
1709.00,3.9406
1708.00,3.9228
1707.00,3.8657
1706.00,3.7956
1705.00,3.6905
1704.00,3.5427
1703.00,3.3791
1702.00,3.2236
1701.00,3.0748
1700.00,2.9251
1699.00,2.7882
1698.00,2.6768
1697.00,2.5867
1696.00,2.5118
1695.00,2.4546
1694.00,2.4230
1693.00,2.4152
1692.00,2.4245
1691.00,2.4472
1690.00,2.4786
1689.00,2.5094
1688.00,2.5329
1687.00,2.5539
1686.00,2.5917
1685.00,2.6568
1684.00,2.7276
1683.00,2.7860
1682.00,2.8332
1681.00,2.8701
1680.00,2.8981
1679.00,2.9193
1678.00,2.9369
1677.00,2.9577
1676.00,2.9855
1675.00,3.0147
1674.00,3.0393
1673.00,3.0601
1672.00,3.0808
1671.00,3.1039
1670.00,3.1265
1669.00,3.1449
1668.00,3.1602
1667.00,3.1728
1666.00,3.1808
1665.00,3.1873
1664.00,3.1967
1663.00,3.2055
1662.00,3.2075
1661.00,3.2049
1660.00,3.2050
1659.00,3.2112
1658.00,3.2177
1657.00,3.2140
1656.00,3.1983
1655.00,3.1914
1654.00,3.2088
1653.00,3.2257
1652.00,3.2333
1651.00,3.2449
1650.00,3.2555
1649.00,3.2645
1648.00,3.2773
1647.00,3.2877
1646.00,3.2886
1645.00,3.2856
1644.00,3.2831
1643.00,3.2779
1642.00,3.2686
1641.00,3.2573
1640.00,3.2470
1639.00,3.2402
1638.00,3.2399
1637.00,3.2474
1636.00,3.2538
1635.00,3.2523
1634.00,3.2487
1633.00,3.2451
1632.00,3.2370
1631.00,3.2262
1630.00,3.2194
1629.00,3.2176
1628.00,3.2142
1627.00,3.2039
1626.00,3.1899
1625.00,3.1793
1624.00,3.1734
1623.00,3.1648
1622.00,3.1467
1621.00,3.1188
1620.00,3.0858
1619.00,3.0568
1618.00,3.0412
1617.00,3.0357
1616.00,3.0295
1615.00,3.0193
1614.00,3.0057
1613.00,2.9885
1612.00,2.9690
1611.00,2.9493
1610.00,2.9291
1609.00,2.9055
1608.00,2.8772
1607.00,2.8471
1606.00,2.8181
1605.00,2.7892
1604.00,2.7576
1603.00,2.7227
1602.00,2.6861
1601.00,2.6488
1600.00,2.6106
1599.00,2.5711
1598.00,2.5300
1597.00,2.4864
1596.00,2.4399
1595.00,2.3911
1594.00,2.3414
1593.00,2.2920
1592.00,2.2437
1591.00,2.1972
1590.00,2.1534
1589.00,2.1127
1588.00,2.0760
1587.00,2.0452
1586.00,2.0224
1585.00,2.0087
1584.00,2.0040
1583.00,2.0083
1582.00,2.0211
1581.00,2.0391
1580.00,2.0574
1579.00,2.0758
1578.00,2.1022
1577.00,2.1437
1576.00,2.1947
1575.00,2.2456
1574.00,2.2918
1573.00,2.3317
1572.00,2.3713
1571.00,2.4188
1570.00,2.4726
1569.00,2.5233
1568.00,2.5685
1567.00,2.6119
1566.00,2.6551
1565.00,2.6956
1564.00,2.7250
1563.00,2.7364
1562.00,2.7351
1561.00,2.7490
1560.00,2.8033
1559.00,2.8722
1558.00,2.9145
1557.00,2.9487
1556.00,2.9815
1555.00,3.0079
1554.00,3.0311
1553.00,3.0539
1552.00,3.0731
1551.00,3.0934
1550.00,3.1117
1549.00,3.1244
1548.00,3.1359
1547.00,3.1486
1546.00,3.1645
1545.00,3.1805
1544.00,3.1922
1543.00,3.2027
1542.00,3.2243
1541.00,3.2622
1540.00,3.2962
1539.00,3.3109
1538.00,3.3169
1537.00,3.3232
1536.00,3.3303
1535.00,3.3400
1534.00,3.3506
1533.00,3.3558
1532.00,3.3559
1531.00,3.3544
1530.00,3.3538
1529.00,3.3589
1528.00,3.3720
1527.00,3.3879
1526.00,3.3973
1525.00,3.3966
1524.00,3.3924
1523.00,3.3945
1522.00,3.4027
1521.00,3.4082
1520.00,3.4085
1519.00,3.4069
1518.00,3.4062
1517.00,3.4075
1516.00,3.4113
1515.00,3.4188
1514.00,3.4293
1513.00,3.4386
1512.00,3.4399
1511.00,3.4274
1510.00,3.4061
1509.00,3.3918
1508.00,3.3985
1507.00,3.4124
1506.00,3.4165
1505.00,3.4212
1504.00,3.4307
1503.00,3.4359
1502.00,3.4326
1501.00,3.4217
1500.00,3.4044
1499.00,3.3827
1498.00,3.3638
1497.00,3.3571
1496.00,3.3638
1495.00,3.3703
1494.00,3.3618
1493.00,3.3425
1492.00,3.3317
1491.00,3.3396
1490.00,3.3543
1489.00,3.3541
1488.00,3.3323
1487.00,3.2996
1486.00,3.2688
1485.00,3.2451
1484.00,3.2279
1483.00,3.2154
1482.00,3.2057
1481.00,3.1949
1480.00,3.1790
1479.00,3.1585
1478.00,3.1389
1477.00,3.1251
1476.00,3.1162
1475.00,3.1086
1474.00,3.1015
1473.00,3.0947
1472.00,3.0884
1471.00,3.0865
1470.00,3.0900
1469.00,3.0942
1468.00,3.0972
1467.00,3.1028
1466.00,3.1171
1465.00,3.1385
1464.00,3.1588
1463.00,3.1723
1462.00,3.1796
1461.00,3.1855
1460.00,3.1958
1459.00,3.2172
1458.00,3.2535
1457.00,3.3009
1456.00,3.3584
1455.00,3.4274
1454.00,3.4996
1453.00,3.5641
1452.00,3.6111
1451.00,3.6313
1450.00,3.6239
1449.00,3.5995
1448.00,3.5712
1447.00,3.5513
1446.00,3.5497
1445.00,3.5669
1444.00,3.5912
1443.00,3.6054
1442.00,3.5998
1441.00,3.5756
1440.00,3.5426
1439.00,3.5171
1438.00,3.5163
1437.00,3.5422
1436.00,3.5730
1435.00,3.5845
1434.00,3.5747
1433.00,3.5541
1432.00,3.5288
1431.00,3.5003
1430.00,3.4723
1429.00,3.4506
1428.00,3.4381
1427.00,3.4362
1426.00,3.4454
1425.00,3.4623
1424.00,3.4789
1423.00,3.4876
1422.00,3.4857
1421.00,3.4738
1420.00,3.4537
1419.00,3.4313
1418.00,3.4172
1417.00,3.4158
1416.00,3.4174
1415.00,3.4095
1414.00,3.3912
1413.00,3.3702
1412.00,3.3542
1411.00,3.3482
1410.00,3.3526
1409.00,3.3624
1408.00,3.3675
1407.00,3.3602
1406.00,3.3451
1405.00,3.3317
1404.00,3.3249
1403.00,3.3241
1402.00,3.3278
1401.00,3.3352
1400.00,3.3440
1399.00,3.3510
1398.00,3.3589
1397.00,3.3724
1396.00,3.3876
1395.00,3.3943
1394.00,3.3923
1393.00,3.3934
1392.00,3.4042
1391.00,3.4197
1390.00,3.4347
1389.00,3.4530
1388.00,3.4825
1387.00,3.5226
1386.00,3.5609
1385.00,3.5821
1384.00,3.5823
1383.00,3.5772
1382.00,3.5912
1381.00,3.6414
1380.00,3.7269
1379.00,3.8239
1378.00,3.8985
1377.00,3.9317
1376.00,3.9213
1375.00,3.8747
1374.00,3.8056
1373.00,3.7303
1372.00,3.6636
1371.00,3.6093
1370.00,3.5660
1369.00,3.5380
1368.00,3.5285
1367.00,3.5316
1366.00,3.5367
1365.00,3.5397
1364.00,3.5451
1363.00,3.5546
1362.00,3.5630
1361.00,3.5662
1360.00,3.5658
1359.00,3.5654
1358.00,3.5657
1357.00,3.5653
1356.00,3.5630
1355.00,3.5605
1354.00,3.5618
1353.00,3.5714
1352.00,3.5909
1351.00,3.6180
1350.00,3.6461
1349.00,3.6667
1348.00,3.6746
1347.00,3.6679
1346.00,3.6487
1345.00,3.6267
1344.00,3.6136
1343.00,3.6170
1342.00,3.6338
1341.00,3.6470
1340.00,3.6405
1339.00,3.6241
1338.00,3.6195
1337.00,3.6329
1336.00,3.6507
1335.00,3.6570
1334.00,3.6504
1333.00,3.6378
1332.00,3.6228
1331.00,3.6069
1330.00,3.5935
1329.00,3.5844
1328.00,3.5798
1327.00,3.5825
1326.00,3.5946
1325.00,3.6108
1324.00,3.6149
1323.00,3.5927
1322.00,3.5529
1321.00,3.5165
1320.00,3.4904
1319.00,3.4672
1318.00,3.4429
1317.00,3.4249
1316.00,3.4210
1315.00,3.4277
1314.00,3.4339
1313.00,3.4336
1312.00,3.4321
1311.00,3.4360
1310.00,3.4400
1309.00,3.4295
1308.00,3.3992
1307.00,3.3609
1306.00,3.3287
1305.00,3.3045
1304.00,3.2782
1303.00,3.2407
1302.00,3.1947
1301.00,3.1493
1300.00,3.1097
1299.00,3.0746
1298.00,3.0395
1297.00,3.0008
1296.00,2.9577
1295.00,2.9108
1294.00,2.8608
1293.00,2.8070
1292.00,2.7494
1291.00,2.6895
1290.00,2.6298
1289.00,2.5718
1288.00,2.5157
1287.00,2.4621
1286.00,2.4130
1285.00,2.3713
1284.00,2.3400
1283.00,2.3215
1282.00,2.3167
1281.00,2.3255
1280.00,2.3463
1279.00,2.3770
1278.00,2.4148
1277.00,2.4568
1276.00,2.4991
1275.00,2.5384
1274.00,2.5735
1273.00,2.6059
1272.00,2.6389
1271.00,2.6753
1270.00,2.7164
1269.00,2.7616
1268.00,2.8087
1267.00,2.8555
1266.00,2.9001
1265.00,2.9415
1264.00,2.9803
1263.00,3.0191
1262.00,3.0619
1261.00,3.1088
1260.00,3.1539
1259.00,3.1893
1258.00,3.2148
1257.00,3.2383
1256.00,3.2649
1255.00,3.2922
1254.00,3.3170
1253.00,3.3413
1252.00,3.3689
1251.00,3.3971
1250.00,3.4189
1249.00,3.4341
1248.00,3.4497
1247.00,3.4692
1246.00,3.4904
1245.00,3.5128
1244.00,3.5410
1243.00,3.5794
1242.00,3.6237
1241.00,3.6603
1240.00,3.6764
1239.00,3.6732
1238.00,3.6676
1237.00,3.6759
1236.00,3.6991
1235.00,3.7240
1234.00,3.7387
1233.00,3.7472
1232.00,3.7619
1231.00,3.7851
1230.00,3.8121
1229.00,3.8435
1228.00,3.8614
1227.00,3.8337
1226.00,3.7780
1225.00,3.7391
1224.00,3.7447
1223.00,3.8033
1222.00,3.9011
1221.00,3.9866
1220.00,3.9785
1219.00,3.8826
1218.00,3.7858
1217.00,3.7324
1216.00,3.7210
1215.00,3.7342
1214.00,3.7587
1213.00,3.7897
1212.00,3.8187
1211.00,3.8275
1210.00,3.8118
1209.00,3.7935
1208.00,3.7944
1207.00,3.8098
1206.00,3.8170
1205.00,3.8077
1204.00,3.7971
1203.00,3.7935
1202.00,3.7824
1201.00,3.7519
1200.00,3.7170
1199.00,3.7103
1198.00,3.7555
1197.00,3.8466
1196.00,3.9303
1195.00,3.9292
1194.00,3.8495
1193.00,3.7636
1192.00,3.7136
1191.00,3.7029
1190.00,3.7157
1189.00,3.7361
1188.00,3.7632
1187.00,3.8080
1186.00,3.8661
1185.00,3.9016
1184.00,3.8844
1183.00,3.8327
1182.00,3.7745
1181.00,3.7096
1180.00,3.6365
1179.00,3.5744
1178.00,3.5437
1177.00,3.5505
1176.00,3.5825
1175.00,3.6133
1174.00,3.6191
1173.00,3.5961
1172.00,3.5524
1171.00,3.4952
1170.00,3.4365
1169.00,3.3921
1168.00,3.3708
1167.00,3.3670
1166.00,3.3606
1165.00,3.3312
1164.00,3.2808
1163.00,3.2324
1162.00,3.2020
1161.00,3.1835
1160.00,3.1558
1159.00,3.1061
1158.00,3.0433
1157.00,2.9833
1156.00,2.9328
1155.00,2.8889
1154.00,2.8461
1153.00,2.8012
1152.00,2.7545
1151.00,2.7083
1150.00,2.6656
1149.00,2.6296
1148.00,2.6029
1147.00,2.5882
1146.00,2.5863
1145.00,2.5962
1144.00,2.6160
1143.00,2.6449
1142.00,2.6836
1141.00,2.7312
1140.00,2.7839
1139.00,2.8378
1138.00,2.8913
1137.00,2.9443
1136.00,2.9961
1135.00,3.0473
1134.00,3.1042
1133.00,3.1767
1132.00,3.2698
1131.00,3.3756
1130.00,3.4719
1129.00,3.5302
1128.00,3.5388
1127.00,3.5207
1126.00,3.5114
1125.00,3.5261
1124.00,3.5571
1123.00,3.5932
1122.00,3.6386
1121.00,3.7012
1120.00,3.7669
1119.00,3.8094
1118.00,3.8356
1117.00,3.8783
1116.00,3.9356
1115.00,3.9600
1114.00,3.9305
1113.00,3.8903
1112.00,3.8831
1111.00,3.9289
1110.00,4.0419
1109.00,4.2442
1108.00,4.3870
1107.00,4.2938
1106.00,4.2051
1105.00,4.1566
1104.00,4.1122
1103.00,4.0447
1102.00,3.9518
1101.00,3.8838
1100.00,3.8689
1099.00,3.9009
1098.00,3.9565
1097.00,4.0284
1096.00,4.1070
1095.00,4.1797
1094.00,4.2306
1093.00,4.2336
1092.00,4.2210
1091.00,4.2013
1090.00,4.1444
1089.00,4.0723
1088.00,4.0173
1087.00,3.9808
1086.00,3.9649
1085.00,3.9865
1084.00,4.0723
1083.00,4.2172
1082.00,4.4453
1081.00,4.6416
1080.00,4.6775
1079.00,4.8704
1078.00,4.5499
1077.00,4.2657
1076.00,4.1873
1075.00,4.2970
1074.00,4.7414
1073.00,4.6257
1072.00,4.2544
1071.00,4.1218
1070.00,4.1086
1069.00,4.2217
1068.00,4.3245
1067.00,4.2708
1066.00,4.2882
1065.00,4.4694
1064.00,4.7305
1063.00,4.8077
1062.00,4.6804
1061.00,4.6362
1060.00,4.6465
1059.00,4.5123
1058.00,4.2718
1057.00,4.0814
1056.00,3.9669
1055.00,3.9093
1054.00,3.8929
1053.00,3.9047
1052.00,3.9769
1051.00,4.1427
1050.00,4.5388
1049.00,5.1406
1048.00,4.6634
1047.00,4.5281
1046.00,4.4031
1045.00,4.4715
1044.00,4.6907
1043.00,4.3952
1042.00,4.3196
1041.00,4.4199
1040.00,4.5593
1039.00,4.6904
1038.00,4.8000
1037.00,5.2222
1036.00,4.8028
1035.00,4.3837
1034.00,4.2289
1033.00,4.1619
1032.00,4.1284
1031.00,4.0987
1030.00,4.0512
1029.00,4.0084
1028.00,4.0121
1027.00,4.1180
1026.00,4.2878
1025.00,4.2766
1024.00,4.2066
1023.00,4.1820
1022.00,4.1107
1021.00,4.0285
1020.00,3.9727
1019.00,3.9479
1018.00,3.9540
1017.00,3.9804
1016.00,4.0003
1015.00,3.9922
1014.00,3.9755
1013.00,3.9794
1012.00,3.9534
1011.00,3.8457
1010.00,3.7303
1009.00,3.6569
1008.00,3.6209
1007.00,3.6104
1006.00,3.6116
1005.00,3.6062
1004.00,3.5746
1003.00,3.5091
1002.00,3.4263
1001.00,3.3547
1000.00,3.3113
999.00,3.2960
998.00,3.2991
997.00,3.3089
996.00,3.3185
995.00,3.3281
994.00,3.3408
993.00,3.3620
992.00,3.3989
991.00,3.4564
990.00,3.5326
989.00,3.6132
988.00,3.6765
987.00,3.7116
986.00,3.7378
985.00,3.7863
984.00,3.8749
983.00,3.9844
982.00,4.1315
981.00,4.3917
980.00,4.5033
979.00,4.3757
978.00,4.4425
977.00,4.7340
976.00,4.6471
975.00,4.3627
974.00,4.2358
973.00,4.1243
972.00,4.0374
971.00,4.0197
970.00,4.0372
969.00,4.0732
968.00,4.1505
967.00,4.3105
966.00,4.4889
965.00,4.4593
964.00,4.2887
963.00,4.1270
962.00,4.0476
961.00,4.0681
960.00,4.1533
959.00,4.2230
958.00,4.2238
957.00,4.2201
956.00,4.2548
955.00,4.2750
954.00,4.2608
953.00,4.2879
952.00,4.3605
951.00,4.3894
950.00,4.3112
949.00,4.1583
948.00,4.0261
947.00,3.9779
946.00,4.0447
945.00,4.1983
944.00,4.2863
943.00,4.3052
942.00,4.3819
941.00,4.5170
940.00,4.6337
939.00,4.5684
938.00,4.5331
937.00,4.6502
936.00,4.5242
935.00,4.2708
934.00,4.1584
933.00,4.1535
932.00,4.2118
931.00,4.2696
930.00,4.2897
929.00,4.2817
928.00,4.2475
927.00,4.2211
926.00,4.3047
925.00,4.7255
924.00,4.8764
923.00,4.3927
922.00,4.2851
921.00,4.3163
920.00,4.4693
919.00,4.5161
918.00,4.2525
917.00,4.1689
916.00,4.2320
915.00,4.2043
914.00,4.1010
913.00,4.0508
912.00,4.0422
911.00,4.0559
910.00,4.0485
909.00,3.9953
908.00,3.9564
907.00,3.9650
906.00,3.9976
905.00,4.0209
904.00,4.0697
903.00,4.2269
902.00,4.5383
901.00,4.6491
900.00,4.2860
899.00,4.0058
898.00,3.8596
897.00,3.7879
896.00,3.7543
895.00,3.7628
894.00,3.8376
893.00,3.9897
892.00,4.1586
891.00,4.2372
890.00,4.2148
889.00,4.1516
888.00,4.1009
887.00,4.0465
886.00,3.9871
885.00,3.9686
884.00,4.0110
883.00,4.1225
882.00,4.2776
881.00,4.4512
880.00,4.5880
879.00,4.3409
878.00,4.0655
877.00,3.9363
876.00,3.9172
875.00,3.9859
874.00,4.1086
873.00,4.2020
872.00,4.4384
871.00,4.9452
870.00,4.5601
869.00,4.2974
868.00,4.1457
867.00,4.0537
866.00,4.0441
865.00,4.0594
864.00,4.0559
863.00,4.0015
862.00,3.9436
861.00,3.9080
860.00,3.8721
859.00,3.8171
858.00,3.7832
857.00,3.8251
856.00,3.9740
855.00,4.1801
854.00,4.3881
853.00,4.4470
852.00,4.2371
851.00,4.1501
850.00,4.2004
849.00,4.2416
848.00,4.1991
847.00,4.1448
846.00,4.1260
845.00,4.1187
844.00,4.1198
843.00,4.1458
842.00,4.2219
841.00,4.3532
840.00,4.5139
839.00,4.5846
838.00,4.4295
837.00,4.2223
836.00,4.0979
835.00,4.0728
834.00,4.1261
833.00,4.2036
832.00,4.2581
831.00,4.3168
830.00,4.4078
829.00,4.3221
828.00,4.0840
827.00,3.9290
826.00,3.8615
825.00,3.8341
824.00,3.8299
823.00,3.8684
822.00,3.9422
821.00,3.9622
820.00,3.8806
819.00,3.7890
818.00,3.7626
817.00,3.8216
816.00,3.9453
815.00,4.0754
814.00,4.1499
813.00,4.1535
812.00,4.1550
811.00,4.1911
810.00,4.2036
809.00,4.1632
808.00,4.1325
807.00,4.1378
806.00,4.1593
805.00,4.2097
804.00,4.2798
803.00,4.2896
802.00,4.2043
801.00,4.1394
800.00,4.1328
799.00,4.3567
798.00,4.6592
797.00,4.2491
796.00,4.2504
795.00,4.5084
794.00,4.3837
793.00,4.2471
792.00,4.1947
791.00,4.2115
790.00,4.2555
789.00,4.2131
788.00,4.0918
787.00,4.0046
786.00,4.0421
785.00,4.2420
784.00,4.3295
783.00,4.3277
782.00,4.5767
781.00,4.3723
780.00,4.0572
779.00,3.9685
778.00,3.9955
777.00,4.0743
776.00,4.1401
775.00,4.0962
774.00,3.9771
773.00,3.8919
772.00,3.8696
771.00,3.9174
770.00,4.0005
769.00,4.0276
768.00,4.0369
767.00,4.0854
766.00,4.1543
765.00,4.2634
764.00,4.2193
763.00,4.0331
762.00,3.9531
761.00,3.9655
760.00,3.9599
759.00,3.9190
758.00,3.9413
757.00,4.0842
756.00,4.2862
755.00,4.2192
754.00,4.0331
753.00,3.9898
752.00,4.0470
751.00,4.1323
750.00,4.1535
749.00,4.2438
748.00,4.4119
747.00,4.1327
746.00,3.9431
745.00,3.9778
744.00,4.3260
743.00,4.5010
742.00,4.0534
741.00,3.9591
740.00,4.0089
739.00,4.0751
738.00,4.0584
737.00,3.9487
736.00,3.8654
735.00,3.8081
734.00,3.7527
733.00,3.7072
732.00,3.7068
731.00,3.7648
730.00,3.8762
729.00,4.0072
728.00,4.0724
727.00,4.0781
726.00,4.1383
725.00,4.3201
724.00,4.3227
723.00,4.0500
722.00,3.8866
721.00,3.8275
720.00,3.8242
719.00,3.8581
718.00,3.9067
717.00,4.0398
716.00,4.2450
715.00,4.0896
714.00,3.9162
713.00,3.9192
712.00,4.0612
711.00,4.2872
710.00,4.4877
709.00,4.6433
708.00,4.4609
707.00,4.2160
706.00,4.0823
705.00,4.0361
704.00,4.0639
703.00,4.0326
702.00,3.8855
701.00,3.7784
700.00,3.7837
