Created as New Dataset,Sample 048 By Administrator Date Wednesday, November 24 2021
cm-1,A
7502.00,0.8226
7501.00,0.8267
7500.00,0.8299
7499.00,0.8317
7498.00,0.8327
7497.00,0.8331
7496.00,0.8329
7495.00,0.8317
7494.00,0.8299
7493.00,0.8287
7492.00,0.8291
7491.00,0.8309
7490.00,0.8332
7489.00,0.8345
7488.00,0.8338
7487.00,0.8308
7486.00,0.8258
7485.00,0.8197
7484.00,0.8128
7483.00,0.8056
7482.00,0.7985
7481.00,0.7922
7480.00,0.7865
7479.00,0.7814
7478.00,0.7767
7477.00,0.7727
7476.00,0.7694
7475.00,0.7660
7474.00,0.7623
7473.00,0.7580
7472.00,0.7533
7471.00,0.7481
7470.00,0.7418
7469.00,0.7339
7468.00,0.7250
7467.00,0.7164
7466.00,0.7089
7465.00,0.7023
7464.00,0.6956
7463.00,0.6882
7462.00,0.6799
7461.00,0.6716
7460.00,0.6633
7459.00,0.6550
7458.00,0.6464
7457.00,0.6378
7456.00,0.6301
7455.00,0.6237
7454.00,0.6182
7453.00,0.6132
7452.00,0.6079
7451.00,0.6024
7450.00,0.5968
7449.00,0.5914
7448.00,0.5862
7447.00,0.5812
7446.00,0.5765
7445.00,0.5723
7444.00,0.5686
7443.00,0.5652
7442.00,0.5618
7441.00,0.5584
7440.00,0.5551
7439.00,0.5518
7438.00,0.5486
7437.00,0.5455
7436.00,0.5425
7435.00,0.5399
7434.00,0.5380
7433.00,0.5369
7432.00,0.5362
7431.00,0.5357
7430.00,0.5355
7429.00,0.5356
7428.00,0.5360
7427.00,0.5367
7426.00,0.5376
7425.00,0.5388
7424.00,0.5405
7423.00,0.5426
7422.00,0.5452
7421.00,0.5484
7420.00,0.5519
7419.00,0.5555
7418.00,0.5591
7417.00,0.5630
7416.00,0.5674
7415.00,0.5722
7414.00,0.5772
7413.00,0.5825
7412.00,0.5882
7411.00,0.5945
7410.00,0.6014
7409.00,0.6084
7408.00,0.6154
7407.00,0.6224
7406.00,0.6295
7405.00,0.6371
7404.00,0.6449
7403.00,0.6527
7402.00,0.6605
7401.00,0.6686
7400.00,0.6771
7399.00,0.6862
7398.00,0.6956
7397.00,0.7051
7396.00,0.7144
7395.00,0.7236
7394.00,0.7330
7393.00,0.7426
7392.00,0.7520
7391.00,0.7606
7390.00,0.7687
7389.00,0.7768
7388.00,0.7855
7387.00,0.7945
7386.00,0.8034
7385.00,0.8122
7384.00,0.8210
7383.00,0.8298
7382.00,0.8386
7381.00,0.8473
7380.00,0.8560
7379.00,0.8647
7378.00,0.8733
7377.00,0.8819
7376.00,0.8903
7375.00,0.8984
7374.00,0.9059
7373.00,0.9124
7372.00,0.9181
7371.00,0.9233
7370.00,0.9283
7369.00,0.9337
7368.00,0.9394
7367.00,0.9450
7366.00,0.9505
7365.00,0.9556
7364.00,0.9604
7363.00,0.9648
7362.00,0.9686
7361.00,0.9720
7360.00,0.9751
7359.00,0.9782
7358.00,0.9814
7357.00,0.9847
7356.00,0.9879
7355.00,0.9905
7354.00,0.9925
7353.00,0.9943
7352.00,0.9962
7351.00,0.9984
7350.00,1.0002
7349.00,1.0013
7348.00,1.0013
7347.00,1.0007
7346.00,0.9995
7345.00,0.9979
7344.00,0.9959
7343.00,0.9937
7342.00,0.9918
7341.00,0.9903
7340.00,0.9889
7339.00,0.9872
7338.00,0.9846
7337.00,0.9811
7336.00,0.9767
7335.00,0.9715
7334.00,0.9660
7333.00,0.9605
7332.00,0.9551
7331.00,0.9498
7330.00,0.9444
7329.00,0.9391
7328.00,0.9338
7327.00,0.9283
7326.00,0.9222
7325.00,0.9156
7324.00,0.9087
7323.00,0.9015
7322.00,0.8941
7321.00,0.8865
7320.00,0.8787
7319.00,0.8708
7318.00,0.8630
7317.00,0.8554
7316.00,0.8480
7315.00,0.8407
7314.00,0.8332
7313.00,0.8254
7312.00,0.8175
7311.00,0.8096
7310.00,0.8016
7309.00,0.7936
7308.00,0.7856
7307.00,0.7776
7306.00,0.7696
7305.00,0.7617
7304.00,0.7538
7303.00,0.7462
7302.00,0.7390
7301.00,0.7321
7300.00,0.7255
7299.00,0.7192
7298.00,0.7134
7297.00,0.7080
7296.00,0.7027
7295.00,0.6973
7294.00,0.6921
7293.00,0.6873
7292.00,0.6831
7291.00,0.6793
7290.00,0.6760
7289.00,0.6733
7288.00,0.6711
7287.00,0.6692
7286.00,0.6677
7285.00,0.6664
7284.00,0.6655
7283.00,0.6648
7282.00,0.6646
7281.00,0.6650
7280.00,0.6662
7279.00,0.6681
7278.00,0.6704
7277.00,0.6730
7276.00,0.6759
7275.00,0.6790
7274.00,0.6826
7273.00,0.6867
7272.00,0.6912
7271.00,0.6958
7270.00,0.7006
7269.00,0.7058
7268.00,0.7115
7267.00,0.7176
7266.00,0.7239
7265.00,0.7302
7264.00,0.7366
7263.00,0.7432
7262.00,0.7503
7261.00,0.7579
7260.00,0.7658
7259.00,0.7737
7258.00,0.7817
7257.00,0.7899
7256.00,0.7983
7255.00,0.8066
7254.00,0.8148
7253.00,0.8228
7252.00,0.8305
7251.00,0.8381
7250.00,0.8460
7249.00,0.8547
7248.00,0.8639
7247.00,0.8731
7246.00,0.8820
7245.00,0.8907
7244.00,0.8995
7243.00,0.9083
7242.00,0.9166
7241.00,0.9242
7240.00,0.9309
7239.00,0.9375
7238.00,0.9444
7237.00,0.9516
7236.00,0.9588
7235.00,0.9657
7234.00,0.9722
7233.00,0.9787
7232.00,0.9855
7231.00,0.9925
7230.00,0.9989
7229.00,1.0046
7228.00,1.0099
7227.00,1.0151
7226.00,1.0203
7225.00,1.0250
7224.00,1.0290
7223.00,1.0326
7222.00,1.0363
7221.00,1.0402
7220.00,1.0438
7219.00,1.0468
7218.00,1.0495
7217.00,1.0521
7216.00,1.0547
7215.00,1.0569
7214.00,1.0584
7213.00,1.0593
7212.00,1.0597
7211.00,1.0603
7210.00,1.0610
7209.00,1.0617
7208.00,1.0615
7207.00,1.0604
7206.00,1.0589
7205.00,1.0575
7204.00,1.0560
7203.00,1.0540
7202.00,1.0512
7201.00,1.0478
7200.00,1.0443
7199.00,1.0410
7198.00,1.0375
7197.00,1.0336
7196.00,1.0294
7195.00,1.0247
7194.00,1.0201
7193.00,1.0157
7192.00,1.0112
7191.00,1.0061
7190.00,1.0005
7189.00,0.9947
7188.00,0.9888
7187.00,0.9828
7186.00,0.9765
7185.00,0.9697
7184.00,0.9624
7183.00,0.9546
7182.00,0.9467
7181.00,0.9388
7180.00,0.9309
7179.00,0.9230
7178.00,0.9153
7177.00,0.9081
7176.00,0.9010
7175.00,0.8937
7174.00,0.8860
7173.00,0.8779
7172.00,0.8696
7171.00,0.8610
7170.00,0.8520
7169.00,0.8429
7168.00,0.8340
7167.00,0.8254
7166.00,0.8171
7165.00,0.8091
7164.00,0.8014
7163.00,0.7940
7162.00,0.7869
7161.00,0.7799
7160.00,0.7730
7159.00,0.7661
7158.00,0.7595
7157.00,0.7532
7156.00,0.7473
7155.00,0.7415
7154.00,0.7361
7153.00,0.7311
7152.00,0.7263
7151.00,0.7217
7150.00,0.7174
7149.00,0.7136
7148.00,0.7104
7147.00,0.7076
7146.00,0.7052
7145.00,0.7033
7144.00,0.7018
7143.00,0.7008
7142.00,0.7002
7141.00,0.6998
7140.00,0.6998
7139.00,0.7001
7138.00,0.7009
7137.00,0.7020
7136.00,0.7035
7135.00,0.7055
7134.00,0.7081
7133.00,0.7113
7132.00,0.7149
7131.00,0.7187
7130.00,0.7229
7129.00,0.7276
7128.00,0.7327
7127.00,0.7381
7126.00,0.7437
7125.00,0.7493
7124.00,0.7553
7123.00,0.7614
7122.00,0.7678
7121.00,0.7745
7120.00,0.7814
7119.00,0.7887
7118.00,0.7966
7117.00,0.8049
7116.00,0.8137
7115.00,0.8226
7114.00,0.8314
7113.00,0.8400
7112.00,0.8485
7111.00,0.8570
7110.00,0.8656
7109.00,0.8743
7108.00,0.8831
7107.00,0.8921
7106.00,0.9011
7105.00,0.9098
7104.00,0.9181
7103.00,0.9261
7102.00,0.9341
7101.00,0.9423
7100.00,0.9508
7099.00,0.9595
7098.00,0.9681
7097.00,0.9765
7096.00,0.9846
7095.00,0.9925
7094.00,1.0005
7093.00,1.0084
7092.00,1.0162
7091.00,1.0239
7090.00,1.0317
7089.00,1.0392
7088.00,1.0456
7087.00,1.0510
7086.00,1.0560
7085.00,1.0611
7084.00,1.0662
7083.00,1.0713
7082.00,1.0767
7081.00,1.0824
7080.00,1.0879
7079.00,1.0928
7078.00,1.0971
7077.00,1.1011
7076.00,1.1048
7075.00,1.1083
7074.00,1.1115
7073.00,1.1148
7072.00,1.1180
7071.00,1.1208
7070.00,1.1228
7069.00,1.1241
7068.00,1.1249
7067.00,1.1254
7066.00,1.1255
7065.00,1.1253
7064.00,1.1250
7063.00,1.1245
7062.00,1.1236
7061.00,1.1223
7060.00,1.1207
7059.00,1.1193
7058.00,1.1181
7057.00,1.1165
7056.00,1.1145
7055.00,1.1121
7054.00,1.1095
7053.00,1.1065
7052.00,1.1028
7051.00,1.0982
7050.00,1.0932
7049.00,1.0879
7048.00,1.0824
7047.00,1.0767
7046.00,1.0711
7045.00,1.0657
7044.00,1.0602
7043.00,1.0541
7042.00,1.0474
7041.00,1.0407
7040.00,1.0338
7039.00,1.0265
7038.00,1.0186
7037.00,1.0102
7036.00,1.0016
7035.00,0.9931
7034.00,0.9847
7033.00,0.9763
7032.00,0.9680
7031.00,0.9599
7030.00,0.9519
7029.00,0.9440
7028.00,0.9358
7027.00,0.9274
7026.00,0.9186
7025.00,0.9095
7024.00,0.9003
7023.00,0.8912
7022.00,0.8823
7021.00,0.8736
7020.00,0.8649
7019.00,0.8564
7018.00,0.8482
7017.00,0.8402
7016.00,0.8323
7015.00,0.8246
7014.00,0.8172
7013.00,0.8103
7012.00,0.8036
7011.00,0.7970
7010.00,0.7906
7009.00,0.7848
7008.00,0.7794
7007.00,0.7746
7006.00,0.7702
7005.00,0.7661
7004.00,0.7624
7003.00,0.7589
7002.00,0.7558
7001.00,0.7531
7000.00,0.7509
6999.00,0.7490
6998.00,0.7478
6997.00,0.7474
6996.00,0.7477
6995.00,0.7484
6994.00,0.7493
6993.00,0.7507
6992.00,0.7527
6991.00,0.7550
6990.00,0.7578
6989.00,0.7609
6988.00,0.7647
6987.00,0.7690
6986.00,0.7738
6985.00,0.7791
6984.00,0.7847
6983.00,0.7906
6982.00,0.7967
6981.00,0.8029
6980.00,0.8093
6979.00,0.8159
6978.00,0.8228
6977.00,0.8299
6976.00,0.8372
6975.00,0.8449
6974.00,0.8529
6973.00,0.8613
6972.00,0.8696
6971.00,0.8778
6970.00,0.8858
6969.00,0.8940
6968.00,0.9025
6967.00,0.9109
6966.00,0.9193
6965.00,0.9275
6964.00,0.9359
6963.00,0.9446
6962.00,0.9533
6961.00,0.9617
6960.00,0.9698
6959.00,0.9777
6958.00,0.9858
6957.00,0.9938
6956.00,1.0018
6955.00,1.0097
6954.00,1.0177
6953.00,1.0258
6952.00,1.0337
6951.00,1.0414
6950.00,1.0486
6949.00,1.0555
6948.00,1.0617
6947.00,1.0672
6946.00,1.0724
6945.00,1.0780
6944.00,1.0839
6943.00,1.0898
6942.00,1.0955
6941.00,1.1010
6940.00,1.1064
6939.00,1.1115
6938.00,1.1161
6937.00,1.1201
6936.00,1.1235
6935.00,1.1266
6934.00,1.1298
6933.00,1.1330
6932.00,1.1356
6931.00,1.1374
6930.00,1.1381
6929.00,1.1385
6928.00,1.1389
6927.00,1.1395
6926.00,1.1399
6925.00,1.1402
6924.00,1.1404
6923.00,1.1407
6922.00,1.1407
6921.00,1.1402
6920.00,1.1391
6919.00,1.1376
6918.00,1.1356
6917.00,1.1329
6916.00,1.1299
6915.00,1.1269
6914.00,1.1241
6913.00,1.1209
6912.00,1.1169
6911.00,1.1121
6910.00,1.1067
6909.00,1.1011
6908.00,1.0953
6907.00,1.0893
6906.00,1.0834
6905.00,1.0775
6904.00,1.0716
6903.00,1.0652
6902.00,1.0584
6901.00,1.0512
6900.00,1.0436
6899.00,1.0358
6898.00,1.0280
6897.00,1.0202
6896.00,1.0124
6895.00,1.0044
6894.00,0.9962
6893.00,0.9876
6892.00,0.9786
6891.00,0.9692
6890.00,0.9597
6889.00,0.9503
6888.00,0.9411
6887.00,0.9322
6886.00,0.9235
6885.00,0.9147
6884.00,0.9057
6883.00,0.8964
6882.00,0.8872
6881.00,0.8782
6880.00,0.8693
6879.00,0.8606
6878.00,0.8521
6877.00,0.8439
6876.00,0.8361
6875.00,0.8286
6874.00,0.8213
6873.00,0.8142
6872.00,0.8073
6871.00,0.8006
6870.00,0.7941
6869.00,0.7880
6868.00,0.7822
6867.00,0.7767
6866.00,0.7714
6865.00,0.7666
6864.00,0.7623
6863.00,0.7586
6862.00,0.7554
6861.00,0.7523
6860.00,0.7495
6859.00,0.7470
6858.00,0.7451
6857.00,0.7438
6856.00,0.7428
6855.00,0.7422
6854.00,0.7423
6853.00,0.7431
6852.00,0.7442
6851.00,0.7456
6850.00,0.7474
6849.00,0.7498
6848.00,0.7528
6847.00,0.7562
6846.00,0.7600
6845.00,0.7642
6844.00,0.7690
6843.00,0.7741
6842.00,0.7796
6841.00,0.7853
6840.00,0.7912
6839.00,0.7973
6838.00,0.8037
6837.00,0.8106
6836.00,0.8178
6835.00,0.8254
6834.00,0.8334
6833.00,0.8417
6832.00,0.8500
6831.00,0.8582
6830.00,0.8664
6829.00,0.8746
6828.00,0.8829
6827.00,0.8913
6826.00,0.8999
6825.00,0.9089
6824.00,0.9182
6823.00,0.9276
6822.00,0.9369
6821.00,0.9461
6820.00,0.9551
6819.00,0.9641
6818.00,0.9730
6817.00,0.9818
6816.00,0.9905
6815.00,0.9990
6814.00,1.0077
6813.00,1.0165
6812.00,1.0253
6811.00,1.0339
6810.00,1.0422
6809.00,1.0503
6808.00,1.0584
6807.00,1.0661
6806.00,1.0734
6805.00,1.0806
6804.00,1.0879
6803.00,1.0954
6802.00,1.1029
6801.00,1.1100
6800.00,1.1165
6799.00,1.1224
6798.00,1.1277
6797.00,1.1325
6796.00,1.1367
6795.00,1.1406
6794.00,1.1445
6793.00,1.1486
6792.00,1.1527
6791.00,1.1568
6790.00,1.1608
6789.00,1.1646
6788.00,1.1678
6787.00,1.1704
6786.00,1.1725
6785.00,1.1744
6784.00,1.1760
6783.00,1.1771
6782.00,1.1778
6781.00,1.1786
6780.00,1.1794
6779.00,1.1798
6778.00,1.1795
6777.00,1.1787
6776.00,1.1776
6775.00,1.1763
6774.00,1.1750
6773.00,1.1734
6772.00,1.1715
6771.00,1.1691
6770.00,1.1665
6769.00,1.1635
6768.00,1.1598
6767.00,1.1554
6766.00,1.1504
6765.00,1.1455
6764.00,1.1409
6763.00,1.1364
6762.00,1.1316
6761.00,1.1263
6760.00,1.1206
6759.00,1.1145
6758.00,1.1079
6757.00,1.1007
6756.00,1.0929
6755.00,1.0849
6754.00,1.0769
6753.00,1.0691
6752.00,1.0613
6751.00,1.0529
6750.00,1.0440
6749.00,1.0346
6748.00,1.0252
6747.00,1.0157
6746.00,1.0060
6745.00,0.9962
6744.00,0.9865
6743.00,0.9770
6742.00,0.9678
6741.00,0.9587
6740.00,0.9495
6739.00,0.9401
6738.00,0.9308
6737.00,0.9216
6736.00,0.9125
6735.00,0.9034
6734.00,0.8943
6733.00,0.8854
6732.00,0.8768
6731.00,0.8684
6730.00,0.8601
6729.00,0.8520
6728.00,0.8439
6727.00,0.8360
6726.00,0.8283
6725.00,0.8210
6724.00,0.8142
6723.00,0.8078
6722.00,0.8021
6721.00,0.7971
6720.00,0.7926
6719.00,0.7883
6718.00,0.7844
6717.00,0.7809
6716.00,0.7778
6715.00,0.7752
6714.00,0.7730
6713.00,0.7713
6712.00,0.7702
6711.00,0.7695
6710.00,0.7694
6709.00,0.7698
6708.00,0.7710
6707.00,0.7728
6706.00,0.7753
6705.00,0.7782
6704.00,0.7814
6703.00,0.7851
6702.00,0.7890
6701.00,0.7932
6700.00,0.7977
6699.00,0.8027
6698.00,0.8084
6697.00,0.8146
6696.00,0.8212
6695.00,0.8277
6694.00,0.8345
6693.00,0.8416
6692.00,0.8489
6691.00,0.8564
6690.00,0.8641
6689.00,0.8723
6688.00,0.8808
6687.00,0.8896
6686.00,0.8985
6685.00,0.9074
6684.00,0.9163
6683.00,0.9250
6682.00,0.9338
6681.00,0.9426
6680.00,0.9514
6679.00,0.9602
6678.00,0.9692
6677.00,0.9783
6676.00,0.9875
6675.00,0.9966
6674.00,1.0054
6673.00,1.0140
6672.00,1.0223
6671.00,1.0307
6670.00,1.0391
6669.00,1.0476
6668.00,1.0559
6667.00,1.0642
6666.00,1.0724
6665.00,1.0803
6664.00,1.0875
6663.00,1.0938
6662.00,1.1000
6661.00,1.1065
6660.00,1.1130
6659.00,1.1193
6658.00,1.1252
6657.00,1.1309
6656.00,1.1364
6655.00,1.1416
6654.00,1.1463
6653.00,1.1504
6652.00,1.1542
6651.00,1.1580
6650.00,1.1618
6649.00,1.1653
6648.00,1.1681
6647.00,1.1704
6646.00,1.1726
6645.00,1.1749
6644.00,1.1769
6643.00,1.1784
6642.00,1.1796
6641.00,1.1803
6640.00,1.1807
6639.00,1.1805
6638.00,1.1801
6637.00,1.1796
6636.00,1.1788
6635.00,1.1772
6634.00,1.1750
6633.00,1.1726
6632.00,1.1700
6631.00,1.1672
6630.00,1.1642
6629.00,1.1612
6628.00,1.1582
6627.00,1.1550
6626.00,1.1510
6625.00,1.1463
6624.00,1.1410
6623.00,1.1351
6622.00,1.1291
6621.00,1.1229
6620.00,1.1165
6619.00,1.1098
6618.00,1.1029
6617.00,1.0959
6616.00,1.0886
6615.00,1.0808
6614.00,1.0728
6613.00,1.0647
6612.00,1.0563
6611.00,1.0476
6610.00,1.0386
6609.00,1.0294
6608.00,1.0200
6607.00,1.0106
6606.00,1.0013
6605.00,0.9920
6604.00,0.9826
6603.00,0.9731
6602.00,0.9636
6601.00,0.9542
6600.00,0.9446
6599.00,0.9349
6598.00,0.9251
6597.00,0.9156
6596.00,0.9065
6595.00,0.8974
6594.00,0.8882
6593.00,0.8790
6592.00,0.8699
6591.00,0.8612
6590.00,0.8527
6589.00,0.8445
6588.00,0.8365
6587.00,0.8289
6586.00,0.8218
6585.00,0.8150
6584.00,0.8084
6583.00,0.8018
6582.00,0.7955
6581.00,0.7895
6580.00,0.7840
6579.00,0.7787
6578.00,0.7737
6577.00,0.7692
6576.00,0.7651
6575.00,0.7616
6574.00,0.7587
6573.00,0.7562
6572.00,0.7543
6571.00,0.7528
6570.00,0.7517
6569.00,0.7513
6568.00,0.7513
6567.00,0.7518
6566.00,0.7527
6565.00,0.7544
6564.00,0.7566
6563.00,0.7594
6562.00,0.7625
6561.00,0.7660
6560.00,0.7699
6559.00,0.7742
6558.00,0.7791
6557.00,0.7845
6556.00,0.7904
6555.00,0.7966
6554.00,0.8033
6553.00,0.8103
6552.00,0.8174
6551.00,0.8247
6550.00,0.8321
6549.00,0.8398
6548.00,0.8477
6547.00,0.8558
6546.00,0.8643
6545.00,0.8732
6544.00,0.8823
6543.00,0.8916
6542.00,0.9009
6541.00,0.9104
6540.00,0.9199
6539.00,0.9294
6538.00,0.9389
6537.00,0.9484
6536.00,0.9579
6535.00,0.9674
6534.00,0.9768
6533.00,0.9861
6532.00,0.9953
6531.00,1.0043
6530.00,1.0132
6529.00,1.0221
6528.00,1.0309
6527.00,1.0397
6526.00,1.0486
6525.00,1.0576
6524.00,1.0664
6523.00,1.0750
6522.00,1.0835
6521.00,1.0917
6520.00,1.0995
6519.00,1.1067
6518.00,1.1134
6517.00,1.1202
6516.00,1.1270
6515.00,1.1338
6514.00,1.1403
6513.00,1.1463
6512.00,1.1518
6511.00,1.1571
6510.00,1.1621
6509.00,1.1668
6508.00,1.1713
6507.00,1.1756
6506.00,1.1797
6505.00,1.1836
6504.00,1.1869
6503.00,1.1896
6502.00,1.1919
6501.00,1.1941
6500.00,1.1963
6499.00,1.1981
6498.00,1.1997
6497.00,1.2009
6496.00,1.2015
6495.00,1.2016
6494.00,1.2016
6493.00,1.2014
6492.00,1.2009
6491.00,1.2000
6490.00,1.1987
6489.00,1.1973
6488.00,1.1958
6487.00,1.1937
6486.00,1.1910
6485.00,1.1877
6484.00,1.1842
6483.00,1.1804
6482.00,1.1761
6481.00,1.1713
6480.00,1.1661
6479.00,1.1608
6478.00,1.1558
6477.00,1.1506
6476.00,1.1450
6475.00,1.1386
6474.00,1.1317
6473.00,1.1244
6472.00,1.1168
6471.00,1.1089
6470.00,1.1005
6469.00,1.0919
6468.00,1.0834
6467.00,1.0750
6466.00,1.0666
6465.00,1.0578
6464.00,1.0485
6463.00,1.0388
6462.00,1.0289
6461.00,1.0190
6460.00,1.0091
6459.00,0.9991
6458.00,0.9892
6457.00,0.9792
6456.00,0.9692
6455.00,0.9589
6454.00,0.9485
6453.00,0.9380
6452.00,0.9277
6451.00,0.9174
6450.00,0.9074
6449.00,0.8975
6448.00,0.8879
6447.00,0.8783
6446.00,0.8687
6445.00,0.8593
6444.00,0.8502
6443.00,0.8416
6442.00,0.8334
6441.00,0.8256
6440.00,0.8179
6439.00,0.8105
6438.00,0.8036
6437.00,0.7971
6436.00,0.7910
6435.00,0.7853
6434.00,0.7801
6433.00,0.7756
6432.00,0.7715
6431.00,0.7678
6430.00,0.7647
6429.00,0.7622
6428.00,0.7602
6427.00,0.7589
6426.00,0.7581
6425.00,0.7580
6424.00,0.7585
6423.00,0.7593
6422.00,0.7607
6421.00,0.7627
6420.00,0.7652
6419.00,0.7682
6418.00,0.7717
6417.00,0.7758
6416.00,0.7804
6415.00,0.7855
6414.00,0.7911
6413.00,0.7971
6412.00,0.8035
6411.00,0.8102
6410.00,0.8171
6409.00,0.8243
6408.00,0.8318
6407.00,0.8397
6406.00,0.8477
6405.00,0.8561
6404.00,0.8648
6403.00,0.8737
6402.00,0.8827
6401.00,0.8919
6400.00,0.9009
6399.00,0.9100
6398.00,0.9192
6397.00,0.9286
6396.00,0.9381
6395.00,0.9476
6394.00,0.9572
6393.00,0.9668
6392.00,0.9762
6391.00,0.9855
6390.00,0.9947
6389.00,1.0038
6388.00,1.0129
6387.00,1.0219
6386.00,1.0309
6385.00,1.0397
6384.00,1.0485
6383.00,1.0573
6382.00,1.0659
6381.00,1.0743
6380.00,1.0824
6379.00,1.0902
6378.00,1.0980
6377.00,1.1054
6376.00,1.1122
6375.00,1.1184
6374.00,1.1245
6373.00,1.1309
6372.00,1.1372
6371.00,1.1431
6370.00,1.1486
6369.00,1.1538
6368.00,1.1588
6367.00,1.1633
6366.00,1.1671
6365.00,1.1705
6364.00,1.1736
6363.00,1.1765
6362.00,1.1795
6361.00,1.1825
6360.00,1.1851
6359.00,1.1870
6358.00,1.1887
6357.00,1.1903
6356.00,1.1918
6355.00,1.1926
6354.00,1.1925
6353.00,1.1919
6352.00,1.1912
6351.00,1.1904
6350.00,1.1890
6349.00,1.1871
6348.00,1.1848
6347.00,1.1824
6346.00,1.1798
6345.00,1.1770
6344.00,1.1740
6343.00,1.1707
6342.00,1.1673
6341.00,1.1636
6340.00,1.1595
6339.00,1.1550
6338.00,1.1503
6337.00,1.1454
6336.00,1.1403
6335.00,1.1351
6334.00,1.1297
6333.00,1.1243
6332.00,1.1188
6331.00,1.1130
6330.00,1.1067
6329.00,1.1001
6328.00,1.0931
6327.00,1.0854
6326.00,1.0770
6325.00,1.0677
6324.00,1.0580
6323.00,1.0480
6322.00,1.0381
6321.00,1.0279
6320.00,1.0175
6319.00,1.0068
6318.00,0.9959
6317.00,0.9848
6316.00,0.9735
6315.00,0.9622
6314.00,0.9510
6313.00,0.9401
6312.00,0.9292
6311.00,0.9184
6310.00,0.9076
6309.00,0.8968
6308.00,0.8861
6307.00,0.8754
6306.00,0.8650
6305.00,0.8549
6304.00,0.8451
6303.00,0.8356
6302.00,0.8266
6301.00,0.8180
6300.00,0.8097
6299.00,0.8018
6298.00,0.7942
6297.00,0.7870
6296.00,0.7800
6295.00,0.7733
6294.00,0.7669
6293.00,0.7612
6292.00,0.7561
6291.00,0.7515
6290.00,0.7473
6289.00,0.7437
6288.00,0.7405
6287.00,0.7378
6286.00,0.7356
6285.00,0.7339
6284.00,0.7329
6283.00,0.7325
6282.00,0.7327
6281.00,0.7336
6280.00,0.7350
6279.00,0.7369
6278.00,0.7394
6277.00,0.7424
6276.00,0.7460
6275.00,0.7500
6274.00,0.7546
6273.00,0.7598
6272.00,0.7654
6271.00,0.7712
6270.00,0.7774
6269.00,0.7840
6268.00,0.7909
6267.00,0.7982
6266.00,0.8059
6265.00,0.8140
6264.00,0.8225
6263.00,0.8313
6262.00,0.8402
6261.00,0.8492
6260.00,0.8584
6259.00,0.8677
6258.00,0.8773
6257.00,0.8871
6256.00,0.8969
6255.00,0.9069
6254.00,0.9171
6253.00,0.9274
6252.00,0.9375
6251.00,0.9473
6250.00,0.9571
6249.00,0.9670
6248.00,0.9768
6247.00,0.9864
6246.00,0.9960
6245.00,1.0056
6244.00,1.0152
6243.00,1.0246
6242.00,1.0337
6241.00,1.0429
6240.00,1.0521
6239.00,1.0612
6238.00,1.0700
6237.00,1.0787
6236.00,1.0874
6235.00,1.0957
6234.00,1.1036
6233.00,1.1112
6232.00,1.1185
6231.00,1.1255
6230.00,1.1320
6229.00,1.1382
6228.00,1.1441
6227.00,1.1499
6226.00,1.1556
6225.00,1.1611
6224.00,1.1664
6223.00,1.1714
6222.00,1.1761
6221.00,1.1805
6220.00,1.1845
6219.00,1.1881
6218.00,1.1916
6217.00,1.1948
6216.00,1.1979
6215.00,1.2004
6214.00,1.2023
6213.00,1.2038
6212.00,1.2048
6211.00,1.2052
6210.00,1.2051
6209.00,1.2045
6208.00,1.2036
6207.00,1.2024
6206.00,1.2012
6205.00,1.1998
6204.00,1.1983
6203.00,1.1963
6202.00,1.1941
6201.00,1.1915
6200.00,1.1888
6199.00,1.1857
6198.00,1.1821
6197.00,1.1781
6196.00,1.1737
6195.00,1.1691
6194.00,1.1640
6193.00,1.1585
6192.00,1.1525
6191.00,1.1463
6190.00,1.1397
6189.00,1.1325
6188.00,1.1247
6187.00,1.1166
6186.00,1.1083
6185.00,1.1002
6184.00,1.0919
6183.00,1.0835
6182.00,1.0747
6181.00,1.0656
6180.00,1.0559
6179.00,1.0458
6178.00,1.0354
6177.00,1.0247
6176.00,1.0139
6175.00,1.0031
6174.00,0.9923
6173.00,0.9815
6172.00,0.9707
6171.00,0.9597
6170.00,0.9487
6169.00,0.9376
6168.00,0.9265
6167.00,0.9153
6166.00,0.9042
6165.00,0.8934
6164.00,0.8828
6163.00,0.8723
6162.00,0.8618
6161.00,0.8513
6160.00,0.8410
6159.00,0.8310
6158.00,0.8213
6157.00,0.8121
6156.00,0.8033
6155.00,0.7949
6154.00,0.7869
6153.00,0.7793
6152.00,0.7719
6151.00,0.7650
6150.00,0.7586
6149.00,0.7528
6148.00,0.7475
6147.00,0.7426
6146.00,0.7383
6145.00,0.7345
6144.00,0.7314
6143.00,0.7290
6142.00,0.7273
6141.00,0.7263
6140.00,0.7259
6139.00,0.7261
6138.00,0.7268
6137.00,0.7282
6136.00,0.7303
6135.00,0.7330
6134.00,0.7363
6133.00,0.7400
6132.00,0.7443
6131.00,0.7490
6130.00,0.7541
6129.00,0.7598
6128.00,0.7660
6127.00,0.7727
6126.00,0.7800
6125.00,0.7877
6124.00,0.7957
6123.00,0.8038
6122.00,0.8121
6121.00,0.8207
6120.00,0.8295
6119.00,0.8385
6118.00,0.8478
6117.00,0.8573
6116.00,0.8671
6115.00,0.8769
6114.00,0.8868
6113.00,0.8968
6112.00,0.9068
6111.00,0.9168
6110.00,0.9269
6109.00,0.9373
6108.00,0.9477
6107.00,0.9579
6106.00,0.9681
6105.00,0.9781
6104.00,0.9880
6103.00,0.9977
6102.00,1.0073
6101.00,1.0169
6100.00,1.0265
6099.00,1.0359
6098.00,1.0451
6097.00,1.0542
6096.00,1.0629
6095.00,1.0711
6094.00,1.0791
6093.00,1.0868
6092.00,1.0943
6091.00,1.1015
6090.00,1.1085
6089.00,1.1155
6088.00,1.1223
6087.00,1.1289
6086.00,1.1352
6085.00,1.1412
6084.00,1.1468
6083.00,1.1519
6082.00,1.1566
6081.00,1.1611
6080.00,1.1655
6079.00,1.1695
6078.00,1.1732
6077.00,1.1766
6076.00,1.1796
6075.00,1.1820
6074.00,1.1838
6073.00,1.1853
6072.00,1.1864
6071.00,1.1873
6070.00,1.1879
6069.00,1.1882
6068.00,1.1880
6067.00,1.1876
6066.00,1.1870
6065.00,1.1864
6064.00,1.1855
6063.00,1.1843
6062.00,1.1826
6061.00,1.1806
6060.00,1.1783
6059.00,1.1754
6058.00,1.1719
6057.00,1.1680
6056.00,1.1638
6055.00,1.1594
6054.00,1.1546
6053.00,1.1497
6052.00,1.1446
6051.00,1.1394
6050.00,1.1340
6049.00,1.1283
6048.00,1.1221
6047.00,1.1152
6046.00,1.1079
6045.00,1.1004
6044.00,1.0927
6043.00,1.0847
6042.00,1.0763
6041.00,1.0678
6040.00,1.0590
6039.00,1.0500
6038.00,1.0407
6037.00,1.0310
6036.00,1.0210
6035.00,1.0108
6034.00,1.0005
6033.00,0.9903
6032.00,0.9800
6031.00,0.9695
6030.00,0.9587
6029.00,0.9478
6028.00,0.9370
6027.00,0.9261
6026.00,0.9151
6025.00,0.9041
6024.00,0.8931
6023.00,0.8821
6022.00,0.8711
6021.00,0.8602
6020.00,0.8494
6019.00,0.8388
6018.00,0.8287
6017.00,0.8188
6016.00,0.8091
6015.00,0.7995
6014.00,0.7902
6013.00,0.7814
6012.00,0.7730
6011.00,0.7650
6010.00,0.7576
6009.00,0.7506
6008.00,0.7441
6007.00,0.7380
6006.00,0.7324
6005.00,0.7273
6004.00,0.7228
6003.00,0.7189
6002.00,0.7158
6001.00,0.7135
6000.00,0.7117
5999.00,0.7104
5998.00,0.7097
5997.00,0.7096
5996.00,0.7102
5995.00,0.7113
5994.00,0.7130
5993.00,0.7154
5992.00,0.7185
5991.00,0.7221
5990.00,0.7263
5989.00,0.7312
5988.00,0.7366
5987.00,0.7426
5986.00,0.7490
5985.00,0.7558
5984.00,0.7631
5983.00,0.7707
5982.00,0.7787
5981.00,0.7871
5980.00,0.7957
5979.00,0.8046
5978.00,0.8138
5977.00,0.8233
5976.00,0.8331
5975.00,0.8431
5974.00,0.8534
5973.00,0.8638
5972.00,0.8743
5971.00,0.8849
5970.00,0.8956
5969.00,0.9064
5968.00,0.9173
5967.00,0.9283
5966.00,0.9394
5965.00,0.9506
5964.00,0.9618
5963.00,0.9729
5962.00,0.9840
5961.00,0.9949
5960.00,1.0057
5959.00,1.0162
5958.00,1.0266
5957.00,1.0369
5956.00,1.0470
5955.00,1.0565
5954.00,1.0656
5953.00,1.0744
5952.00,1.0830
5951.00,1.0913
5950.00,1.0994
5949.00,1.1072
5948.00,1.1146
5947.00,1.1217
5946.00,1.1284
5945.00,1.1348
5944.00,1.1409
5943.00,1.1467
5942.00,1.1524
5941.00,1.1582
5940.00,1.1639
5939.00,1.1694
5938.00,1.1744
5937.00,1.1789
5936.00,1.1828
5935.00,1.1862
5934.00,1.1893
5933.00,1.1922
5932.00,1.1949
5931.00,1.1974
5930.00,1.1997
5929.00,1.2019
5928.00,1.2037
5927.00,1.2052
5926.00,1.2064
5925.00,1.2074
5924.00,1.2078
5923.00,1.2076
5922.00,1.2069
5921.00,1.2058
5920.00,1.2045
5919.00,1.2031
5918.00,1.2014
5917.00,1.1994
5916.00,1.1968
5915.00,1.1935
5914.00,1.1898
5913.00,1.1859
5912.00,1.1817
5911.00,1.1770
5910.00,1.1721
5909.00,1.1669
5908.00,1.1613
5907.00,1.1551
5906.00,1.1486
5905.00,1.1418
5904.00,1.1348
5903.00,1.1273
5902.00,1.1193
5901.00,1.1109
5900.00,1.1023
5899.00,1.0934
5898.00,1.0841
5897.00,1.0746
5896.00,1.0648
5895.00,1.0549
5894.00,1.0447
5893.00,1.0343
5892.00,1.0236
5891.00,1.0127
5890.00,1.0017
5889.00,0.9905
5888.00,0.9790
5887.00,0.9673
5886.00,0.9555
5885.00,0.9435
5884.00,0.9314
5883.00,0.9194
5882.00,0.9075
5881.00,0.8959
5880.00,0.8844
5879.00,0.8729
5878.00,0.8614
5877.00,0.8499
5876.00,0.8387
5875.00,0.8276
5874.00,0.8169
5873.00,0.8065
5872.00,0.7966
5871.00,0.7871
5870.00,0.7779
5869.00,0.7691
5868.00,0.7608
5867.00,0.7529
5866.00,0.7455
5865.00,0.7387
5864.00,0.7324
5863.00,0.7266
5862.00,0.7214
5861.00,0.7170
5860.00,0.7132
5859.00,0.7101
5858.00,0.7077
5857.00,0.7060
5856.00,0.7050
5855.00,0.7048
5854.00,0.7053
5853.00,0.7065
5852.00,0.7083
5851.00,0.7108
5850.00,0.7140
5849.00,0.7179
5848.00,0.7225
5847.00,0.7276
5846.00,0.7333
5845.00,0.7396
5844.00,0.7462
5843.00,0.7532
5842.00,0.7607
5841.00,0.7685
5840.00,0.7768
5839.00,0.7853
5838.00,0.7941
5837.00,0.8033
5836.00,0.8128
5835.00,0.8225
5834.00,0.8324
5833.00,0.8425
5832.00,0.8527
5831.00,0.8630
5830.00,0.8733
5829.00,0.8835
5828.00,0.8938
5827.00,0.9040
5826.00,0.9143
5825.00,0.9247
5824.00,0.9352
5823.00,0.9460
5822.00,0.9569
5821.00,0.9678
5820.00,0.9785
5819.00,0.9888
5818.00,0.9989
5817.00,1.0089
5816.00,1.0189
5815.00,1.0288
5814.00,1.0387
5813.00,1.0485
5812.00,1.0581
5811.00,1.0674
5810.00,1.0764
5809.00,1.0852
5808.00,1.0939
5807.00,1.1024
5806.00,1.1108
5805.00,1.1191
5804.00,1.1269
5803.00,1.1342
5802.00,1.1409
5801.00,1.1473
5800.00,1.1533
5799.00,1.1590
5798.00,1.1645
5797.00,1.1700
5796.00,1.1754
5795.00,1.1805
5794.00,1.1852
5793.00,1.1897
5792.00,1.1938
5791.00,1.1975
5790.00,1.2008
5789.00,1.2038
5788.00,1.2066
5787.00,1.2090
5786.00,1.2111
5785.00,1.2128
5784.00,1.2141
5783.00,1.2148
5782.00,1.2149
5781.00,1.2145
5780.00,1.2137
5779.00,1.2125
5778.00,1.2110
5777.00,1.2094
5776.00,1.2076
5775.00,1.2057
5774.00,1.2034
5773.00,1.2008
5772.00,1.1976
5771.00,1.1940
5770.00,1.1900
5769.00,1.1855
5768.00,1.1806
5767.00,1.1753
5766.00,1.1697
5765.00,1.1638
5764.00,1.1575
5763.00,1.1508
5762.00,1.1440
5761.00,1.1370
5760.00,1.1297
5759.00,1.1218
5758.00,1.1135
5757.00,1.1048
5756.00,1.0959
5755.00,1.0866
5754.00,1.0771
5753.00,1.0675
5752.00,1.0576
5751.00,1.0473
5750.00,1.0367
5749.00,1.0259
5748.00,1.0149
5747.00,1.0037
5746.00,0.9924
5745.00,0.9807
5744.00,0.9687
5743.00,0.9563
5742.00,0.9438
5741.00,0.9313
5740.00,0.9189
5739.00,0.9066
5738.00,0.8945
5737.00,0.8824
5736.00,0.8704
5735.00,0.8584
5734.00,0.8466
5733.00,0.8349
5732.00,0.8233
5731.00,0.8120
5730.00,0.8009
5729.00,0.7901
5728.00,0.7798
5727.00,0.7699
5726.00,0.7605
5725.00,0.7516
5724.00,0.7431
5723.00,0.7350
5722.00,0.7274
5721.00,0.7205
5720.00,0.7143
5719.00,0.7087
5718.00,0.7038
5717.00,0.6996
5716.00,0.6959
5715.00,0.6928
5714.00,0.6904
5713.00,0.6888
5712.00,0.6879
5711.00,0.6878
5710.00,0.6884
5709.00,0.6897
5708.00,0.6917
5707.00,0.6943
5706.00,0.6977
5705.00,0.7017
5704.00,0.7062
5703.00,0.7112
5702.00,0.7167
5701.00,0.7227
5700.00,0.7294
5699.00,0.7367
5698.00,0.7446
5697.00,0.7530
5696.00,0.7617
5695.00,0.7707
5694.00,0.7801
5693.00,0.7897
5692.00,0.7996
5691.00,0.8098
5690.00,0.8204
5689.00,0.8313
5688.00,0.8423
5687.00,0.8535
5686.00,0.8646
5685.00,0.8760
5684.00,0.8874
5683.00,0.8989
5682.00,0.9105
5681.00,0.9223
5680.00,0.9340
5679.00,0.9455
5678.00,0.9568
5677.00,0.9680
5676.00,0.9792
5675.00,0.9903
5674.00,1.0013
5673.00,1.0124
5672.00,1.0234
5671.00,1.0342
5670.00,1.0449
5669.00,1.0555
5668.00,1.0658
5667.00,1.0757
5666.00,1.0851
5665.00,1.0940
5664.00,1.1025
5663.00,1.1108
5662.00,1.1189
5661.00,1.1270
5660.00,1.1351
5659.00,1.1430
5658.00,1.1506
5657.00,1.1580
5656.00,1.1650
5655.00,1.1716
5654.00,1.1777
5653.00,1.1834
5652.00,1.1890
5651.00,1.1942
5650.00,1.1990
5649.00,1.2036
5648.00,1.2076
5647.00,1.2111
5646.00,1.2139
5645.00,1.2164
5644.00,1.2187
5643.00,1.2208
5642.00,1.2229
5641.00,1.2248
5640.00,1.2263
5639.00,1.2273
5638.00,1.2276
5637.00,1.2275
5636.00,1.2271
5635.00,1.2263
5634.00,1.2250
5633.00,1.2233
5632.00,1.2209
5631.00,1.2181
5630.00,1.2150
5629.00,1.2118
5628.00,1.2086
5627.00,1.2051
5626.00,1.2012
5625.00,1.1967
5624.00,1.1915
5623.00,1.1857
5622.00,1.1794
5621.00,1.1728
5620.00,1.1660
5619.00,1.1590
5618.00,1.1517
5617.00,1.1442
5616.00,1.1364
5615.00,1.1281
5614.00,1.1194
5613.00,1.1103
5612.00,1.1008
5611.00,1.0908
5610.00,1.0805
5609.00,1.0700
5608.00,1.0592
5607.00,1.0480
5606.00,1.0365
5605.00,1.0246
5604.00,1.0126
5603.00,1.0004
5602.00,0.9882
5601.00,0.9759
5600.00,0.9636
5599.00,0.9510
5598.00,0.9383
5597.00,0.9255
5596.00,0.9125
5595.00,0.8995
5594.00,0.8864
5593.00,0.8735
5592.00,0.8607
5591.00,0.8480
5590.00,0.8355
5589.00,0.8233
5588.00,0.8116
5587.00,0.8002
5586.00,0.7891
5585.00,0.7784
5584.00,0.7680
5583.00,0.7582
5582.00,0.7490
5581.00,0.7403
5580.00,0.7322
5579.00,0.7246
5578.00,0.7176
5577.00,0.7112
5576.00,0.7054
5575.00,0.7003
5574.00,0.6959
5573.00,0.6923
5572.00,0.6895
5571.00,0.6874
5570.00,0.6861
5569.00,0.6857
5568.00,0.6861
5567.00,0.6873
5566.00,0.6893
5565.00,0.6920
5564.00,0.6954
5563.00,0.6995
5562.00,0.7043
5561.00,0.7098
5560.00,0.7159
5559.00,0.7226
5558.00,0.7298
5557.00,0.7376
5556.00,0.7461
5555.00,0.7550
5554.00,0.7645
5553.00,0.7744
5552.00,0.7846
5551.00,0.7951
5550.00,0.8057
5549.00,0.8166
5548.00,0.8277
5547.00,0.8390
5546.00,0.8505
5545.00,0.8624
5544.00,0.8744
5543.00,0.8866
5542.00,0.8989
5541.00,0.9113
5540.00,0.9237
5539.00,0.9360
5538.00,0.9481
5537.00,0.9602
5536.00,0.9722
5535.00,0.9842
5534.00,0.9961
5533.00,1.0080
5532.00,1.0197
5531.00,1.0312
5530.00,1.0426
5529.00,1.0538
5528.00,1.0648
5527.00,1.0756
5526.00,1.0863
5525.00,1.0968
5524.00,1.1069
5523.00,1.1167
5522.00,1.1262
5521.00,1.1356
5520.00,1.1446
5519.00,1.1532
5518.00,1.1613
5517.00,1.1689
5516.00,1.1761
5515.00,1.1832
5514.00,1.1900
5513.00,1.1967
5512.00,1.2031
5511.00,1.2092
5510.00,1.2147
5509.00,1.2197
5508.00,1.2242
5507.00,1.2284
5506.00,1.2324
5505.00,1.2360
5504.00,1.2392
5503.00,1.2419
5502.00,1.2443
5501.00,1.2465
5500.00,1.2483
5499.00,1.2498
5498.00,1.2509
5497.00,1.2517
5496.00,1.2519
5495.00,1.2515
5494.00,1.2505
5493.00,1.2493
5492.00,1.2477
5491.00,1.2457
5490.00,1.2435
5489.00,1.2411
5488.00,1.2385
5487.00,1.2354
5486.00,1.2319
5485.00,1.2279
5484.00,1.2236
5483.00,1.2189
5482.00,1.2137
5481.00,1.2081
5480.00,1.2021
5479.00,1.1955
5478.00,1.1886
5477.00,1.1811
5476.00,1.1732
5475.00,1.1650
5474.00,1.1566
5473.00,1.1481
5472.00,1.1395
5471.00,1.1305
5470.00,1.1210
5469.00,1.1108
5468.00,1.1001
5467.00,1.0889
5466.00,1.0774
5465.00,1.0657
5464.00,1.0537
5463.00,1.0414
5462.00,1.0289
5461.00,1.0161
5460.00,1.0032
5459.00,0.9901
5458.00,0.9770
5457.00,0.9636
5456.00,0.9501
5455.00,0.9365
5454.00,0.9227
5453.00,0.9089
5452.00,0.8952
5451.00,0.8815
5450.00,0.8679
5449.00,0.8543
5448.00,0.8409
5447.00,0.8277
5446.00,0.8148
5445.00,0.8022
5444.00,0.7900
5443.00,0.7783
5442.00,0.7670
5441.00,0.7562
5440.00,0.7459
5439.00,0.7363
5438.00,0.7274
5437.00,0.7192
5436.00,0.7116
5435.00,0.7046
5434.00,0.6983
5433.00,0.6928
5432.00,0.6881
5431.00,0.6843
5430.00,0.6812
5429.00,0.6789
5428.00,0.6773
5427.00,0.6765
5426.00,0.6766
5425.00,0.6776
5424.00,0.6794
5423.00,0.6820
5422.00,0.6855
5421.00,0.6898
5420.00,0.6950
5419.00,0.7010
5418.00,0.7078
5417.00,0.7151
5416.00,0.7229
5415.00,0.7312
5414.00,0.7399
5413.00,0.7491
5412.00,0.7585
5411.00,0.7683
5410.00,0.7786
5409.00,0.7892
5408.00,0.8003
5407.00,0.8117
5406.00,0.8235
5405.00,0.8356
5404.00,0.8480
5403.00,0.8605
5402.00,0.8733
5401.00,0.8861
5400.00,0.8990
5399.00,0.9120
5398.00,0.9250
5397.00,0.9381
5396.00,0.9510
5395.00,0.9638
5394.00,0.9767
5393.00,0.9896
5392.00,1.0023
5391.00,1.0147
5390.00,1.0271
5389.00,1.0393
5388.00,1.0513
5387.00,1.0632
5386.00,1.0751
5385.00,1.0869
5384.00,1.0984
5383.00,1.1095
5382.00,1.1203
5381.00,1.1308
5380.00,1.1408
5379.00,1.1505
5378.00,1.1599
5377.00,1.1690
5376.00,1.1779
5375.00,1.1864
5374.00,1.1945
5373.00,1.2023
5372.00,1.2099
5371.00,1.2172
5370.00,1.2242
5369.00,1.2308
5368.00,1.2369
5367.00,1.2426
5366.00,1.2479
5365.00,1.2527
5364.00,1.2572
5363.00,1.2613
5362.00,1.2652
5361.00,1.2687
5360.00,1.2716
5359.00,1.2741
5358.00,1.2762
5357.00,1.2779
5356.00,1.2792
5355.00,1.2801
5354.00,1.2806
5353.00,1.2808
5352.00,1.2806
5351.00,1.2802
5350.00,1.2794
5349.00,1.2783
5348.00,1.2767
5347.00,1.2746
5346.00,1.2721
5345.00,1.2692
5344.00,1.2660
5343.00,1.2625
5342.00,1.2588
5341.00,1.2549
5340.00,1.2507
5339.00,1.2457
5338.00,1.2398
5337.00,1.2332
5336.00,1.2261
5335.00,1.2188
5334.00,1.2113
5333.00,1.2037
5332.00,1.1958
5331.00,1.1877
5330.00,1.1792
5329.00,1.1702
5328.00,1.1605
5327.00,1.1503
5326.00,1.1395
5325.00,1.1285
5324.00,1.1172
5323.00,1.1059
5322.00,1.0943
5321.00,1.0825
5320.00,1.0704
5319.00,1.0578
5318.00,1.0449
5317.00,1.0316
5316.00,1.0180
5315.00,1.0041
5314.00,0.9900
5313.00,0.9758
5312.00,0.9617
5311.00,0.9476
5310.00,0.9337
5309.00,0.9197
5308.00,0.9057
5307.00,0.8916
5306.00,0.8776
5305.00,0.8639
5304.00,0.8504
5303.00,0.8374
5302.00,0.8248
5301.00,0.8125
5300.00,0.8006
5299.00,0.7892
5298.00,0.7782
5297.00,0.7678
5296.00,0.7579
5295.00,0.7486
5294.00,0.7401
5293.00,0.7324
5292.00,0.7254
5291.00,0.7192
5290.00,0.7137
5289.00,0.7089
5288.00,0.7050
5287.00,0.7019
5286.00,0.6998
5285.00,0.6986
5284.00,0.6983
5283.00,0.6989
5282.00,0.7004
5281.00,0.7027
5280.00,0.7058
5279.00,0.7097
5278.00,0.7143
5277.00,0.7197
5276.00,0.7260
5275.00,0.7329
5274.00,0.7407
5273.00,0.7491
5272.00,0.7582
5271.00,0.7677
5270.00,0.7778
5269.00,0.7882
5268.00,0.7991
5267.00,0.8103
5266.00,0.8217
5265.00,0.8335
5264.00,0.8456
5263.00,0.8580
5262.00,0.8707
5261.00,0.8836
5260.00,0.8966
5259.00,0.9098
5258.00,0.9229
5257.00,0.9361
5256.00,0.9494
5255.00,0.9627
5254.00,0.9761
5253.00,0.9895
5252.00,1.0027
5251.00,1.0158
5250.00,1.0287
5249.00,1.0415
5248.00,1.0542
5247.00,1.0666
5246.00,1.0788
5245.00,1.0907
5244.00,1.1024
5243.00,1.1139
5242.00,1.1251
5241.00,1.1361
5240.00,1.1469
5239.00,1.1576
5238.00,1.1681
5237.00,1.1782
5236.00,1.1880
5235.00,1.1974
5234.00,1.2065
5233.00,1.2152
5232.00,1.2235
5231.00,1.2314
5230.00,1.2390
5229.00,1.2462
5228.00,1.2529
5227.00,1.2592
5226.00,1.2652
5225.00,1.2709
5224.00,1.2765
5223.00,1.2818
5222.00,1.2869
5221.00,1.2915
5220.00,1.2957
5219.00,1.2994
5218.00,1.3028
5217.00,1.3056
5216.00,1.3081
5215.00,1.3101
5214.00,1.3116
5213.00,1.3125
5212.00,1.3129
5211.00,1.3129
5210.00,1.3128
5209.00,1.3125
5208.00,1.3116
5207.00,1.3101
5206.00,1.3081
5205.00,1.3058
5204.00,1.3032
5203.00,1.3004
5202.00,1.2972
5201.00,1.2938
5200.00,1.2901
5199.00,1.2861
5198.00,1.2818
5197.00,1.2773
5196.00,1.2723
5195.00,1.2669
5194.00,1.2609
5193.00,1.2544
5192.00,1.2472
5191.00,1.2393
5190.00,1.2309
5189.00,1.2221
5188.00,1.2130
5187.00,1.2035
5186.00,1.1936
5185.00,1.1832
5184.00,1.1724
5183.00,1.1610
5182.00,1.1493
5181.00,1.1373
5180.00,1.1250
5179.00,1.1124
5178.00,1.0995
5177.00,1.0864
5176.00,1.0729
5175.00,1.0589
5174.00,1.0447
5173.00,1.0301
5172.00,1.0152
5171.00,1.0001
5170.00,0.9848
5169.00,0.9694
5168.00,0.9540
5167.00,0.9386
5166.00,0.9234
5165.00,0.9084
5164.00,0.8935
5163.00,0.8788
5162.00,0.8642
5161.00,0.8498
5160.00,0.8357
5159.00,0.8220
5158.00,0.8088
5157.00,0.7961
5156.00,0.7840
5155.00,0.7723
5154.00,0.7613
5153.00,0.7510
5152.00,0.7413
5151.00,0.7325
5150.00,0.7245
5149.00,0.7172
5148.00,0.7108
5147.00,0.7051
5146.00,0.7002
5145.00,0.6963
5144.00,0.6932
5143.00,0.6911
5142.00,0.6900
5141.00,0.6898
5140.00,0.6906
5139.00,0.6923
5138.00,0.6949
5137.00,0.6984
5136.00,0.7029
5135.00,0.7082
5134.00,0.7143
5133.00,0.7212
5132.00,0.7289
5131.00,0.7371
5130.00,0.7460
5129.00,0.7556
5128.00,0.7658
5127.00,0.7767
5126.00,0.7881
5125.00,0.7999
5124.00,0.8120
5123.00,0.8244
5122.00,0.8370
5121.00,0.8500
5120.00,0.8633
5119.00,0.8769
5118.00,0.8908
5117.00,0.9049
5116.00,0.9190
5115.00,0.9333
5114.00,0.9475
5113.00,0.9616
5112.00,0.9758
5111.00,0.9900
5110.00,1.0042
5109.00,1.0185
5108.00,1.0326
5107.00,1.0465
5106.00,1.0601
5105.00,1.0734
5104.00,1.0866
5103.00,1.0997
5102.00,1.1128
5101.00,1.1256
5100.00,1.1382
5099.00,1.1504
5098.00,1.1623
5097.00,1.1739
5096.00,1.1853
5095.00,1.1963
5094.00,1.2070
5093.00,1.2173
5092.00,1.2270
5091.00,1.2363
5090.00,1.2453
5089.00,1.2542
5088.00,1.2629
5087.00,1.2712
5086.00,1.2791
5085.00,1.2864
5084.00,1.2931
5083.00,1.2994
5082.00,1.3052
5081.00,1.3107
5080.00,1.3159
5079.00,1.3206
5078.00,1.3248
5077.00,1.3288
5076.00,1.3323
5075.00,1.3355
5074.00,1.3384
5073.00,1.3408
5072.00,1.3428
5071.00,1.3444
5070.00,1.3455
5069.00,1.3462
5068.00,1.3466
5067.00,1.3466
5066.00,1.3464
5065.00,1.3458
5064.00,1.3448
5063.00,1.3433
5062.00,1.3413
5061.00,1.3388
5060.00,1.3358
5059.00,1.3324
5058.00,1.3286
5057.00,1.3246
5056.00,1.3202
5055.00,1.3154
5054.00,1.3103
5053.00,1.3049
5052.00,1.2991
5051.00,1.2928
5050.00,1.2860
5049.00,1.2786
5048.00,1.2707
5047.00,1.2621
5046.00,1.2531
5045.00,1.2437
5044.00,1.2338
5043.00,1.2236
5042.00,1.2130
5041.00,1.2022
5040.00,1.1912
5039.00,1.1798
5038.00,1.1678
5037.00,1.1552
5036.00,1.1419
5035.00,1.1282
5034.00,1.1142
5033.00,1.1001
5032.00,1.0859
5031.00,1.0715
5030.00,1.0568
5029.00,1.0416
5028.00,1.0262
5027.00,1.0106
5026.00,0.9949
5025.00,0.9792
5024.00,0.9633
5023.00,0.9475
5022.00,0.9318
5021.00,0.9162
5020.00,0.9008
5019.00,0.8857
5018.00,0.8708
5017.00,0.8562
5016.00,0.8420
5015.00,0.8281
5014.00,0.8147
5013.00,0.8018
5012.00,0.7895
5011.00,0.7778
5010.00,0.7669
5009.00,0.7568
5008.00,0.7475
5007.00,0.7390
5006.00,0.7314
5005.00,0.7247
5004.00,0.7190
5003.00,0.7142
5002.00,0.7105
5001.00,0.7077
5000.00,0.7060
4999.00,0.7053
4998.00,0.7056
4997.00,0.7069
4996.00,0.7091
4995.00,0.7123
4994.00,0.7163
4993.00,0.7211
4992.00,0.7269
4991.00,0.7334
4990.00,0.7409
4989.00,0.7491
4988.00,0.7581
4987.00,0.7678
4986.00,0.7782
4985.00,0.7892
4984.00,0.8005
4983.00,0.8123
4982.00,0.8245
4981.00,0.8373
4980.00,0.8507
4979.00,0.8645
4978.00,0.8788
4977.00,0.8932
4976.00,0.9077
4975.00,0.9223
4974.00,0.9370
4973.00,0.9516
4972.00,0.9663
4971.00,0.9810
4970.00,0.9958
4969.00,1.0107
4968.00,1.0258
4967.00,1.0408
4966.00,1.0557
4965.00,1.0704
4964.00,1.0850
4963.00,1.0992
4962.00,1.1131
4961.00,1.1267
4960.00,1.1401
4959.00,1.1532
4958.00,1.1661
4957.00,1.1786
4956.00,1.1907
4955.00,1.2025
4954.00,1.2139
4953.00,1.2251
4952.00,1.2359
4951.00,1.2464
4950.00,1.2566
4949.00,1.2664
4948.00,1.2760
4947.00,1.2853
4946.00,1.2943
4945.00,1.3028
4944.00,1.3106
4943.00,1.3179
4942.00,1.3245
4941.00,1.3308
4940.00,1.3368
4939.00,1.3425
4938.00,1.3480
4937.00,1.3532
4936.00,1.3581
4935.00,1.3626
4934.00,1.3666
4933.00,1.3697
4932.00,1.3723
4931.00,1.3744
4930.00,1.3761
4929.00,1.3777
4928.00,1.3790
4927.00,1.3801
4926.00,1.3808
4925.00,1.3810
4924.00,1.3806
4923.00,1.3798
4922.00,1.3784
4921.00,1.3767
4920.00,1.3744
4919.00,1.3717
4918.00,1.3686
4917.00,1.3652
4916.00,1.3615
4915.00,1.3575
4914.00,1.3531
4913.00,1.3483
4912.00,1.3428
4911.00,1.3368
4910.00,1.3303
4909.00,1.3235
4908.00,1.3162
4907.00,1.3085
4906.00,1.3003
4905.00,1.2917
4904.00,1.2826
4903.00,1.2731
4902.00,1.2633
4901.00,1.2532
4900.00,1.2427
4899.00,1.2317
4898.00,1.2201
4897.00,1.2081
4896.00,1.1956
4895.00,1.1825
4894.00,1.1691
4893.00,1.1552
4892.00,1.1410
4891.00,1.1263
4890.00,1.1112
4889.00,1.0958
4888.00,1.0801
4887.00,1.0642
4886.00,1.0482
4885.00,1.0320
4884.00,1.0157
4883.00,0.9992
4882.00,0.9826
4881.00,0.9658
4880.00,0.9491
4879.00,0.9325
4878.00,0.9161
4877.00,0.9000
4876.00,0.8841
4875.00,0.8686
4874.00,0.8535
4873.00,0.8388
4872.00,0.8246
4871.00,0.8109
4870.00,0.7977
4869.00,0.7851
4868.00,0.7732
4867.00,0.7621
4866.00,0.7517
4865.00,0.7423
4864.00,0.7337
4863.00,0.7260
4862.00,0.7192
4861.00,0.7134
4860.00,0.7087
4859.00,0.7051
4858.00,0.7026
4857.00,0.7014
4856.00,0.7013
4855.00,0.7023
4854.00,0.7045
4853.00,0.7077
4852.00,0.7120
4851.00,0.7172
4850.00,0.7234
4849.00,0.7305
4848.00,0.7385
4847.00,0.7474
4846.00,0.7571
4845.00,0.7676
4844.00,0.7789
4843.00,0.7907
4842.00,0.8031
4841.00,0.8161
4840.00,0.8295
4839.00,0.8433
4838.00,0.8576
4837.00,0.8721
4836.00,0.8870
4835.00,0.9021
4834.00,0.9174
4833.00,0.9329
4832.00,0.9487
4831.00,0.9645
4830.00,0.9804
4829.00,0.9962
4828.00,1.0120
4827.00,1.0277
4826.00,1.0434
4825.00,1.0589
4824.00,1.0742
4823.00,1.0892
4822.00,1.1041
4821.00,1.1188
4820.00,1.1334
4819.00,1.1478
4818.00,1.1621
4817.00,1.1762
4816.00,1.1899
4815.00,1.2034
4814.00,1.2166
4813.00,1.2295
4812.00,1.2420
4811.00,1.2541
4810.00,1.2657
4809.00,1.2770
4808.00,1.2878
4807.00,1.2981
4806.00,1.3080
4805.00,1.3176
4804.00,1.3269
4803.00,1.3359
4802.00,1.3444
4801.00,1.3526
4800.00,1.3603
4799.00,1.3675
4798.00,1.3743
4797.00,1.3805
4796.00,1.3863
4795.00,1.3913
4794.00,1.3957
4793.00,1.3997
4792.00,1.4034
4791.00,1.4069
4790.00,1.4103
4789.00,1.4135
4788.00,1.4162
4787.00,1.4184
4786.00,1.4200
4785.00,1.4211
4784.00,1.4218
4783.00,1.4221
4782.00,1.4219
4781.00,1.4214
4780.00,1.4206
4779.00,1.4194
4778.00,1.4178
4777.00,1.4157
4776.00,1.4130
4775.00,1.4098
4774.00,1.4061
4773.00,1.4022
4772.00,1.3980
4771.00,1.3934
4770.00,1.3883
4769.00,1.3829
4768.00,1.3770
4767.00,1.3706
4766.00,1.3638
4765.00,1.3566
4764.00,1.3489
4763.00,1.3407
4762.00,1.3320
4761.00,1.3229
4760.00,1.3133
4759.00,1.3032
4758.00,1.2926
4757.00,1.2813
4756.00,1.2696
4755.00,1.2574
4754.00,1.2449
4753.00,1.2321
4752.00,1.2188
4751.00,1.2050
4750.00,1.1905
4749.00,1.1755
4748.00,1.1600
4747.00,1.1441
4746.00,1.1280
4745.00,1.1116
4744.00,1.0950
4743.00,1.0781
4742.00,1.0611
4741.00,1.0438
4740.00,1.0264
4739.00,1.0088
4738.00,0.9911
4737.00,0.9733
4736.00,0.9556
4735.00,0.9379
4734.00,0.9205
4733.00,0.9034
4732.00,0.8867
4731.00,0.8704
4730.00,0.8547
4729.00,0.8394
4728.00,0.8248
4727.00,0.8107
4726.00,0.7973
4725.00,0.7846
4724.00,0.7727
4723.00,0.7617
4722.00,0.7516
4721.00,0.7427
4720.00,0.7349
4719.00,0.7283
4718.00,0.7228
4717.00,0.7185
4716.00,0.7154
4715.00,0.7133
4714.00,0.7126
4713.00,0.7130
4712.00,0.7147
4711.00,0.7176
4710.00,0.7217
4709.00,0.7270
4708.00,0.7333
4707.00,0.7408
4706.00,0.7492
4705.00,0.7588
4704.00,0.7692
4703.00,0.7804
4702.00,0.7923
4701.00,0.8049
4700.00,0.8180
4699.00,0.8316
4698.00,0.8457
4697.00,0.8603
4696.00,0.8753
4695.00,0.8907
4694.00,0.9065
4693.00,0.9226
4692.00,0.9388
4691.00,0.9551
4690.00,0.9716
4689.00,0.9881
4688.00,1.0047
4687.00,1.0213
4686.00,1.0379
4685.00,1.0546
4684.00,1.0712
4683.00,1.0877
4682.00,1.1040
4681.00,1.1200
4680.00,1.1357
4679.00,1.1513
4678.00,1.1666
4677.00,1.1817
4676.00,1.1964
4675.00,1.2108
4674.00,1.2250
4673.00,1.2389
4672.00,1.2525
4671.00,1.2658
4670.00,1.2787
4669.00,1.2912
4668.00,1.3032
4667.00,1.3147
4666.00,1.3259
4665.00,1.3368
4664.00,1.3473
4663.00,1.3574
4662.00,1.3668
4661.00,1.3756
4660.00,1.3839
4659.00,1.3918
4658.00,1.3994
4657.00,1.4066
4656.00,1.4133
4655.00,1.4194
4654.00,1.4250
4653.00,1.4304
4652.00,1.4355
4651.00,1.4404
4650.00,1.4448
4649.00,1.4486
4648.00,1.4518
4647.00,1.4543
4646.00,1.4564
4645.00,1.4580
4644.00,1.4594
4643.00,1.4605
4642.00,1.4614
4641.00,1.4617
4640.00,1.4615
4639.00,1.4606
4638.00,1.4592
4637.00,1.4574
4636.00,1.4554
4635.00,1.4531
4634.00,1.4505
4633.00,1.4477
4632.00,1.4444
4631.00,1.4406
4630.00,1.4362
4629.00,1.4310
4628.00,1.4252
4627.00,1.4189
4626.00,1.4123
4625.00,1.4053
4624.00,1.3980
4623.00,1.3903
4622.00,1.3821
4621.00,1.3734
4620.00,1.3642
4619.00,1.3545
4618.00,1.3443
4617.00,1.3336
4616.00,1.3227
4615.00,1.3115
4614.00,1.3001
4613.00,1.2884
4612.00,1.2762
4611.00,1.2635
4610.00,1.2503
4609.00,1.2365
4608.00,1.2222
4607.00,1.2075
4606.00,1.1925
4605.00,1.1772
4604.00,1.1615
4603.00,1.1455
4602.00,1.1290
4601.00,1.1119
4600.00,1.0945
4599.00,1.0766
4598.00,1.0586
4597.00,1.0405
4596.00,1.0223
4595.00,1.0039
4594.00,0.9855
4593.00,0.9671
4592.00,0.9487
4591.00,0.9305
4590.00,0.9127
4589.00,0.8952
4588.00,0.8782
4587.00,0.8617
4586.00,0.8458
4585.00,0.8305
4584.00,0.8160
4583.00,0.8023
4582.00,0.7894
4581.00,0.7775
4580.00,0.7666
4579.00,0.7568
4578.00,0.7481
4577.00,0.7406
4576.00,0.7343
4575.00,0.7294
4574.00,0.7257
4573.00,0.7234
4572.00,0.7225
4571.00,0.7229
4570.00,0.7247
4569.00,0.7279
4568.00,0.7323
4567.00,0.7379
4566.00,0.7448
4565.00,0.7528
4564.00,0.7619
4563.00,0.7720
4562.00,0.7830
4561.00,0.7949
4560.00,0.8076
4559.00,0.8211
4558.00,0.8353
4557.00,0.8500
4556.00,0.8653
4555.00,0.8809
4554.00,0.8971
4553.00,0.9136
4552.00,0.9305
4551.00,0.9476
4550.00,0.9650
4549.00,0.9826
4548.00,1.0002
4547.00,1.0179
4546.00,1.0355
4545.00,1.0531
4544.00,1.0707
4543.00,1.0881
4542.00,1.1054
4541.00,1.1225
4540.00,1.1395
4539.00,1.1562
4538.00,1.1729
4537.00,1.1895
4536.00,1.2060
4535.00,1.2222
4534.00,1.2380
4533.00,1.2533
4532.00,1.2681
4531.00,1.2825
4530.00,1.2967
4529.00,1.3106
4528.00,1.3240
4527.00,1.3368
4526.00,1.3491
4525.00,1.3611
4524.00,1.3725
4523.00,1.3835
4522.00,1.3939
4521.00,1.4038
4520.00,1.4134
4519.00,1.4227
4518.00,1.4317
4517.00,1.4405
4516.00,1.4488
4515.00,1.4565
4514.00,1.4635
4513.00,1.4698
4512.00,1.4756
4511.00,1.4810
4510.00,1.4863
4509.00,1.4912
4508.00,1.4958
4507.00,1.4998
4506.00,1.5031
4505.00,1.5057
4504.00,1.5078
4503.00,1.5096
4502.00,1.5110
4501.00,1.5123
4500.00,1.5132
4499.00,1.5136
4498.00,1.5134
4497.00,1.5127
4496.00,1.5116
4495.00,1.5101
4494.00,1.5081
4493.00,1.5057
4492.00,1.5028
4491.00,1.4994
4490.00,1.4957
4489.00,1.4915
4488.00,1.4868
4487.00,1.4816
4486.00,1.4760
4485.00,1.4700
4484.00,1.4638
4483.00,1.4572
4482.00,1.4502
4481.00,1.4428
4480.00,1.4348
4479.00,1.4264
4478.00,1.4175
4477.00,1.4082
4476.00,1.3984
4475.00,1.3882
4474.00,1.3776
4473.00,1.3665
4472.00,1.3548
4471.00,1.3425
4470.00,1.3293
4469.00,1.3156
4468.00,1.3013
4467.00,1.2868
4466.00,1.2721
4465.00,1.2572
4464.00,1.2420
4463.00,1.2262
4462.00,1.2100
4461.00,1.1935
4460.00,1.1767
4459.00,1.1599
4458.00,1.1429
4457.00,1.1259
4456.00,1.1089
4455.00,1.0921
4454.00,1.0757
4453.00,1.0596
4452.00,1.0439
4451.00,1.0286
4450.00,1.0138
4449.00,0.9997
4448.00,0.9863
4447.00,0.9737
4446.00,0.9619
4445.00,0.9509
4444.00,0.9407
4443.00,0.9313
4442.00,0.9226
4441.00,0.9144
4440.00,0.9065
4439.00,0.8989
4438.00,0.8914
4437.00,0.8839
4436.00,0.8763
4435.00,0.8686
4434.00,0.8610
4433.00,0.8534
4432.00,0.8462
4431.00,0.8397
4430.00,0.8340
4429.00,0.8293
4428.00,0.8257
4427.00,0.8235
4426.00,0.8228
4425.00,0.8236
4424.00,0.8260
4423.00,0.8300
4422.00,0.8356
4421.00,0.8428
4420.00,0.8514
4419.00,0.8613
4418.00,0.8724
4417.00,0.8846
4416.00,0.8978
4415.00,0.9119
4414.00,0.9269
4413.00,0.9428
4412.00,0.9593
4411.00,0.9764
4410.00,0.9940
4409.00,1.0119
4408.00,1.0302
4407.00,1.0487
4406.00,1.0673
4405.00,1.0859
4404.00,1.1045
4403.00,1.1230
4402.00,1.1413
4401.00,1.1593
4400.00,1.1769
4399.00,1.1940
4398.00,1.2106
4397.00,1.2268
4396.00,1.2425
4395.00,1.2579
4394.00,1.2729
4393.00,1.2876
4392.00,1.3021
4391.00,1.3162
4390.00,1.3299
4389.00,1.3434
4388.00,1.3566
4387.00,1.3695
4386.00,1.3822
4385.00,1.3947
4384.00,1.4069
4383.00,1.4189
4382.00,1.4306
4381.00,1.4419
4380.00,1.4526
4379.00,1.4628
4378.00,1.4726
4377.00,1.4822
4376.00,1.4915
4375.00,1.5004
4374.00,1.5087
4373.00,1.5163
4372.00,1.5232
4371.00,1.5297
4370.00,1.5357
4369.00,1.5415
4368.00,1.5469
4367.00,1.5518
4366.00,1.5563
4365.00,1.5604
4364.00,1.5640
4363.00,1.5669
4362.00,1.5693
4361.00,1.5712
4360.00,1.5727
4359.00,1.5741
4358.00,1.5752
4357.00,1.5758
4356.00,1.5760
4355.00,1.5755
4354.00,1.5747
4353.00,1.5738
4352.00,1.5728
4351.00,1.5714
4350.00,1.5696
4349.00,1.5670
4348.00,1.5638
4347.00,1.5601
4346.00,1.5562
4345.00,1.5522
4344.00,1.5481
4343.00,1.5437
4342.00,1.5388
4341.00,1.5335
4340.00,1.5277
4339.00,1.5214
4338.00,1.5144
4337.00,1.5067
4336.00,1.4983
4335.00,1.4895
4334.00,1.4802
4333.00,1.4705
4332.00,1.4604
4331.00,1.4500
4330.00,1.4392
4329.00,1.4280
4328.00,1.4163
4327.00,1.4041
4326.00,1.3914
4325.00,1.3783
4324.00,1.3649
4323.00,1.3511
4322.00,1.3369
4321.00,1.3220
4320.00,1.3064
4319.00,1.2901
4318.00,1.2731
4317.00,1.2556
4316.00,1.2376
4315.00,1.2189
4314.00,1.1996
4313.00,1.1796
4312.00,1.1591
4311.00,1.1382
4310.00,1.1172
4309.00,1.0960
4308.00,1.0747
4307.00,1.0533
4306.00,1.0319
4305.00,1.0107
4304.00,0.9897
4303.00,0.9691
4302.00,0.9489
4301.00,0.9293
4300.00,0.9104
4299.00,0.8921
4298.00,0.8747
4297.00,0.8582
4296.00,0.8427
4295.00,0.8282
4294.00,0.8149
4293.00,0.8028
4292.00,0.7921
4291.00,0.7826
4290.00,0.7746
4289.00,0.7681
4288.00,0.7630
4287.00,0.7596
4286.00,0.7578
4285.00,0.7575
4284.00,0.7589
4283.00,0.7617
4282.00,0.7661
4281.00,0.7720
4280.00,0.7793
4279.00,0.7879
4278.00,0.7978
4277.00,0.8089
4276.00,0.8211
4275.00,0.8343
4274.00,0.8485
4273.00,0.8635
4272.00,0.8792
4271.00,0.8956
4270.00,0.9126
4269.00,0.9301
4268.00,0.9480
4267.00,0.9664
4266.00,0.9851
4265.00,1.0041
4264.00,1.0232
4263.00,1.0426
4262.00,1.0621
4261.00,1.0817
4260.00,1.1012
4259.00,1.1206
4258.00,1.1399
4257.00,1.1590
4256.00,1.1781
4255.00,1.1971
4254.00,1.2160
4253.00,1.2346
4252.00,1.2529
4251.00,1.2708
4250.00,1.2883
4249.00,1.3056
4248.00,1.3224
4247.00,1.3389
4246.00,1.3549
4245.00,1.3706
4244.00,1.3859
4243.00,1.4008
4242.00,1.4151
4241.00,1.4288
4240.00,1.4418
4239.00,1.4544
4238.00,1.4664
4237.00,1.4780
4236.00,1.4892
4235.00,1.4998
4234.00,1.5101
4233.00,1.5200
4232.00,1.5295
4231.00,1.5383
4230.00,1.5465
4229.00,1.5543
4228.00,1.5616
4227.00,1.5683
4226.00,1.5743
4225.00,1.5797
4224.00,1.5847
4223.00,1.5893
4222.00,1.5937
4221.00,1.5976
4220.00,1.6011
4219.00,1.6042
4218.00,1.6071
4217.00,1.6095
4216.00,1.6113
4215.00,1.6126
4214.00,1.6134
4213.00,1.6140
4212.00,1.6143
4211.00,1.6142
4210.00,1.6136
4209.00,1.6123
4208.00,1.6105
4207.00,1.6082
4206.00,1.6055
4205.00,1.6024
4204.00,1.5988
4203.00,1.5948
4202.00,1.5903
4201.00,1.5853
4200.00,1.5799
4199.00,1.5740
4198.00,1.5680
4197.00,1.5616
4196.00,1.5548
4195.00,1.5474
4194.00,1.5391
4193.00,1.5303
4192.00,1.5209
4191.00,1.5112
4190.00,1.5011
4189.00,1.4905
4188.00,1.4795
4187.00,1.4678
4186.00,1.4555
4185.00,1.4426
4184.00,1.4290
4183.00,1.4150
4182.00,1.4004
4181.00,1.3853
4180.00,1.3694
4179.00,1.3527
4178.00,1.3353
4177.00,1.3172
4176.00,1.2988
4175.00,1.2799
4174.00,1.2605
4173.00,1.2407
4172.00,1.2203
4171.00,1.1995
4170.00,1.1782
4169.00,1.1566
4168.00,1.1346
4167.00,1.1125
4166.00,1.0903
4165.00,1.0681
4164.00,1.0459
4163.00,1.0238
4162.00,1.0020
4161.00,0.9806
4160.00,0.9597
4159.00,0.9393
4158.00,0.9197
4157.00,0.9008
4156.00,0.8828
4155.00,0.8658
4154.00,0.8498
4153.00,0.8349
4152.00,0.8212
4151.00,0.8089
4150.00,0.7979
4149.00,0.7885
4148.00,0.7808
4147.00,0.7746
4146.00,0.7703
4145.00,0.7677
4144.00,0.7668
4143.00,0.7676
4142.00,0.7702
4141.00,0.7745
4140.00,0.7804
4139.00,0.7880
4138.00,0.7971
4137.00,0.8077
4136.00,0.8196
4135.00,0.8327
4134.00,0.8469
4133.00,0.8621
4132.00,0.8783
4131.00,0.8954
4130.00,0.9131
4129.00,0.9315
4128.00,0.9504
4127.00,0.9697
4126.00,0.9895
4125.00,1.0096
4124.00,1.0300
4123.00,1.0507
4122.00,1.0715
4121.00,1.0924
4120.00,1.1133
4119.00,1.1342
4118.00,1.1550
4117.00,1.1756
4116.00,1.1962
4115.00,1.2166
4114.00,1.2369
4113.00,1.2568
4112.00,1.2764
4111.00,1.2956
4110.00,1.3144
4109.00,1.3328
4108.00,1.3508
4107.00,1.3685
4106.00,1.3857
4105.00,1.4026
4104.00,1.4189
4103.00,1.4346
4102.00,1.4499
4101.00,1.4647
4100.00,1.4790
4099.00,1.4930
4098.00,1.5063
4097.00,1.5190
4096.00,1.5309
4095.00,1.5423
4094.00,1.5533
4093.00,1.5638
4092.00,1.5740
4091.00,1.5835
4090.00,1.5924
4089.00,1.6007
4088.00,1.6086
4087.00,1.6161
4086.00,1.6234
4085.00,1.6304
4084.00,1.6369
4083.00,1.6426
4082.00,1.6474
4081.00,1.6516
4080.00,1.6555
4079.00,1.6591
4078.00,1.6624
4077.00,1.6650
4076.00,1.6672
4075.00,1.6692
4074.00,1.6710
4073.00,1.6725
4072.00,1.6734
4071.00,1.6736
4070.00,1.6731
4069.00,1.6722
4068.00,1.6712
4067.00,1.6699
4066.00,1.6683
4065.00,1.6662
4064.00,1.6636
4063.00,1.6604
4062.00,1.6569
4061.00,1.6532
4060.00,1.6491
4059.00,1.6444
4058.00,1.6389
4057.00,1.6328
4056.00,1.6262
4055.00,1.6191
4054.00,1.6116
4053.00,1.6038
4052.00,1.5956
4051.00,1.5867
4050.00,1.5771
4049.00,1.5666
4048.00,1.5556
4047.00,1.5443
4046.00,1.5327
4045.00,1.5208
4044.00,1.5085
4043.00,1.4957
4042.00,1.4822
4041.00,1.4683
4040.00,1.4539
4039.00,1.4391
4038.00,1.4239
4037.00,1.4081
4036.00,1.3919
4035.00,1.3752
4034.00,1.3581
4033.00,1.3405
4032.00,1.3225
4031.00,1.3041
4030.00,1.2853
4029.00,1.2660
4028.00,1.2462
4027.00,1.2259
4026.00,1.2050
4025.00,1.1835
4024.00,1.1614
4023.00,1.1388
4022.00,1.1159
4021.00,1.0929
4020.00,1.0699
4019.00,1.0470
4018.00,1.0243
4017.00,1.0020
4016.00,0.9801
4015.00,0.9589
4014.00,0.9383
4013.00,0.9187
4012.00,0.9001
4011.00,0.8828
4010.00,0.8668
4009.00,0.8522
4008.00,0.8392
4007.00,0.8276
4006.00,0.8178
4005.00,0.8098
4004.00,0.8038
4003.00,0.7998
4002.00,0.7977
4001.00,0.7977
4000.00,0.7996
3999.00,0.8036
3998.00,0.8094
3997.00,0.8171
3996.00,0.8266
3995.00,0.8377
3994.00,0.8504
3993.00,0.8645
3992.00,0.8800
3991.00,0.8966
3990.00,0.9143
3989.00,0.9330
3988.00,0.9525
3987.00,0.9727
3986.00,0.9935
3985.00,1.0148
3984.00,1.0364
3983.00,1.0583
3982.00,1.0803
3981.00,1.1024
3980.00,1.1245
3979.00,1.1464
3978.00,1.1682
3977.00,1.1897
3976.00,1.2110
3975.00,1.2319
3974.00,1.2523
3973.00,1.2722
3972.00,1.2917
3971.00,1.3109
3970.00,1.3299
3969.00,1.3486
3968.00,1.3669
3967.00,1.3848
3966.00,1.4023
3965.00,1.4193
3964.00,1.4359
3963.00,1.4522
3962.00,1.4683
3961.00,1.4843
3960.00,1.5002
3959.00,1.5156
3958.00,1.5305
3957.00,1.5447
3956.00,1.5582
3955.00,1.5711
3954.00,1.5834
3953.00,1.5953
3952.00,1.6066
3951.00,1.6174
3950.00,1.6276
3949.00,1.6374
3948.00,1.6471
3947.00,1.6564
3946.00,1.6652
3945.00,1.6732
3944.00,1.6804
3943.00,1.6872
3942.00,1.6937
3941.00,1.6999
3940.00,1.7057
3939.00,1.7109
3938.00,1.7155
3937.00,1.7194
3936.00,1.7228
3935.00,1.7257
3934.00,1.7284
3933.00,1.7309
3932.00,1.7331
3931.00,1.7348
3930.00,1.7358
3929.00,1.7361
3928.00,1.7360
3927.00,1.7355
3926.00,1.7348
3925.00,1.7336
3924.00,1.7318
3923.00,1.7293
3922.00,1.7261
3921.00,1.7223
3920.00,1.7184
3919.00,1.7145
3918.00,1.7106
3917.00,1.7064
3916.00,1.7016
3915.00,1.6965
3914.00,1.6910
3913.00,1.6850
3912.00,1.6787
3911.00,1.6716
3910.00,1.6635
3909.00,1.6544
3908.00,1.6443
3907.00,1.6335
3906.00,1.6221
3905.00,1.6100
3904.00,1.5972
3903.00,1.5836
3902.00,1.5697
3901.00,1.5558
3900.00,1.5419
3899.00,1.5281
3898.00,1.5140
3897.00,1.4995
3896.00,1.4843
3895.00,1.4680
3894.00,1.4506
3893.00,1.4322
3892.00,1.4123
3891.00,1.3910
3890.00,1.3688
3889.00,1.3465
3888.00,1.3245
3887.00,1.3020
3886.00,1.2782
3885.00,1.2529
3884.00,1.2272
3883.00,1.2019
3882.00,1.1767
3881.00,1.1510
3880.00,1.1248
3879.00,1.0987
3878.00,1.0734
3877.00,1.0490
3876.00,1.0250
3875.00,1.0010
3874.00,0.9771
3873.00,0.9540
3872.00,0.9323
3871.00,0.9113
3870.00,0.8903
3869.00,0.8698
3868.00,0.8514
3867.00,0.8359
3866.00,0.8231
3865.00,0.8122
3864.00,0.8030
3863.00,0.7956
3862.00,0.7903
3861.00,0.7872
3860.00,0.7861
3859.00,0.7867
3858.00,0.7886
3857.00,0.7918
3856.00,0.7971
3855.00,0.8060
3854.00,0.8190
3853.00,0.8347
3852.00,0.8512
3851.00,0.8677
3850.00,0.8847
3849.00,0.9027
3848.00,0.9219
3847.00,0.9421
3846.00,0.9628
3845.00,0.9840
3844.00,1.0058
3843.00,1.0282
3842.00,1.0508
3841.00,1.0736
3840.00,1.0966
3839.00,1.1200
3838.00,1.1445
3837.00,1.1702
3836.00,1.1963
3835.00,1.2217
3834.00,1.2462
3833.00,1.2702
3832.00,1.2941
3831.00,1.3179
3830.00,1.3414
3829.00,1.3642
3828.00,1.3862
3827.00,1.4072
3826.00,1.4272
3825.00,1.4459
3824.00,1.4631
3823.00,1.4799
3822.00,1.4978
3821.00,1.5168
3820.00,1.5360
3819.00,1.5543
3818.00,1.5711
3817.00,1.5870
3816.00,1.6029
3815.00,1.6189
3814.00,1.6346
3813.00,1.6491
3812.00,1.6618
3811.00,1.6730
3810.00,1.6828
3809.00,1.6920
3808.00,1.7008
3807.00,1.7096
3806.00,1.7185
3805.00,1.7272
3804.00,1.7353
3803.00,1.7428
3802.00,1.7498
3801.00,1.7562
3800.00,1.7622
3799.00,1.7677
3798.00,1.7730
3797.00,1.7782
3796.00,1.7829
3795.00,1.7872
3794.00,1.7910
3793.00,1.7942
3792.00,1.7968
3791.00,1.7991
3790.00,1.8013
3789.00,1.8031
3788.00,1.8042
3787.00,1.8044
3786.00,1.8037
3785.00,1.8023
3784.00,1.8003
3783.00,1.7980
3782.00,1.7956
3781.00,1.7929
3780.00,1.7897
3779.00,1.7859
3778.00,1.7818
3777.00,1.7774
3776.00,1.7725
3775.00,1.7669
3774.00,1.7608
3773.00,1.7542
3772.00,1.7471
3771.00,1.7393
3770.00,1.7307
3769.00,1.7212
3768.00,1.7112
3767.00,1.7011
3766.00,1.6908
3765.00,1.6801
3764.00,1.6688
3763.00,1.6570
3762.00,1.6448
3761.00,1.6319
3760.00,1.6181
3759.00,1.6032
3758.00,1.5874
3757.00,1.5708
3756.00,1.5539
3755.00,1.5369
3754.00,1.5194
3753.00,1.5007
3752.00,1.4800
3751.00,1.4572
3750.00,1.4324
3749.00,1.4071
3748.00,1.3829
3747.00,1.3604
3746.00,1.3382
3745.00,1.3142
3744.00,1.2878
3743.00,1.2611
3742.00,1.2363
3741.00,1.2129
3740.00,1.1895
3739.00,1.1653
3738.00,1.1401
3737.00,1.1131
3736.00,1.0847
3735.00,1.0559
3734.00,1.0282
3733.00,1.0018
3732.00,0.9767
3731.00,0.9528
3730.00,0.9305
3729.00,0.9102
3728.00,0.8919
3727.00,0.8757
3726.00,0.8613
3725.00,0.8491
3724.00,0.8391
3723.00,0.8318
3722.00,0.8268
3721.00,0.8223
3720.00,0.8169
3719.00,0.8114
3718.00,0.8105
3717.00,0.8183
3716.00,0.8351
3715.00,0.8571
3714.00,0.8793
3713.00,0.9005
3712.00,0.9215
3711.00,0.9436
3710.00,0.9666
3709.00,0.9906
3708.00,1.0154
3707.00,1.0407
3706.00,1.0661
3705.00,1.0912
3704.00,1.1166
3703.00,1.1428
3702.00,1.1706
3701.00,1.1994
3700.00,1.2288
3699.00,1.2575
3698.00,1.2855
3697.00,1.3125
3696.00,1.3387
3695.00,1.3640
3694.00,1.3880
3693.00,1.4112
3692.00,1.4340
3691.00,1.4572
3690.00,1.4809
3689.00,1.5056
3688.00,1.5310
3687.00,1.5564
3686.00,1.5802
3685.00,1.6017
3684.00,1.6215
3683.00,1.6400
3682.00,1.6574
3681.00,1.6738
3680.00,1.6886
3679.00,1.7015
3678.00,1.7134
3677.00,1.7255
3676.00,1.7388
3675.00,1.7530
3674.00,1.7671
3673.00,1.7801
3672.00,1.7916
3671.00,1.8021
3670.00,1.8123
3669.00,1.8226
3668.00,1.8331
3667.00,1.8433
3666.00,1.8529
3665.00,1.8617
3664.00,1.8696
3663.00,1.8767
3662.00,1.8831
3661.00,1.8886
3660.00,1.8930
3659.00,1.8965
3658.00,1.8995
3657.00,1.9025
3656.00,1.9056
3655.00,1.9082
3654.00,1.9102
3653.00,1.9117
3652.00,1.9134
3651.00,1.9156
3650.00,1.9177
3649.00,1.9188
3648.00,1.9191
3647.00,1.9197
3646.00,1.9213
3645.00,1.9237
3644.00,1.9261
3643.00,1.9278
3642.00,1.9285
3641.00,1.9284
3640.00,1.9275
3639.00,1.9258
3638.00,1.9234
3637.00,1.9203
3636.00,1.9171
3635.00,1.9132
3634.00,1.9083
3633.00,1.9021
3632.00,1.8948
3631.00,1.8872
3630.00,1.8797
3629.00,1.8726
3628.00,1.8655
3627.00,1.8587
3626.00,1.8521
3625.00,1.8454
3624.00,1.8379
3623.00,1.8295
3622.00,1.8203
3621.00,1.8103
3620.00,1.7997
3619.00,1.7875
3618.00,1.7726
3617.00,1.7558
3616.00,1.7401
3615.00,1.7280
3614.00,1.7196
3613.00,1.7125
3612.00,1.7037
3611.00,1.6920
3610.00,1.6784
3609.00,1.6638
3608.00,1.6485
3607.00,1.6324
3606.00,1.6164
3605.00,1.6003
3604.00,1.5839
3603.00,1.5668
3602.00,1.5490
3601.00,1.5301
3600.00,1.5104
3599.00,1.4900
3598.00,1.4693
3597.00,1.4485
3596.00,1.4276
3595.00,1.4065
3594.00,1.3852
3593.00,1.3638
3592.00,1.3424
3591.00,1.3213
3590.00,1.3007
3589.00,1.2808
3588.00,1.2615
3587.00,1.2427
3586.00,1.2249
3585.00,1.2087
3584.00,1.1945
3583.00,1.1820
3582.00,1.1711
3581.00,1.1618
3580.00,1.1540
3579.00,1.1480
3578.00,1.1435
3577.00,1.1406
3576.00,1.1393
3575.00,1.1398
3574.00,1.1420
3573.00,1.1456
3572.00,1.1505
3571.00,1.1566
3570.00,1.1641
3569.00,1.1738
3568.00,1.1859
3567.00,1.2000
3566.00,1.2152
3565.00,1.2312
3564.00,1.2477
3563.00,1.2648
3562.00,1.2825
3561.00,1.3011
3560.00,1.3202
3559.00,1.3396
3558.00,1.3590
3557.00,1.3783
3556.00,1.3977
3555.00,1.4171
3554.00,1.4367
3553.00,1.4564
3552.00,1.4760
3551.00,1.4952
3550.00,1.5139
3549.00,1.5322
3548.00,1.5502
3547.00,1.5681
3546.00,1.5861
3545.00,1.6038
3544.00,1.6213
3543.00,1.6384
3542.00,1.6550
3541.00,1.6711
3540.00,1.6865
3539.00,1.7012
3538.00,1.7152
3537.00,1.7289
3536.00,1.7422
3535.00,1.7551
3534.00,1.7678
3533.00,1.7803
3532.00,1.7928
3531.00,1.8050
3530.00,1.8167
3529.00,1.8277
3528.00,1.8381
3527.00,1.8480
3526.00,1.8577
3525.00,1.8672
3524.00,1.8763
3523.00,1.8849
3522.00,1.8934
3521.00,1.9020
3520.00,1.9104
3519.00,1.9181
3518.00,1.9248
3517.00,1.9306
3516.00,1.9364
3515.00,1.9423
3514.00,1.9480
3513.00,1.9534
3512.00,1.9580
3511.00,1.9620
3510.00,1.9655
3509.00,1.9687
3508.00,1.9719
3507.00,1.9747
3506.00,1.9773
3505.00,1.9795
3504.00,1.9814
3503.00,1.9829
3502.00,1.9838
3501.00,1.9839
3500.00,1.9834
3499.00,1.9824
3498.00,1.9812
3497.00,1.9797
3496.00,1.9778
3495.00,1.9753
3494.00,1.9725
3493.00,1.9695
3492.00,1.9664
3491.00,1.9631
3490.00,1.9593
3489.00,1.9551
3488.00,1.9503
3487.00,1.9447
3486.00,1.9385
3485.00,1.9315
3484.00,1.9240
3483.00,1.9163
3482.00,1.9088
3481.00,1.9015
3480.00,1.8938
3479.00,1.8849
3478.00,1.8750
3477.00,1.8645
3476.00,1.8538
3475.00,1.8428
3474.00,1.8313
3473.00,1.8192
3472.00,1.8063
3471.00,1.7927
3470.00,1.7785
3469.00,1.7639
3468.00,1.7485
3467.00,1.7321
3466.00,1.7147
3465.00,1.6964
3464.00,1.6778
3463.00,1.6588
3462.00,1.6395
3461.00,1.6195
3460.00,1.5986
3459.00,1.5767
3458.00,1.5540
3457.00,1.5305
3456.00,1.5065
3455.00,1.4821
3454.00,1.4573
3453.00,1.4322
3452.00,1.4067
3451.00,1.3810
3450.00,1.3554
3449.00,1.3299
3448.00,1.3044
3447.00,1.2790
3446.00,1.2540
3445.00,1.2298
3444.00,1.2065
3443.00,1.1844
3442.00,1.1634
3441.00,1.1437
3440.00,1.1256
3439.00,1.1092
3438.00,1.0946
3437.00,1.0818
3436.00,1.0710
3435.00,1.0624
3434.00,1.0560
3433.00,1.0520
3432.00,1.0503
3431.00,1.0509
3430.00,1.0539
3429.00,1.0590
3428.00,1.0664
3427.00,1.0759
3426.00,1.0873
3425.00,1.1007
3424.00,1.1157
3423.00,1.1323
3422.00,1.1505
3421.00,1.1700
3420.00,1.1906
3419.00,1.2121
3418.00,1.2343
3417.00,1.2571
3416.00,1.2804
3415.00,1.3043
3414.00,1.3284
3413.00,1.3527
3412.00,1.3771
3411.00,1.4017
3410.00,1.4262
3409.00,1.4506
3408.00,1.4747
3407.00,1.4984
3406.00,1.5216
3405.00,1.5444
3404.00,1.5668
3403.00,1.5888
3402.00,1.6103
3401.00,1.6313
3400.00,1.6517
3399.00,1.6715
3398.00,1.6908
3397.00,1.7094
3396.00,1.7275
3395.00,1.7450
3394.00,1.7622
3393.00,1.7791
3392.00,1.7956
3391.00,1.8114
3390.00,1.8263
3389.00,1.8404
3388.00,1.8536
3387.00,1.8664
3386.00,1.8789
3385.00,1.8913
3384.00,1.9032
3383.00,1.9143
3382.00,1.9245
3381.00,1.9341
3380.00,1.9437
3379.00,1.9531
3378.00,1.9622
3377.00,1.9705
3376.00,1.9781
3375.00,1.9850
3374.00,1.9915
3373.00,1.9978
3372.00,2.0039
3371.00,2.0096
3370.00,2.0149
3369.00,2.0197
3368.00,2.0237
3367.00,2.0271
3366.00,2.0301
3365.00,2.0327
3364.00,2.0349
3363.00,2.0363
3362.00,2.0370
3361.00,2.0373
3360.00,2.0377
3359.00,2.0379
3358.00,2.0379
3357.00,2.0374
3356.00,2.0366
3355.00,2.0355
3354.00,2.0341
3353.00,2.0319
3352.00,2.0288
3351.00,2.0247
3350.00,2.0203
3349.00,2.0160
3348.00,2.0119
3347.00,2.0073
3346.00,2.0021
3345.00,1.9960
3344.00,1.9896
3343.00,1.9829
3342.00,1.9759
3341.00,1.9681
3340.00,1.9595
3339.00,1.9501
3338.00,1.9402
3337.00,1.9302
3336.00,1.9200
3335.00,1.9091
3334.00,1.8973
3333.00,1.8847
3332.00,1.8714
3331.00,1.8577
3330.00,1.8438
3329.00,1.8295
3328.00,1.8147
3327.00,1.7994
3326.00,1.7832
3325.00,1.7661
3324.00,1.7480
3323.00,1.7291
3322.00,1.7096
3321.00,1.6897
3320.00,1.6693
3319.00,1.6482
3318.00,1.6260
3317.00,1.6027
3316.00,1.5785
3315.00,1.5536
3314.00,1.5281
3313.00,1.5020
3312.00,1.4755
3311.00,1.4487
3310.00,1.4219
3309.00,1.3950
3308.00,1.3682
3307.00,1.3415
3306.00,1.3152
3305.00,1.2894
3304.00,1.2644
3303.00,1.2405
3302.00,1.2176
3301.00,1.1961
3300.00,1.1760
3299.00,1.1574
3298.00,1.1406
3297.00,1.1257
3296.00,1.1129
3295.00,1.1024
3294.00,1.0943
3293.00,1.0885
3292.00,1.0850
3291.00,1.0839
3290.00,1.0851
3289.00,1.0886
3288.00,1.0944
3287.00,1.1025
3286.00,1.1127
3285.00,1.1249
3284.00,1.1391
3283.00,1.1549
3282.00,1.1724
3281.00,1.1913
3280.00,1.2114
3279.00,1.2325
3278.00,1.2546
3277.00,1.2776
3276.00,1.3013
3275.00,1.3255
3274.00,1.3500
3273.00,1.3749
3272.00,1.4000
3271.00,1.4253
3270.00,1.4507
3269.00,1.4761
3268.00,1.5012
3267.00,1.5261
3266.00,1.5510
3265.00,1.5757
3264.00,1.6003
3263.00,1.6244
3262.00,1.6478
3261.00,1.6703
3260.00,1.6922
3259.00,1.7136
3258.00,1.7348
3257.00,1.7556
3256.00,1.7758
3255.00,1.7952
3254.00,1.8138
3253.00,1.8315
3252.00,1.8483
3251.00,1.8644
3250.00,1.8801
3249.00,1.8957
3248.00,1.9109
3247.00,1.9254
3246.00,1.9391
3245.00,1.9521
3244.00,1.9645
3243.00,1.9766
3242.00,1.9883
3241.00,1.9993
3240.00,2.0094
3239.00,2.0186
3238.00,2.0273
3237.00,2.0356
3236.00,2.0436
3235.00,2.0512
3234.00,2.0583
3233.00,2.0647
3232.00,2.0703
3231.00,2.0754
3230.00,2.0804
3229.00,2.0855
3228.00,2.0905
3227.00,2.0948
3226.00,2.0986
3225.00,2.1019
3224.00,2.1047
3223.00,2.1066
3222.00,2.1076
3221.00,2.1079
3220.00,2.1083
3219.00,2.1090
3218.00,2.1097
3217.00,2.1096
3216.00,2.1084
3215.00,2.1064
3214.00,2.1044
3213.00,2.1024
3212.00,2.1002
3211.00,2.0977
3210.00,2.0947
3209.00,2.0915
3208.00,2.0877
3207.00,2.0834
3206.00,2.0788
3205.00,2.0739
3204.00,2.0692
3203.00,2.0647
3202.00,2.0599
3201.00,2.0545
3200.00,2.0480
3199.00,2.0403
3198.00,2.0315
3197.00,2.0221
3196.00,2.0121
3195.00,2.0016
3194.00,1.9902
3193.00,1.9779
3192.00,1.9648
3191.00,1.9509
3190.00,1.9366
3189.00,1.9215
3188.00,1.9056
3187.00,1.8889
3186.00,1.8715
3185.00,1.8536
3184.00,1.8351
3183.00,1.8158
3182.00,1.7955
3181.00,1.7744
3180.00,1.7525
3179.00,1.7299
3178.00,1.7068
3177.00,1.6834
3176.00,1.6603
3175.00,1.6378
3174.00,1.6165
3173.00,1.5967
3172.00,1.5794
3171.00,1.5656
3170.00,1.5568
3169.00,1.5541
3168.00,1.5578
3167.00,1.5670
3166.00,1.5795
3165.00,1.5912
3164.00,1.5969
3163.00,1.5922
3162.00,1.5749
3161.00,1.5461
3160.00,1.5090
3159.00,1.4679
3158.00,1.4261
3157.00,1.3861
3156.00,1.3492
3155.00,1.3162
3154.00,1.2875
3153.00,1.2633
3152.00,1.2435
3151.00,1.2280
3150.00,1.2164
3149.00,1.2087
3148.00,1.2045
3147.00,1.2037
3146.00,1.2060
3145.00,1.2112
3144.00,1.2190
3143.00,1.2294
3142.00,1.2421
3141.00,1.2570
3140.00,1.2739
3139.00,1.2926
3138.00,1.3129
3137.00,1.3343
3136.00,1.3568
3135.00,1.3803
3134.00,1.4045
3133.00,1.4295
3132.00,1.4548
3131.00,1.4804
3130.00,1.5061
3129.00,1.5319
3128.00,1.5578
3127.00,1.5838
3126.00,1.6096
3125.00,1.6351
3124.00,1.6600
3123.00,1.6845
3122.00,1.7087
3121.00,1.7326
3120.00,1.7561
3119.00,1.7789
3118.00,1.8009
3117.00,1.8222
3116.00,1.8428
3115.00,1.8627
3114.00,1.8820
3113.00,1.9006
3112.00,1.9184
3111.00,1.9357
3110.00,1.9527
3109.00,1.9690
3108.00,1.9845
3107.00,1.9993
3106.00,2.0136
3105.00,2.0275
3104.00,2.0409
3103.00,2.0536
3102.00,2.0660
3101.00,2.0782
3100.00,2.0896
3099.00,2.0998
3098.00,2.1087
3097.00,2.1168
3096.00,2.1247
3095.00,2.1326
3094.00,2.1406
3093.00,2.1483
3092.00,2.1555
3091.00,2.1622
3090.00,2.1686
3089.00,2.1747
3088.00,2.1798
3087.00,2.1836
3086.00,2.1863
3085.00,2.1889
3084.00,2.1922
3083.00,2.1956
3082.00,2.1986
3081.00,2.2007
3080.00,2.2020
3079.00,2.2029
3078.00,2.2034
3077.00,2.2037
3076.00,2.2039
3075.00,2.2039
3074.00,2.2035
3073.00,2.2023
3072.00,2.2001
3071.00,2.1972
3070.00,2.1941
3069.00,2.1909
3068.00,2.1873
3067.00,2.1832
3066.00,2.1786
3065.00,2.1733
3064.00,2.1672
3063.00,2.1607
3062.00,2.1543
3061.00,2.1481
3060.00,2.1415
3059.00,2.1343
3058.00,2.1265
3057.00,2.1184
3056.00,2.1095
3055.00,2.0996
3054.00,2.0888
3053.00,2.0776
3052.00,2.0662
3051.00,2.0546
3050.00,2.0424
3049.00,2.0295
3048.00,2.0158
3047.00,2.0012
3046.00,1.9861
3045.00,1.9703
3044.00,1.9542
3043.00,1.9375
3042.00,1.9203
3041.00,1.9025
3040.00,1.8841
3039.00,1.8653
3038.00,1.8463
3037.00,1.8271
3036.00,1.8077
3035.00,1.7880
3034.00,1.7681
3033.00,1.7481
3032.00,1.7284
3031.00,1.7091
3030.00,1.6905
3029.00,1.6728
3028.00,1.6562
3027.00,1.6406
3026.00,1.6263
3025.00,1.6134
3024.00,1.6022
3023.00,1.5929
3022.00,1.5857
3021.00,1.5807
3020.00,1.5780
3019.00,1.5776
3018.00,1.5797
3017.00,1.5843
3016.00,1.5913
3015.00,1.6007
3014.00,1.6121
3013.00,1.6254
3012.00,1.6401
3011.00,1.6560
3010.00,1.6728
3009.00,1.6901
3008.00,1.7075
3007.00,1.7242
3006.00,1.7398
3005.00,1.7540
3004.00,1.7663
3003.00,1.7762
3002.00,1.7837
3001.00,1.7888
3000.00,1.7916
2999.00,1.7926
2998.00,1.7925
2997.00,1.7917
2996.00,1.7910
2995.00,1.7908
2994.00,1.7917
2993.00,1.7942
2992.00,1.7986
2991.00,1.8049
2990.00,1.8133
2989.00,1.8236
2988.00,1.8359
2987.00,1.8501
2986.00,1.8665
2985.00,1.8849
2984.00,1.9051
2983.00,1.9264
2982.00,1.9483
2981.00,1.9705
2980.00,1.9932
2979.00,2.0164
2978.00,2.0399
2977.00,2.0633
2976.00,2.0863
2975.00,2.1089
2974.00,2.1313
2973.00,2.1533
2972.00,2.1745
2971.00,2.1946
2970.00,2.2136
2969.00,2.2318
2968.00,2.2495
2967.00,2.2666
2966.00,2.2831
2965.00,2.2990
2964.00,2.3143
2963.00,2.3287
2962.00,2.3421
2961.00,2.3547
2960.00,2.3666
2959.00,2.3780
2958.00,2.3894
2957.00,2.4013
2956.00,2.4139
2955.00,2.4274
2954.00,2.4413
2953.00,2.4555
2952.00,2.4698
2951.00,2.4845
2950.00,2.4997
2949.00,2.5159
2948.00,2.5330
2947.00,2.5504
2946.00,2.5658
2945.00,2.5759
2944.00,2.5774
2943.00,2.5700
2942.00,2.5563
2941.00,2.5394
2940.00,2.5215
2939.00,2.5037
2938.00,2.4865
2937.00,2.4706
2936.00,2.4565
2935.00,2.4444
2934.00,2.4342
2933.00,2.4254
2932.00,2.4176
2931.00,2.4106
2930.00,2.4042
2929.00,2.3979
2928.00,2.3917
2927.00,2.3862
2926.00,2.3819
2925.00,2.3787
2924.00,2.3761
2923.00,2.3739
2922.00,2.3723
2921.00,2.3709
2920.00,2.3689
2919.00,2.3662
2918.00,2.3631
2917.00,2.3603
2916.00,2.3577
2915.00,2.3550
2914.00,2.3524
2913.00,2.3499
2912.00,2.3470
2911.00,2.3434
2910.00,2.3388
2909.00,2.3332
2908.00,2.3270
2907.00,2.3209
2906.00,2.3148
2905.00,2.3081
2904.00,2.3000
2903.00,2.2909
2902.00,2.2822
2901.00,2.2749
2900.00,2.2683
2899.00,2.2608
2898.00,2.2516
2897.00,2.2407
2896.00,2.2287
2895.00,2.2158
2894.00,2.2021
2893.00,2.1878
2892.00,2.1730
2891.00,2.1579
2890.00,2.1423
2889.00,2.1261
2888.00,2.1091
2887.00,2.0915
2886.00,2.0738
2885.00,2.0562
2884.00,2.0385
2883.00,2.0207
2882.00,2.0028
2881.00,1.9854
2880.00,1.9688
2879.00,1.9536
2878.00,1.9400
2877.00,1.9287
2876.00,1.9198
2875.00,1.9133
2874.00,1.9090
2873.00,1.9068
2872.00,1.9060
2871.00,1.9056
2870.00,1.9043
2869.00,1.9012
2868.00,1.8958
2867.00,1.8879
2866.00,1.8779
2865.00,1.8657
2864.00,1.8509
2863.00,1.8330
2862.00,1.8120
2861.00,1.7878
2860.00,1.7603
2859.00,1.7293
2858.00,1.6954
2857.00,1.6592
2856.00,1.6221
2855.00,1.5851
2854.00,1.5488
2853.00,1.5141
2852.00,1.4818
2851.00,1.4525
2850.00,1.4272
2849.00,1.4060
2848.00,1.3893
2847.00,1.3771
2846.00,1.3697
2845.00,1.3671
2844.00,1.3690
2843.00,1.3752
2842.00,1.3849
2841.00,1.3979
2840.00,1.4136
2839.00,1.4318
2838.00,1.4522
2837.00,1.4747
2836.00,1.4988
2835.00,1.5242
2834.00,1.5505
2833.00,1.5776
2832.00,1.6053
2831.00,1.6335
2830.00,1.6616
2829.00,1.6896
2828.00,1.7175
2827.00,1.7454
2826.00,1.7735
2825.00,1.8015
2824.00,1.8291
2823.00,1.8564
2822.00,1.8829
2821.00,1.9088
2820.00,1.9340
2819.00,1.9589
2818.00,1.9833
2817.00,2.0069
2816.00,2.0295
2815.00,2.0511
2814.00,2.0716
2813.00,2.0912
2812.00,2.1100
2811.00,2.1282
2810.00,2.1458
2809.00,2.1626
2808.00,2.1779
2807.00,2.1919
2806.00,2.2052
2805.00,2.2184
2804.00,2.2319
2803.00,2.2453
2802.00,2.2581
2801.00,2.2695
2800.00,2.2796
2799.00,2.2887
2798.00,2.2973
2797.00,2.3055
2796.00,2.3130
2795.00,2.3202
2794.00,2.3271
2793.00,2.3337
2792.00,2.3397
2791.00,2.3450
2790.00,2.3498
2789.00,2.3542
2788.00,2.3583
2787.00,2.3625
2786.00,2.3669
2785.00,2.3707
2784.00,2.3733
2783.00,2.3747
2782.00,2.3756
2781.00,2.3761
2780.00,2.3759
2779.00,2.3751
2778.00,2.3742
2777.00,2.3735
2776.00,2.3727
2775.00,2.3714
2774.00,2.3697
2773.00,2.3676
2772.00,2.3643
2771.00,2.3595
2770.00,2.3534
2769.00,2.3468
2768.00,2.3402
2767.00,2.3341
2766.00,2.3285
2765.00,2.3232
2764.00,2.3175
2763.00,2.3105
2762.00,2.3021
2761.00,2.2925
2760.00,2.2820
2759.00,2.2713
2758.00,2.2608
2757.00,2.2502
2756.00,2.2387
2755.00,2.2257
2754.00,2.2116
2753.00,2.1968
2752.00,2.1818
2751.00,2.1663
2750.00,2.1500
2749.00,2.1329
2748.00,2.1150
2747.00,2.0962
2746.00,2.0763
2745.00,2.0552
2744.00,2.0329
2743.00,2.0096
2742.00,1.9856
2741.00,1.9608
2740.00,1.9349
2739.00,1.9073
2738.00,1.8781
2737.00,1.8475
2736.00,1.8158
2735.00,1.7830
2734.00,1.7491
2733.00,1.7136
2732.00,1.6766
2731.00,1.6381
2730.00,1.5985
2729.00,1.5582
2728.00,1.5174
2727.00,1.4765
2726.00,1.4359
2725.00,1.3958
2724.00,1.3568
2723.00,1.3193
2722.00,1.2836
2721.00,1.2503
2720.00,1.2197
2719.00,1.1924
2718.00,1.1686
2717.00,1.1489
2716.00,1.1334
2715.00,1.1226
2714.00,1.1165
2713.00,1.1154
2712.00,1.1195
2711.00,1.1284
2710.00,1.1419
2709.00,1.1597
2708.00,1.1814
2707.00,1.2064
2706.00,1.2343
2705.00,1.2646
2704.00,1.2969
2703.00,1.3309
2702.00,1.3663
2701.00,1.4027
2700.00,1.4398
2699.00,1.4774
2698.00,1.5153
2697.00,1.5533
2696.00,1.5913
2695.00,1.6291
2694.00,1.6666
2693.00,1.7036
2692.00,1.7401
2691.00,1.7759
2690.00,1.8109
2689.00,1.8451
2688.00,1.8782
2687.00,1.9103
2686.00,1.9414
2685.00,1.9713
2684.00,1.9999
2683.00,2.0273
2682.00,2.0536
2681.00,2.0790
2680.00,2.1033
2679.00,2.1261
2678.00,2.1473
2677.00,2.1671
2676.00,2.1859
2675.00,2.2040
2674.00,2.2213
2673.00,2.2378
2672.00,2.2534
2671.00,2.2684
2670.00,2.2830
2669.00,2.2967
2668.00,2.3091
2667.00,2.3204
2666.00,2.3314
2665.00,2.3430
2664.00,2.3549
2663.00,2.3662
2662.00,2.3758
2661.00,2.3837
2660.00,2.3907
2659.00,2.3976
2658.00,2.4049
2657.00,2.4124
2656.00,2.4198
2655.00,2.4271
2654.00,2.4342
2653.00,2.4407
2652.00,2.4461
2651.00,2.4498
2650.00,2.4520
2649.00,2.4539
2648.00,2.4563
2647.00,2.4595
2646.00,2.4632
2645.00,2.4666
2644.00,2.4693
2643.00,2.4713
2642.00,2.4729
2641.00,2.4738
2640.00,2.4732
2639.00,2.4710
2638.00,2.4682
2637.00,2.4658
2636.00,2.4639
2635.00,2.4619
2634.00,2.4593
2633.00,2.4561
2632.00,2.4525
2631.00,2.4489
2630.00,2.4456
2629.00,2.4429
2628.00,2.4400
2627.00,2.4362
2626.00,2.4310
2625.00,2.4250
2624.00,2.4184
2623.00,2.4113
2622.00,2.4035
2621.00,2.3946
2620.00,2.3845
2619.00,2.3735
2618.00,2.3623
2617.00,2.3511
2616.00,2.3394
2615.00,2.3265
2614.00,2.3126
2613.00,2.2980
2612.00,2.2827
2611.00,2.2667
2610.00,2.2498
2609.00,2.2323
2608.00,2.2142
2607.00,2.1952
2606.00,2.1747
2605.00,2.1529
2604.00,2.1301
2603.00,2.1065
2602.00,2.0822
2601.00,2.0564
2600.00,2.0289
2599.00,1.9996
2598.00,1.9687
2597.00,1.9364
2596.00,1.9025
2595.00,1.8670
2594.00,1.8298
2593.00,1.7910
2592.00,1.7507
2591.00,1.7090
2590.00,1.6660
2589.00,1.6218
2588.00,1.5769
2587.00,1.5315
2586.00,1.4862
2585.00,1.4417
2584.00,1.3984
2583.00,1.3571
2582.00,1.3181
2581.00,1.2819
2580.00,1.2492
2579.00,1.2202
2578.00,1.1953
2577.00,1.1752
2576.00,1.1600
2575.00,1.1503
2574.00,1.1461
2573.00,1.1475
2572.00,1.1545
2571.00,1.1666
2570.00,1.1836
2569.00,1.2050
2568.00,1.2302
2567.00,1.2587
2566.00,1.2900
2565.00,1.3236
2564.00,1.3590
2563.00,1.3959
2562.00,1.4339
2561.00,1.4730
2560.00,1.5127
2559.00,1.5530
2558.00,1.5934
2557.00,1.6337
2556.00,1.6738
2555.00,1.7133
2554.00,1.7525
2553.00,1.7913
2552.00,1.8296
2551.00,1.8672
2550.00,1.9037
2549.00,1.9390
2548.00,1.9729
2547.00,2.0056
2546.00,2.0371
2545.00,2.0675
2544.00,2.0966
2543.00,2.1241
2542.00,2.1501
2541.00,2.1750
2540.00,2.1989
2539.00,2.2219
2538.00,2.2436
2537.00,2.2641
2536.00,2.2836
2535.00,2.3023
2534.00,2.3206
2533.00,2.3381
2532.00,2.3546
2531.00,2.3699
2530.00,2.3842
2529.00,2.3979
2528.00,2.4110
2527.00,2.4238
2526.00,2.4364
2525.00,2.4485
2524.00,2.4596
2523.00,2.4695
2522.00,2.4790
2521.00,2.4888
2520.00,2.4987
2519.00,2.5076
2518.00,2.5150
2517.00,2.5215
2516.00,2.5278
2515.00,2.5341
2514.00,2.5402
2513.00,2.5457
2512.00,2.5498
2511.00,2.5527
2510.00,2.5554
2509.00,2.5588
2508.00,2.5628
2507.00,2.5660
2506.00,2.5676
2505.00,2.5677
2504.00,2.5668
2503.00,2.5655
2502.00,2.5649
2501.00,2.5654
2500.00,2.5670
2499.00,2.5683
2498.00,2.5683
2497.00,2.5672
2496.00,2.5657
2495.00,2.5642
2494.00,2.5626
2493.00,2.5603
2492.00,2.5563
2491.00,2.5510
2490.00,2.5454
2489.00,2.5402
2488.00,2.5353
2487.00,2.5297
2486.00,2.5230
2485.00,2.5155
2484.00,2.5072
2483.00,2.4985
2482.00,2.4896
2481.00,2.4813
2480.00,2.4735
2479.00,2.4647
2478.00,2.4539
2477.00,2.4411
2476.00,2.4270
2475.00,2.4127
2474.00,2.3984
2473.00,2.3841
2472.00,2.3696
2471.00,2.3545
2470.00,2.3386
2469.00,2.3217
2468.00,2.3036
2467.00,2.2838
2466.00,2.2625
2465.00,2.2402
2464.00,2.2172
2463.00,2.1935
2462.00,2.1689
2461.00,2.1432
2460.00,2.1161
2459.00,2.0874
2458.00,2.0573
2457.00,2.0257
2456.00,1.9925
2455.00,1.9574
2454.00,1.9205
2453.00,1.8820
2452.00,1.8424
2451.00,1.8018
2450.00,1.7600
2449.00,1.7171
2448.00,1.6736
2447.00,1.6300
2446.00,1.5871
2445.00,1.5454
2444.00,1.5054
2443.00,1.4675
2442.00,1.4322
2441.00,1.4000
2440.00,1.3714
2439.00,1.3468
2438.00,1.3264
2437.00,1.3108
2436.00,1.3002
2435.00,1.2949
2434.00,1.2951
2433.00,1.3008
2432.00,1.3118
2431.00,1.3279
2430.00,1.3484
2429.00,1.3730
2428.00,1.4012
2427.00,1.4326
2426.00,1.4665
2425.00,1.5024
2424.00,1.5399
2423.00,1.5786
2422.00,1.6181
2421.00,1.6580
2420.00,1.6980
2419.00,1.7377
2418.00,1.7769
2417.00,1.8152
2416.00,1.8525
2415.00,1.8888
2414.00,1.9240
2413.00,1.9578
2412.00,1.9903
2411.00,2.0214
2410.00,2.0512
2409.00,2.0798
2408.00,2.1069
2407.00,2.1328
2406.00,2.1576
2405.00,2.1818
2404.00,2.2060
2403.00,2.2301
2402.00,2.2538
2401.00,2.2762
2400.00,2.2975
2399.00,2.3181
2398.00,2.3386
2397.00,2.3589
2396.00,2.3786
2395.00,2.3973
2394.00,2.4161
2393.00,2.4340
2392.00,2.4532
2391.00,2.4698
2390.00,2.4931
2389.00,2.5003
2388.00,2.5048
2387.00,2.5203
2386.00,2.5291
2385.00,2.5396
2384.00,2.5491
2383.00,2.5608
2382.00,2.5730
2381.00,2.5849
2380.00,2.5952
2379.00,2.6037
2378.00,2.6113
2377.00,2.6191
2376.00,2.6277
2375.00,2.6371
2374.00,2.6462
2373.00,2.6539
2372.00,2.6596
2371.00,2.6642
2370.00,2.6687
2369.00,2.6733
2368.00,2.6774
2367.00,2.6806
2366.00,2.6830
2365.00,2.6847
2364.00,2.6851
2363.00,2.6840
2362.00,2.6820
2361.00,2.6796
2360.00,2.6769
2359.00,2.6739
2358.00,2.6718
2357.00,2.6707
2356.00,2.6698
2355.00,2.6676
2354.00,2.6641
2353.00,2.6601
2352.00,2.6564
2351.00,2.6528
2350.00,2.6488
2349.00,2.6437
2348.00,2.6370
2347.00,2.6289
2346.00,2.6205
2345.00,2.6128
2344.00,2.6058
2343.00,2.5985
2342.00,2.5893
2341.00,2.5779
2340.00,2.5645
2339.00,2.5501
2338.00,2.5356
2337.00,2.5212
2336.00,2.5073
2335.00,2.4907
2334.00,2.4783
2333.00,2.4552
2332.00,2.4492
2331.00,2.4117
2330.00,2.4293
2329.00,2.2940
2328.00,2.2019
2327.00,2.2256
2326.00,2.2233
2325.00,2.2346
2324.00,2.2262
2323.00,2.2085
2322.00,2.1855
2321.00,2.1519
2320.00,2.1181
2319.00,2.0827
2318.00,2.0618
2317.00,2.0528
2316.00,2.0531
2315.00,2.0496
2314.00,2.0358
2313.00,2.0103
2312.00,1.9765
2311.00,1.9389
2310.00,1.9004
2309.00,1.8634
2308.00,1.8303
2307.00,1.8044
2306.00,1.7899
2305.00,1.7888
2304.00,1.8025
2303.00,1.8297
2302.00,1.8680
2301.00,1.9172
2300.00,1.9741
2299.00,2.0392
2298.00,2.1067
2297.00,2.1762
2296.00,2.2400
2295.00,2.2953
2294.00,2.3324
2293.00,2.3460
2292.00,2.3307
2291.00,2.2898
2290.00,2.2297
2289.00,2.1604
2288.00,2.0903
2287.00,2.0271
2286.00,1.9757
2285.00,1.9390
2284.00,1.9179
2283.00,1.9111
2282.00,1.9167
2281.00,1.9328
2280.00,1.9585
2279.00,1.9918
2278.00,2.0314
2277.00,2.0759
2276.00,2.1238
2275.00,2.1739
2274.00,2.2247
2273.00,2.2756
2272.00,2.3256
2271.00,2.3740
2270.00,2.4201
2269.00,2.4643
2268.00,2.5071
2267.00,2.5494
2266.00,2.5916
2265.00,2.6347
2264.00,2.6778
2263.00,2.7204
2262.00,2.7627
2261.00,2.8074
2260.00,2.8597
2259.00,2.9255
2258.00,3.0121
2257.00,3.1258
2256.00,3.2700
2255.00,3.4370
2254.00,3.5891
2253.00,3.6482
2252.00,3.5704
2251.00,3.4111
2250.00,3.2306
2249.00,3.0520
2248.00,2.8826
2247.00,2.7276
2246.00,2.5920
2245.00,2.4800
2244.00,2.3935
2243.00,2.3329
2242.00,2.2969
2241.00,2.2830
2240.00,2.2876
2239.00,2.3062
2238.00,2.3345
2237.00,2.3686
2236.00,2.4054
2235.00,2.4428
2234.00,2.4794
2233.00,2.5141
2232.00,2.5460
2231.00,2.5743
2230.00,2.5993
2229.00,2.6221
2228.00,2.6430
2227.00,2.6619
2226.00,2.6784
2225.00,2.6928
2224.00,2.7056
2223.00,2.7174
2222.00,2.7285
2221.00,2.7385
2220.00,2.7470
2219.00,2.7539
2218.00,2.7598
2217.00,2.7655
2216.00,2.7706
2215.00,2.7745
2214.00,2.7775
2213.00,2.7811
2212.00,2.7858
2211.00,2.7899
2210.00,2.7922
2209.00,2.7926
2208.00,2.7922
2207.00,2.7918
2206.00,2.7916
2205.00,2.7911
2204.00,2.7897
2203.00,2.7869
2202.00,2.7828
2201.00,2.7781
2200.00,2.7734
2199.00,2.7687
2198.00,2.7641
2197.00,2.7597
2196.00,2.7549
2195.00,2.7484
2194.00,2.7396
2193.00,2.7294
2192.00,2.7195
2191.00,2.7105
2190.00,2.7016
2189.00,2.6917
2188.00,2.6804
2187.00,2.6677
2186.00,2.6545
2185.00,2.6414
2184.00,2.6287
2183.00,2.6161
2182.00,2.6027
2181.00,2.5881
2180.00,2.5724
2179.00,2.5556
2178.00,2.5372
2177.00,2.5173
2176.00,2.4965
2175.00,2.4752
2174.00,2.4532
2173.00,2.4297
2172.00,2.4042
2171.00,2.3773
2170.00,2.3496
2169.00,2.3211
2168.00,2.2913
2167.00,2.2596
2166.00,2.2257
2165.00,2.1896
2164.00,2.1509
2163.00,2.1095
2162.00,2.0652
2161.00,2.0185
2160.00,1.9698
2159.00,1.9191
2158.00,1.8664
2157.00,1.8120
2156.00,1.7565
2155.00,1.7007
2154.00,1.6454
2153.00,1.5917
2152.00,1.5405
2151.00,1.4926
2150.00,1.4490
2149.00,1.4106
2148.00,1.3781
2147.00,1.3523
2146.00,1.3337
2145.00,1.3230
2144.00,1.3204
2143.00,1.3261
2142.00,1.3397
2141.00,1.3607
2140.00,1.3884
2139.00,1.4216
2138.00,1.4594
2137.00,1.5008
2136.00,1.5451
2135.00,1.5914
2134.00,1.6392
2133.00,1.6881
2132.00,1.7376
2131.00,1.7873
2130.00,1.8368
2129.00,1.8859
2128.00,1.9345
2127.00,1.9824
2126.00,2.0291
2125.00,2.0744
2124.00,2.1179
2123.00,2.1596
2122.00,2.1996
2121.00,2.2380
2120.00,2.2749
2119.00,2.3103
2118.00,2.3440
2117.00,2.3759
2116.00,2.4059
2115.00,2.4343
2114.00,2.4615
2113.00,2.4872
2112.00,2.5109
2111.00,2.5328
2110.00,2.5538
2109.00,2.5748
2108.00,2.5948
2107.00,2.6129
2106.00,2.6292
2105.00,2.6456
2104.00,2.6631
2103.00,2.6814
2102.00,2.6986
2101.00,2.7138
2100.00,2.7268
2099.00,2.7386
2098.00,2.7506
2097.00,2.7642
2096.00,2.7800
2095.00,2.7964
2094.00,2.8102
2093.00,2.8190
2092.00,2.8234
2091.00,2.8261
2090.00,2.8292
2089.00,2.8328
2088.00,2.8369
2087.00,2.8421
2086.00,2.8493
2085.00,2.8580
2084.00,2.8660
2083.00,2.8719
2082.00,2.8763
2081.00,2.8806
2080.00,2.8853
2079.00,2.8895
2078.00,2.8915
2077.00,2.8905
2076.00,2.8875
2075.00,2.8852
2074.00,2.8862
2073.00,2.8911
2072.00,2.8979
2071.00,2.9035
2070.00,2.9050
2069.00,2.9016
2068.00,2.8955
2067.00,2.8903
2066.00,2.8874
2065.00,2.8854
2064.00,2.8819
2063.00,2.8773
2062.00,2.8730
2061.00,2.8687
2060.00,2.8622
2059.00,2.8525
2058.00,2.8419
2057.00,2.8332
2056.00,2.8266
2055.00,2.8206
2054.00,2.8142
2053.00,2.8074
2052.00,2.7999
2051.00,2.7905
2050.00,2.7789
2049.00,2.7660
2048.00,2.7536
2047.00,2.7422
2046.00,2.7313
2045.00,2.7193
2044.00,2.7051
2043.00,2.6890
2042.00,2.6720
2041.00,2.6549
2040.00,2.6372
2039.00,2.6184
2038.00,2.5986
2037.00,2.5783
2036.00,2.5573
2035.00,2.5347
2034.00,2.5103
2033.00,2.4843
2032.00,2.4574
2031.00,2.4295
2030.00,2.4002
2029.00,2.3692
2028.00,2.3363
2027.00,2.3014
2026.00,2.2646
2025.00,2.2259
2024.00,2.1854
2023.00,2.1430
2022.00,2.0981
2021.00,2.0501
2020.00,1.9992
2019.00,1.9462
2018.00,1.8919
2017.00,1.8366
2016.00,1.7806
2015.00,1.7247
2014.00,1.6703
2013.00,1.6187
2012.00,1.5707
2011.00,1.5270
2010.00,1.4883
2009.00,1.4557
2008.00,1.4300
2007.00,1.4119
2006.00,1.4018
2005.00,1.4000
2004.00,1.4068
2003.00,1.4216
2002.00,1.4439
2001.00,1.4731
2000.00,1.5083
1999.00,1.5483
1998.00,1.5920
1997.00,1.6381
1996.00,1.6856
1995.00,1.7340
1994.00,1.7836
1993.00,1.8351
1992.00,1.8881
1991.00,1.9409
1990.00,1.9925
1989.00,2.0429
1988.00,2.0922
1987.00,2.1400
1986.00,2.1861
1985.00,2.2304
1984.00,2.2728
1983.00,2.3127
1982.00,2.3502
1981.00,2.3860
1980.00,2.4205
1979.00,2.4530
1978.00,2.4829
1977.00,2.5105
1976.00,2.5374
1975.00,2.5646
1974.00,2.5920
1973.00,2.6190
1972.00,2.6440
1971.00,2.6656
1970.00,2.6843
1969.00,2.7021
1968.00,2.7213
1967.00,2.7417
1966.00,2.7607
1965.00,2.7770
1964.00,2.7918
1963.00,2.8074
1962.00,2.8235
1961.00,2.8382
1960.00,2.8502
1959.00,2.8611
1958.00,2.8728
1957.00,2.8855
1956.00,2.8971
1955.00,2.9059
1954.00,2.9118
1953.00,2.9170
1952.00,2.9238
1951.00,2.9329
1950.00,2.9423
1949.00,2.9499
1948.00,2.9552
1947.00,2.9596
1946.00,2.9642
1945.00,2.9688
1944.00,2.9728
1943.00,2.9763
1942.00,2.9796
1941.00,2.9831
1940.00,2.9873
1939.00,2.9917
1938.00,2.9946
1937.00,2.9956
1936.00,2.9963
1935.00,2.9988
1934.00,3.0029
1933.00,3.0052
1932.00,3.0031
1931.00,2.9973
1930.00,2.9913
1929.00,2.9883
1928.00,2.9876
1927.00,2.9859
1926.00,2.9809
1925.00,2.9745
1924.00,2.9709
1923.00,2.9705
1922.00,2.9687
1921.00,2.9613
1920.00,2.9504
1919.00,2.9418
1918.00,2.9388
1917.00,2.9383
1916.00,2.9358
1915.00,2.9297
1914.00,2.9211
1913.00,2.9117
1912.00,2.9027
1911.00,2.8940
1910.00,2.8847
1909.00,2.8737
1908.00,2.8608
1907.00,2.8471
1906.00,2.8326
1905.00,2.8167
1904.00,2.7995
1903.00,2.7820
1902.00,2.7650
1901.00,2.7489
1900.00,2.7331
1899.00,2.7167
1898.00,2.6986
1897.00,2.6781
1896.00,2.6556
1895.00,2.6312
1894.00,2.6046
1893.00,2.5758
1892.00,2.5455
1891.00,2.5148
1890.00,2.4836
1889.00,2.4509
1888.00,2.4159
1887.00,2.3792
1886.00,2.3412
1885.00,2.3014
1884.00,2.2591
1883.00,2.2137
1882.00,2.1657
1881.00,2.1156
1880.00,2.0636
1879.00,2.0100
1878.00,1.9552
1877.00,1.9000
1876.00,1.8456
1875.00,1.7926
1874.00,1.7407
1873.00,1.6898
1872.00,1.6409
1871.00,1.5971
1870.00,1.5624
1869.00,1.5389
1868.00,1.5241
1867.00,1.5156
1866.00,1.5141
1865.00,1.5213
1864.00,1.5377
1863.00,1.5625
1862.00,1.5946
1861.00,1.6333
1860.00,1.6776
1859.00,1.7258
1858.00,1.7765
1857.00,1.8292
1856.00,1.8829
1855.00,1.9372
1854.00,1.9917
1853.00,2.0463
1852.00,2.0996
1851.00,2.1508
1850.00,2.2006
1849.00,2.2488
1848.00,2.2927
1847.00,2.3307
1846.00,2.3664
1845.00,2.4058
1844.00,2.4505
1843.00,2.4948
1842.00,2.5352
1841.00,2.5720
1840.00,2.6052
1839.00,2.6346
1838.00,2.6609
1837.00,2.6860
1836.00,2.7108
1835.00,2.7338
1834.00,2.7535
1833.00,2.7709
1832.00,2.7891
1831.00,2.8118
1830.00,2.8382
1829.00,2.8616
1828.00,2.8778
1827.00,2.8897
1826.00,2.9029
1825.00,2.9200
1824.00,2.9388
1823.00,2.9557
1822.00,2.9687
1821.00,2.9775
1820.00,2.9841
1819.00,2.9929
1818.00,3.0070
1817.00,3.0239
1816.00,3.0376
1815.00,3.0447
1814.00,3.0491
1813.00,3.0562
1812.00,3.0664
1811.00,3.0753
1810.00,3.0792
1809.00,3.0807
1808.00,3.0842
1807.00,3.0905
1806.00,3.0969
1805.00,3.0996
1804.00,3.0966
1803.00,3.0901
1802.00,3.0863
1801.00,3.0897
1800.00,3.0988
1799.00,3.1086
1798.00,3.1150
1797.00,3.1167
1796.00,3.1145
1795.00,3.1115
1794.00,3.1114
1793.00,3.1136
1792.00,3.1124
1791.00,3.1047
1790.00,3.0955
1789.00,3.0900
1788.00,3.0865
1787.00,3.0825
1786.00,3.0791
1785.00,3.0774
1784.00,3.0751
1783.00,3.0694
1782.00,3.0633
1781.00,3.0588
1780.00,3.0537
1779.00,3.0450
1778.00,3.0332
1777.00,3.0194
1776.00,3.0021
1775.00,2.9815
1774.00,2.9632
1773.00,2.9518
1772.00,2.9424
1771.00,2.9266
1770.00,2.9058
1769.00,2.8868
1768.00,2.8716
1767.00,2.8581
1766.00,2.8433
1765.00,2.8249
1764.00,2.8023
1763.00,2.7774
1762.00,2.7528
1761.00,2.7267
1760.00,2.6968
1759.00,2.6640
1758.00,2.6315
1757.00,2.6009
1756.00,2.5685
1755.00,2.5316
1754.00,2.4916
1753.00,2.4509
1752.00,2.4116
1751.00,2.3757
1750.00,2.3435
1749.00,2.3144
1748.00,2.2866
1747.00,2.2588
1746.00,2.2334
1745.00,2.2127
1744.00,2.1972
1743.00,2.1853
1742.00,2.1767
1741.00,2.1754
1740.00,2.1838
1739.00,2.1961
1738.00,2.2027
1737.00,2.2037
1736.00,2.2087
1735.00,2.2324
1734.00,2.2784
1733.00,2.3318
1732.00,2.3825
1731.00,2.4347
1730.00,2.4910
1729.00,2.5503
1728.00,2.6087
1727.00,2.6659
1726.00,2.7254
1725.00,2.7899
1724.00,2.8595
1723.00,2.9308
1722.00,2.9975
1721.00,3.0553
1720.00,3.1080
1719.00,3.1698
1718.00,3.2527
1717.00,3.3490
1716.00,3.4395
1715.00,3.5186
1714.00,3.5906
1713.00,3.6533
1712.00,3.6984
1711.00,3.7308
1710.00,3.7664
1709.00,3.8042
1708.00,3.8192
1707.00,3.7948
1706.00,3.7353
1705.00,3.6424
1704.00,3.5201
1703.00,3.3821
1702.00,3.2370
1701.00,3.0848
1700.00,2.9350
1699.00,2.8011
1698.00,2.6892
1697.00,2.5966
1696.00,2.5165
1695.00,2.4471
1694.00,2.3959
1693.00,2.3698
1692.00,2.3667
1691.00,2.3815
1690.00,2.4091
1689.00,2.4428
1688.00,2.4755
1687.00,2.5058
1686.00,2.5407
1685.00,2.5938
1684.00,2.6605
1683.00,2.7148
1682.00,2.7571
1681.00,2.8009
1680.00,2.8433
1679.00,2.8758
1678.00,2.8943
1677.00,2.9072
1676.00,2.9275
1675.00,2.9583
1674.00,2.9898
1673.00,3.0140
1672.00,3.0327
1671.00,3.0512
1670.00,3.0711
1669.00,3.0886
1668.00,3.1019
1667.00,3.1150
1666.00,3.1298
1665.00,3.1449
1664.00,3.1605
1663.00,3.1758
1662.00,3.1892
1661.00,3.2013
1660.00,3.2133
1659.00,3.2244
1658.00,3.2308
1657.00,3.2274
1656.00,3.2129
1655.00,3.1936
1654.00,3.1879
1653.00,3.1962
1652.00,3.1982
1651.00,3.1983
1650.00,3.2031
1649.00,3.2100
1648.00,3.2253
1647.00,3.2460
1646.00,3.2605
1645.00,3.2644
1644.00,3.2644
1643.00,3.2618
1642.00,3.2587
1641.00,3.2569
1640.00,3.2533
1639.00,3.2440
1638.00,3.2290
1637.00,3.2168
1636.00,3.2137
1635.00,3.2149
1634.00,3.2162
1633.00,3.2192
1632.00,3.2206
1631.00,3.2164
1630.00,3.2085
1629.00,3.2013
1628.00,3.1958
1627.00,3.1888
1626.00,3.1796
1625.00,3.1717
1624.00,3.1690
1623.00,3.1684
1622.00,3.1616
1621.00,3.1446
1620.00,3.1199
1619.00,3.0946
1618.00,3.0772
1617.00,3.0695
1616.00,3.0610
1615.00,3.0436
1614.00,3.0222
1613.00,3.0029
1612.00,2.9865
1611.00,2.9705
1610.00,2.9534
1609.00,2.9356
1608.00,2.9173
1607.00,2.8972
1606.00,2.8739
1605.00,2.8469
1604.00,2.8169
1603.00,2.7855
1602.00,2.7521
1601.00,2.7148
1600.00,2.6738
1599.00,2.6321
1598.00,2.5913
1597.00,2.5504
1596.00,2.5078
1595.00,2.4632
1594.00,2.4175
1593.00,2.3709
1592.00,2.3235
1591.00,2.2759
1590.00,2.2292
1589.00,2.1842
1588.00,2.1419
1587.00,2.1036
1586.00,2.0709
1585.00,2.0454
1584.00,2.0274
1583.00,2.0180
1582.00,2.0182
1581.00,2.0257
1580.00,2.0356
1579.00,2.0474
1578.00,2.0669
1577.00,2.1011
1576.00,2.1464
1575.00,2.1890
1574.00,2.2237
1573.00,2.2544
1572.00,2.2865
1571.00,2.3271
1570.00,2.3798
1569.00,2.4369
1568.00,2.4877
1567.00,2.5327
1566.00,2.5772
1565.00,2.6230
1564.00,2.6641
1563.00,2.6908
1562.00,2.7015
1561.00,2.7050
1560.00,2.7290
1559.00,2.7853
1558.00,2.8316
1557.00,2.8577
1556.00,2.8875
1555.00,2.9186
1554.00,2.9512
1553.00,2.9836
1552.00,3.0154
1551.00,3.0440
1550.00,3.0666
1549.00,3.0833
1548.00,3.0962
1547.00,3.1072
1546.00,3.1182
1545.00,3.1321
1544.00,3.1487
1543.00,3.1652
1542.00,3.1833
1541.00,3.2120
1540.00,3.2488
1539.00,3.2736
1538.00,3.2822
1537.00,3.2834
1536.00,3.2809
1535.00,3.2808
1534.00,3.2888
1533.00,3.3022
1532.00,3.3168
1531.00,3.3345
1530.00,3.3531
1529.00,3.3653
1528.00,3.3669
1527.00,3.3610
1526.00,3.3560
1525.00,3.3559
1524.00,3.3574
1523.00,3.3573
1522.00,3.3575
1521.00,3.3586
1520.00,3.3608
1519.00,3.3690
1518.00,3.3841
1517.00,3.3974
1516.00,3.3961
1515.00,3.3829
1514.00,3.3772
1513.00,3.3894
1512.00,3.4081
1511.00,3.4089
1510.00,3.3860
1509.00,3.3614
1508.00,3.3610
1507.00,3.3828
1506.00,3.3940
1505.00,3.3933
1504.00,3.4003
1503.00,3.4120
1502.00,3.4196
1501.00,3.4179
1500.00,3.4047
1499.00,3.3798
1498.00,3.3487
1497.00,3.3225
1496.00,3.3107
1495.00,3.3139
1494.00,3.3250
1493.00,3.3332
1492.00,3.3301
1491.00,3.3156
1490.00,3.2986
1489.00,3.2873
1488.00,3.2822
1487.00,3.2751
1486.00,3.2598
1485.00,3.2421
1484.00,3.2298
1483.00,3.2242
1482.00,3.2210
1481.00,3.2153
1480.00,3.2046
1479.00,3.1896
1478.00,3.1721
1477.00,3.1526
1476.00,3.1288
1475.00,3.0988
1474.00,3.0695
1473.00,3.0531
1472.00,3.0530
1471.00,3.0630
1470.00,3.0748
1469.00,3.0823
1468.00,3.0845
1467.00,3.0851
1466.00,3.0900
1465.00,3.1031
1464.00,3.1222
1463.00,3.1437
1462.00,3.1646
1461.00,3.1822
1460.00,3.1974
1459.00,3.2181
1458.00,3.2583
1457.00,3.3221
1456.00,3.3921
1455.00,3.4447
1454.00,3.4730
1453.00,3.4908
1452.00,3.5146
1451.00,3.5450
1450.00,3.5709
1449.00,3.5857
1448.00,3.5933
1447.00,3.5966
1446.00,3.5966
1445.00,3.5934
1444.00,3.5818
1443.00,3.5554
1442.00,3.5182
1441.00,3.4856
1440.00,3.4714
1439.00,3.4777
1438.00,3.4927
1437.00,3.4960
1436.00,3.4780
1435.00,3.4563
1434.00,3.4498
1433.00,3.4568
1432.00,3.4633
1431.00,3.4599
1430.00,3.4497
1429.00,3.4404
1428.00,3.4354
1427.00,3.4329
1426.00,3.4341
1425.00,3.4405
1424.00,3.4460
1423.00,3.4369
1422.00,3.4098
1421.00,3.3789
1420.00,3.3649
1419.00,3.3793
1418.00,3.4120
1417.00,3.4396
1416.00,3.4461
1415.00,3.4311
1414.00,3.4071
1413.00,3.3847
1412.00,3.3663
1411.00,3.3497
1410.00,3.3344
1409.00,3.3227
1408.00,3.3153
1407.00,3.3087
1406.00,3.3008
1405.00,3.2948
1404.00,3.2940
1403.00,3.2968
1402.00,3.2987
1401.00,3.2996
1400.00,3.3049
1399.00,3.3174
1398.00,3.3326
1397.00,3.3454
1396.00,3.3565
1395.00,3.3693
1394.00,3.3851
1393.00,3.4010
1392.00,3.4120
1391.00,3.4153
1390.00,3.4150
1389.00,3.4208
1388.00,3.4417
1387.00,3.4773
1386.00,3.5181
1385.00,3.5535
1384.00,3.5801
1383.00,3.6050
1382.00,3.6378
1381.00,3.6797
1380.00,3.7216
1379.00,3.7536
1378.00,3.7793
1377.00,3.8101
1376.00,3.8398
1375.00,3.8390
1374.00,3.7870
1373.00,3.7017
1372.00,3.6184
1371.00,3.5530
1370.00,3.5050
1369.00,3.4699
1368.00,3.4443
1367.00,3.4271
1366.00,3.4210
1365.00,3.4290
1364.00,3.4483
1363.00,3.4693
1362.00,3.4830
1361.00,3.4900
1360.00,3.4953
1359.00,3.5002
1358.00,3.5053
1357.00,3.5146
1356.00,3.5301
1355.00,3.5472
1354.00,3.5586
1353.00,3.5647
1352.00,3.5704
1351.00,3.5754
1350.00,3.5750
1349.00,3.5704
1348.00,3.5695
1347.00,3.5780
1346.00,3.5923
1345.00,3.6020
1344.00,3.5987
1343.00,3.5850
1342.00,3.5722
1341.00,3.5705
1340.00,3.5817
1339.00,3.5954
1338.00,3.5964
1337.00,3.5810
1336.00,3.5614
1335.00,3.5499
1334.00,3.5489
1333.00,3.5545
1332.00,3.5611
1331.00,3.5612
1330.00,3.5525
1329.00,3.5422
1328.00,3.5349
1327.00,3.5281
1326.00,3.5196
1325.00,3.5102
1324.00,3.5006
1323.00,3.4915
1322.00,3.4869
1321.00,3.4899
1320.00,3.4942
1319.00,3.4877
1318.00,3.4701
1317.00,3.4548
1316.00,3.4506
1315.00,3.4531
1314.00,3.4534
1313.00,3.4493
1312.00,3.4442
1311.00,3.4377
1310.00,3.4268
1309.00,3.4131
1308.00,3.4005
1307.00,3.3891
1306.00,3.3753
1305.00,3.3567
1304.00,3.3321
1303.00,3.2984
1302.00,3.2541
1301.00,3.2053
1300.00,3.1596
1299.00,3.1197
1298.00,3.0834
1297.00,3.0462
1296.00,3.0054
1295.00,2.9608
1294.00,2.9140
1293.00,2.8657
1292.00,2.8145
1291.00,2.7584
1290.00,2.6977
1289.00,2.6356
1288.00,2.5760
1287.00,2.5208
1286.00,2.4704
1285.00,2.4249
1284.00,2.3861
1283.00,2.3568
1282.00,2.3396
1281.00,2.3357
1280.00,2.3446
1279.00,2.3639
1278.00,2.3900
1277.00,2.4193
1276.00,2.4495
1275.00,2.4798
1274.00,2.5101
1273.00,2.5411
1272.00,2.5746
1271.00,2.6120
1270.00,2.6533
1269.00,2.6978
1268.00,2.7442
1267.00,2.7914
1266.00,2.8375
1265.00,2.8805
1264.00,2.9202
1263.00,2.9581
1262.00,2.9959
1261.00,3.0354
1260.00,3.0798
1259.00,3.1319
1258.00,3.1876
1257.00,3.2346
1256.00,3.2643
1255.00,3.2837
1254.00,3.3077
1253.00,3.3413
1252.00,3.3749
1251.00,3.3964
1250.00,3.4057
1249.00,3.4117
1248.00,3.4202
1247.00,3.4316
1246.00,3.4481
1245.00,3.4722
1244.00,3.5022
1243.00,3.5322
1242.00,3.5535
1241.00,3.5665
1240.00,3.5859
1239.00,3.6264
1238.00,3.6875
1237.00,3.7430
1236.00,3.7584
1235.00,3.7409
1234.00,3.7232
1233.00,3.7206
1232.00,3.7269
1231.00,3.7303
1230.00,3.7354
1229.00,3.7604
1228.00,3.8150
1227.00,3.8792
1226.00,3.9088
1225.00,3.8910
1224.00,3.8533
1223.00,3.8124
1222.00,3.7773
1221.00,3.7576
1220.00,3.7523
1219.00,3.7554
1218.00,3.7679
1217.00,3.7885
1216.00,3.7980
1215.00,3.7754
1214.00,3.7322
1213.00,3.7039
1212.00,3.7111
1211.00,3.7412
1210.00,3.7611
1209.00,3.7558
1208.00,3.7433
1207.00,3.7453
1206.00,3.7599
1205.00,3.7651
1204.00,3.7563
1203.00,3.7566
1202.00,3.7818
1201.00,3.8125
1200.00,3.8089
1199.00,3.7710
1198.00,3.7388
1197.00,3.7326
1196.00,3.7392
1195.00,3.7388
1194.00,3.7316
1193.00,3.7238
1192.00,3.7071
1191.00,3.6753
1190.00,3.6450
1189.00,3.6362
1188.00,3.6446
1187.00,3.6454
1186.00,3.6286
1185.00,3.6156
1184.00,3.6260
1183.00,3.6499
1182.00,3.6594
1181.00,3.6495
1180.00,3.6397
1179.00,3.6334
1178.00,3.6143
1177.00,3.5831
1176.00,3.5607
1175.00,3.5609
1174.00,3.5759
1173.00,3.5751
1172.00,3.5386
1171.00,3.4850
1170.00,3.4459
1169.00,3.4365
1168.00,3.4400
1167.00,3.4226
1166.00,3.3758
1165.00,3.3241
1164.00,3.2877
1163.00,3.2628
1162.00,3.2341
1161.00,3.1946
1160.00,3.1508
1159.00,3.1103
1158.00,3.0728
1157.00,3.0332
1156.00,2.9892
1155.00,2.9412
1154.00,2.8903
1153.00,2.8375
1152.00,2.7856
1151.00,2.7387
1150.00,2.6996
1149.00,2.6677
1148.00,2.6408
1147.00,2.6186
1146.00,2.6041
1145.00,2.6003
1144.00,2.6069
1143.00,2.6213
1142.00,2.6421
1141.00,2.6711
1140.00,2.7104
1139.00,2.7588
1138.00,2.8119
1137.00,2.8668
1136.00,2.9247
1135.00,2.9872
1134.00,3.0516
1133.00,3.1114
1132.00,3.1631
1131.00,3.2099
1130.00,3.2583
1129.00,3.3126
1128.00,3.3725
1127.00,3.4321
1126.00,3.4839
1125.00,3.5229
1124.00,3.5421
1123.00,3.5340
1122.00,3.5109
1121.00,3.5032
1120.00,3.5322
1119.00,3.5926
1118.00,3.6478
1117.00,3.6590
1116.00,3.6422
1115.00,3.6384
1114.00,3.6606
1113.00,3.6935
1112.00,3.7111
1111.00,3.7013
1110.00,3.6820
1109.00,3.6869
1108.00,3.7401
1107.00,3.8398
1106.00,3.9576
1105.00,4.0561
1104.00,4.0898
1103.00,4.0415
1102.00,3.9506
1101.00,3.8598
1100.00,3.8068
1099.00,3.8105
1098.00,3.8587
1097.00,3.9355
1096.00,4.0363
1095.00,4.1306
1094.00,4.1505
1093.00,4.0839
1092.00,4.0109
1091.00,4.0017
1090.00,4.0518
1089.00,4.0893
1088.00,4.1044
1087.00,4.1593
1086.00,4.2271
1085.00,4.2097
1084.00,4.1626
1083.00,4.1219
1082.00,4.0162
1081.00,3.9020
1080.00,3.8569
1079.00,3.8918
1078.00,3.9926
1077.00,4.1120
1076.00,4.1483
1075.00,4.0607
1074.00,3.9484
1073.00,3.8749
1072.00,3.8466
1071.00,3.8613
1070.00,3.9168
1069.00,3.9871
1068.00,4.0033
1067.00,3.9418
1066.00,3.8618
1065.00,3.8042
1064.00,3.7913
1063.00,3.8409
1062.00,3.9801
1061.00,4.1718
1060.00,4.1542
1059.00,4.0316
1058.00,4.0054
1057.00,4.0981
1056.00,4.3105
1055.00,4.4396
1054.00,4.2903
1053.00,4.1311
1052.00,4.0066
1051.00,3.8862
1050.00,3.7695
1049.00,3.6864
1048.00,3.6673
1047.00,3.7243
1046.00,3.8702
1045.00,4.1348
1044.00,4.6139
1043.00,5.0494
1042.00,4.4380
1041.00,4.1130
1040.00,3.9640
1039.00,3.9082
1038.00,3.9017
1037.00,3.9132
1036.00,3.9182
1035.00,3.9055
1034.00,3.8732
1033.00,3.8038
1032.00,3.7242
1031.00,3.6813
1030.00,3.6928
1029.00,3.7600
1028.00,3.8723
1027.00,3.9762
1026.00,3.9678
1025.00,3.8562
1024.00,3.7616
1023.00,3.7395
1022.00,3.7860
1021.00,3.8735
1020.00,3.9572
1019.00,3.9734
1018.00,3.9069
1017.00,3.8279
1016.00,3.7890
1015.00,3.7892
1014.00,3.8022
1013.00,3.8122
1012.00,3.8092
1011.00,3.7774
1010.00,3.7262
1009.00,3.6831
1008.00,3.6586
1007.00,3.6422
1006.00,3.6229
1005.00,3.5983
1004.00,3.5588
1003.00,3.5033
1002.00,3.4444
1001.00,3.3905
1000.00,3.3485
999.00,3.3203
998.00,3.3029
997.00,3.2940
996.00,3.2920
995.00,3.2963
994.00,3.3071
993.00,3.3235
992.00,3.3414
991.00,3.3591
990.00,3.3827
989.00,3.4221
988.00,3.4779
987.00,3.5364
986.00,3.5834
985.00,3.6229
984.00,3.6647
983.00,3.7027
982.00,3.7341
981.00,3.7691
980.00,3.8107
979.00,3.8521
978.00,3.8986
977.00,3.9847
976.00,4.1518
975.00,4.3511
974.00,4.3629
973.00,4.2024
972.00,4.0401
971.00,3.9593
970.00,3.9790
969.00,4.1197
968.00,4.3017
967.00,4.2217
966.00,4.1385
965.00,4.1988
964.00,4.4741
963.00,4.8612
962.00,4.4527
961.00,4.2960
960.00,4.1202
959.00,3.9101
958.00,3.8018
957.00,3.8035
956.00,3.8780
955.00,3.9654
954.00,4.0578
953.00,4.2016
952.00,4.3480
951.00,4.2397
950.00,4.1377
949.00,4.1535
948.00,4.1525
947.00,4.1081
946.00,4.0970
945.00,4.0916
944.00,4.0540
943.00,4.0352
942.00,4.1090
941.00,4.2711
940.00,4.3992
939.00,4.4351
938.00,4.3588
937.00,4.3136
936.00,4.3348
935.00,4.3201
934.00,4.1869
933.00,4.0125
932.00,3.8972
931.00,3.8406
930.00,3.8343
929.00,3.8882
928.00,4.0118
927.00,4.1855
926.00,4.3342
925.00,4.4221
924.00,4.4408
923.00,4.4280
922.00,4.3472
921.00,4.1109
920.00,3.9513
919.00,3.9174
918.00,3.9611
917.00,3.9939
916.00,3.9416
915.00,3.8679
914.00,3.8385
913.00,3.8536
912.00,3.8915
911.00,3.9626
910.00,4.0714
909.00,4.0996
908.00,4.0808
907.00,4.1405
906.00,4.1380
905.00,4.0623
904.00,4.0603
903.00,4.0549
902.00,4.0035
901.00,3.9881
900.00,4.0106
899.00,4.0298
898.00,4.0212
897.00,3.9863
896.00,3.9548
895.00,3.9534
894.00,3.9755
893.00,3.9842
892.00,3.9602
891.00,3.9159
890.00,3.8596
889.00,3.7961
888.00,3.7437
887.00,3.7276
886.00,3.7541
885.00,3.8038
884.00,3.8427
883.00,3.8308
882.00,3.7954
881.00,3.7839
880.00,3.7722
879.00,3.7489
878.00,3.7519
877.00,3.8257
876.00,3.9518
875.00,3.9623
874.00,3.8763
873.00,3.8266
872.00,3.8222
871.00,3.8487
870.00,3.8895
869.00,3.9524
868.00,4.0682
867.00,4.2880
866.00,4.7265
865.00,5.0375
864.00,4.8879
863.00,4.8443
862.00,4.4578
861.00,4.1310
860.00,3.9090
859.00,3.7797
858.00,3.7433
857.00,3.7841
856.00,3.8626
855.00,3.8778
854.00,3.8024
853.00,3.7545
852.00,3.7769
851.00,3.8389
850.00,3.8974
849.00,3.9216
848.00,3.9171
847.00,3.9303
846.00,3.9713
845.00,3.9698
844.00,3.8643
843.00,3.7465
842.00,3.6943
841.00,3.7217
840.00,3.8186
839.00,3.9667
838.00,4.0794
837.00,4.0654
836.00,4.0780
835.00,4.1441
834.00,4.1078
833.00,3.9734
832.00,3.8595
831.00,3.8182
830.00,3.8634
829.00,3.9984
828.00,4.2056
827.00,4.3411
826.00,4.2215
825.00,4.0447
824.00,3.9516
823.00,3.8959
822.00,3.8077
821.00,3.7271
820.00,3.7245
819.00,3.8345
818.00,4.0496
817.00,4.2389
816.00,4.2228
815.00,4.1716
814.00,4.2517
813.00,4.2583
812.00,4.0918
811.00,4.0834
810.00,4.2015
809.00,4.1379
808.00,4.0121
807.00,3.9712
806.00,3.9448
805.00,3.8674
804.00,3.7651
803.00,3.6959
802.00,3.6933
801.00,3.7748
800.00,3.9493
799.00,4.1159
798.00,4.0531
797.00,3.9128
796.00,3.8105
795.00,3.7577
794.00,3.7379
793.00,3.7283
792.00,3.7192
791.00,3.6972
790.00,3.6527
789.00,3.6119
788.00,3.6149
787.00,3.6694
786.00,3.7338
785.00,3.7444
784.00,3.7196
783.00,3.7449
782.00,3.8724
781.00,4.0570
780.00,4.0588
779.00,3.9047
778.00,3.7663
777.00,3.6965
776.00,3.7068
775.00,3.7681
774.00,3.7922
773.00,3.7419
772.00,3.7053
771.00,3.7307
770.00,3.8137
769.00,3.9261
768.00,4.0021
767.00,3.9978
766.00,3.9149
765.00,3.7856
764.00,3.6835
763.00,3.6463
762.00,3.6715
761.00,3.7246
760.00,3.7563
759.00,3.7470
758.00,3.7355
757.00,3.7651
756.00,3.8031
755.00,3.7779
754.00,3.7126
753.00,3.6511
752.00,3.6169
751.00,3.6309
750.00,3.6945
749.00,3.7833
748.00,3.8553
747.00,3.8691
746.00,3.8390
745.00,3.8364
744.00,3.8926
743.00,3.9796
742.00,4.0362
741.00,4.0145
740.00,3.9279
739.00,3.8473
738.00,3.8198
737.00,3.8368
736.00,3.8643
735.00,3.8768
734.00,3.8779
733.00,3.8873
732.00,3.9193
731.00,3.9673
730.00,3.9907
729.00,3.9454
728.00,3.8479
727.00,3.8053
726.00,3.9068
725.00,4.2364
724.00,4.6652
723.00,4.4020
722.00,4.2306
721.00,4.1549
720.00,4.0310
719.00,3.8836
718.00,3.8523
717.00,3.9512
716.00,4.0885
715.00,4.0906
714.00,3.9793
713.00,3.9222
712.00,3.9164
711.00,3.8984
710.00,3.8142
709.00,3.7274
708.00,3.7047
707.00,3.7303
706.00,3.7654
705.00,3.7970
704.00,3.8801
703.00,3.9879
702.00,3.9274
701.00,3.8659
700.00,3.9220
