Created as New Dataset,Sample 049 By Administrator Date Wednesday, November 24 2021
cm-1,A
7502.00,0.8035
7501.00,0.8088
7500.00,0.8137
7499.00,0.8178
7498.00,0.8209
7497.00,0.8233
7496.00,0.8256
7495.00,0.8276
7494.00,0.8293
7493.00,0.8312
7492.00,0.8338
7491.00,0.8370
7490.00,0.8403
7489.00,0.8432
7488.00,0.8454
7487.00,0.8468
7486.00,0.8467
7485.00,0.8449
7484.00,0.8421
7483.00,0.8395
7482.00,0.8373
7481.00,0.8351
7480.00,0.8324
7479.00,0.8294
7478.00,0.8265
7477.00,0.8238
7476.00,0.8210
7475.00,0.8183
7474.00,0.8155
7473.00,0.8127
7472.00,0.8095
7471.00,0.8058
7470.00,0.8013
7469.00,0.7958
7468.00,0.7894
7467.00,0.7827
7466.00,0.7766
7465.00,0.7706
7464.00,0.7639
7463.00,0.7557
7462.00,0.7466
7461.00,0.7373
7460.00,0.7283
7459.00,0.7194
7458.00,0.7106
7457.00,0.7022
7456.00,0.6945
7455.00,0.6875
7454.00,0.6809
7453.00,0.6744
7452.00,0.6677
7451.00,0.6606
7450.00,0.6534
7449.00,0.6465
7448.00,0.6400
7447.00,0.6338
7446.00,0.6279
7445.00,0.6223
7444.00,0.6164
7443.00,0.6101
7442.00,0.6038
7441.00,0.5978
7440.00,0.5922
7439.00,0.5869
7438.00,0.5817
7437.00,0.5766
7436.00,0.5717
7435.00,0.5672
7434.00,0.5633
7433.00,0.5598
7432.00,0.5566
7431.00,0.5537
7430.00,0.5512
7429.00,0.5493
7428.00,0.5480
7427.00,0.5470
7426.00,0.5464
7425.00,0.5459
7424.00,0.5451
7423.00,0.5439
7422.00,0.5429
7421.00,0.5425
7420.00,0.5427
7419.00,0.5430
7418.00,0.5432
7417.00,0.5437
7416.00,0.5449
7415.00,0.5468
7414.00,0.5491
7413.00,0.5520
7412.00,0.5552
7411.00,0.5588
7410.00,0.5626
7409.00,0.5670
7408.00,0.5720
7407.00,0.5774
7406.00,0.5831
7405.00,0.5891
7404.00,0.5955
7403.00,0.6020
7402.00,0.6087
7401.00,0.6157
7400.00,0.6230
7399.00,0.6303
7398.00,0.6377
7397.00,0.6454
7396.00,0.6535
7395.00,0.6619
7394.00,0.6704
7393.00,0.6789
7392.00,0.6875
7391.00,0.6961
7390.00,0.7044
7389.00,0.7125
7388.00,0.7206
7387.00,0.7293
7386.00,0.7385
7385.00,0.7480
7384.00,0.7574
7383.00,0.7667
7382.00,0.7761
7381.00,0.7859
7380.00,0.7960
7379.00,0.8058
7378.00,0.8150
7377.00,0.8239
7376.00,0.8328
7375.00,0.8418
7374.00,0.8503
7373.00,0.8578
7372.00,0.8648
7371.00,0.8717
7370.00,0.8790
7369.00,0.8868
7368.00,0.8945
7367.00,0.9020
7366.00,0.9092
7365.00,0.9160
7364.00,0.9223
7363.00,0.9283
7362.00,0.9343
7361.00,0.9406
7360.00,0.9472
7359.00,0.9542
7358.00,0.9610
7357.00,0.9673
7356.00,0.9728
7355.00,0.9776
7354.00,0.9822
7353.00,0.9865
7352.00,0.9903
7351.00,0.9936
7350.00,0.9966
7349.00,0.9996
7348.00,1.0021
7347.00,1.0036
7346.00,1.0040
7345.00,1.0043
7344.00,1.0050
7343.00,1.0061
7342.00,1.0069
7341.00,1.0074
7340.00,1.0081
7339.00,1.0089
7338.00,1.0093
7337.00,1.0084
7336.00,1.0060
7335.00,1.0030
7334.00,1.0003
7333.00,0.9979
7332.00,0.9953
7331.00,0.9921
7330.00,0.9887
7329.00,0.9855
7328.00,0.9822
7327.00,0.9783
7326.00,0.9736
7325.00,0.9683
7324.00,0.9630
7323.00,0.9580
7322.00,0.9529
7321.00,0.9476
7320.00,0.9420
7319.00,0.9362
7318.00,0.9300
7317.00,0.9232
7316.00,0.9157
7315.00,0.9077
7314.00,0.8998
7313.00,0.8922
7312.00,0.8848
7311.00,0.8776
7310.00,0.8702
7309.00,0.8623
7308.00,0.8540
7307.00,0.8453
7306.00,0.8364
7305.00,0.8273
7304.00,0.8179
7303.00,0.8086
7302.00,0.7996
7301.00,0.7913
7300.00,0.7836
7299.00,0.7761
7298.00,0.7688
7297.00,0.7614
7296.00,0.7538
7295.00,0.7463
7294.00,0.7389
7293.00,0.7319
7292.00,0.7254
7291.00,0.7192
7290.00,0.7133
7289.00,0.7076
7288.00,0.7023
7287.00,0.6972
7286.00,0.6925
7285.00,0.6881
7284.00,0.6839
7283.00,0.6801
7282.00,0.6767
7281.00,0.6736
7280.00,0.6708
7279.00,0.6686
7278.00,0.6671
7277.00,0.6663
7276.00,0.6659
7275.00,0.6659
7274.00,0.6665
7273.00,0.6678
7272.00,0.6695
7271.00,0.6711
7270.00,0.6728
7269.00,0.6751
7268.00,0.6782
7267.00,0.6820
7266.00,0.6861
7265.00,0.6904
7264.00,0.6949
7263.00,0.6996
7262.00,0.7044
7261.00,0.7095
7260.00,0.7149
7259.00,0.7209
7258.00,0.7275
7257.00,0.7346
7256.00,0.7419
7255.00,0.7493
7254.00,0.7569
7253.00,0.7646
7252.00,0.7723
7251.00,0.7799
7250.00,0.7876
7249.00,0.7954
7248.00,0.8033
7247.00,0.8113
7246.00,0.8193
7245.00,0.8274
7244.00,0.8357
7243.00,0.8440
7242.00,0.8526
7241.00,0.8614
7240.00,0.8702
7239.00,0.8791
7238.00,0.8879
7237.00,0.8968
7236.00,0.9056
7235.00,0.9140
7234.00,0.9217
7233.00,0.9291
7232.00,0.9361
7231.00,0.9431
7230.00,0.9500
7229.00,0.9573
7228.00,0.9650
7227.00,0.9726
7226.00,0.9800
7225.00,0.9871
7224.00,0.9940
7223.00,1.0005
7222.00,1.0064
7221.00,1.0115
7220.00,1.0157
7219.00,1.0198
7218.00,1.0241
7217.00,1.0287
7216.00,1.0329
7215.00,1.0364
7214.00,1.0391
7213.00,1.0417
7212.00,1.0447
7211.00,1.0478
7210.00,1.0505
7209.00,1.0527
7208.00,1.0547
7207.00,1.0566
7206.00,1.0588
7205.00,1.0609
7204.00,1.0627
7203.00,1.0637
7202.00,1.0638
7201.00,1.0631
7200.00,1.0619
7199.00,1.0604
7198.00,1.0590
7197.00,1.0575
7196.00,1.0560
7195.00,1.0548
7194.00,1.0537
7193.00,1.0525
7192.00,1.0507
7191.00,1.0482
7190.00,1.0451
7189.00,1.0414
7188.00,1.0370
7187.00,1.0317
7186.00,1.0258
7185.00,1.0199
7184.00,1.0143
7183.00,1.0084
7182.00,1.0022
7181.00,0.9957
7180.00,0.9894
7179.00,0.9833
7178.00,0.9771
7177.00,0.9708
7176.00,0.9642
7175.00,0.9575
7174.00,0.9507
7173.00,0.9436
7172.00,0.9360
7171.00,0.9277
7170.00,0.9189
7169.00,0.9098
7168.00,0.9007
7167.00,0.8915
7166.00,0.8823
7165.00,0.8732
7164.00,0.8644
7163.00,0.8559
7162.00,0.8476
7161.00,0.8394
7160.00,0.8311
7159.00,0.8227
7158.00,0.8145
7157.00,0.8065
7156.00,0.7988
7155.00,0.7913
7154.00,0.7837
7153.00,0.7763
7152.00,0.7691
7151.00,0.7624
7150.00,0.7561
7149.00,0.7501
7148.00,0.7441
7147.00,0.7383
7146.00,0.7331
7145.00,0.7284
7144.00,0.7242
7143.00,0.7201
7142.00,0.7163
7141.00,0.7128
7140.00,0.7097
7139.00,0.7069
7138.00,0.7047
7137.00,0.7028
7136.00,0.7013
7135.00,0.7002
7134.00,0.6995
7133.00,0.6995
7132.00,0.6998
7131.00,0.7005
7130.00,0.7014
7129.00,0.7027
7128.00,0.7044
7127.00,0.7067
7126.00,0.7096
7125.00,0.7130
7124.00,0.7169
7123.00,0.7210
7122.00,0.7257
7121.00,0.7309
7120.00,0.7366
7119.00,0.7424
7118.00,0.7483
7117.00,0.7545
7116.00,0.7610
7115.00,0.7678
7114.00,0.7748
7113.00,0.7818
7112.00,0.7890
7111.00,0.7964
7110.00,0.8042
7109.00,0.8124
7108.00,0.8206
7107.00,0.8286
7106.00,0.8367
7105.00,0.8451
7104.00,0.8538
7103.00,0.8624
7102.00,0.8711
7101.00,0.8802
7100.00,0.8896
7099.00,0.8988
7098.00,0.9077
7097.00,0.9164
7096.00,0.9249
7095.00,0.9332
7094.00,0.9411
7093.00,0.9488
7092.00,0.9566
7091.00,0.9647
7090.00,0.9731
7089.00,0.9814
7088.00,0.9897
7087.00,0.9980
7086.00,1.0060
7085.00,1.0134
7084.00,1.0204
7083.00,1.0271
7082.00,1.0339
7081.00,1.0407
7080.00,1.0476
7079.00,1.0544
7078.00,1.0610
7077.00,1.0675
7076.00,1.0735
7075.00,1.0790
7074.00,1.0841
7073.00,1.0885
7072.00,1.0924
7071.00,1.0959
7070.00,1.0997
7069.00,1.1039
7068.00,1.1082
7067.00,1.1124
7066.00,1.1162
7065.00,1.1196
7064.00,1.1224
7063.00,1.1243
7062.00,1.1255
7061.00,1.1264
7060.00,1.1270
7059.00,1.1276
7058.00,1.1280
7057.00,1.1283
7056.00,1.1284
7055.00,1.1282
7054.00,1.1277
7053.00,1.1270
7052.00,1.1257
7051.00,1.1240
7050.00,1.1221
7049.00,1.1205
7048.00,1.1187
7047.00,1.1163
7046.00,1.1130
7045.00,1.1094
7044.00,1.1057
7043.00,1.1016
7042.00,1.0970
7041.00,1.0918
7040.00,1.0863
7039.00,1.0803
7038.00,1.0739
7037.00,1.0673
7036.00,1.0607
7035.00,1.0545
7034.00,1.0484
7033.00,1.0421
7032.00,1.0355
7031.00,1.0285
7030.00,1.0212
7029.00,1.0137
7028.00,1.0059
7027.00,0.9973
7026.00,0.9880
7025.00,0.9783
7024.00,0.9688
7023.00,0.9596
7022.00,0.9504
7021.00,0.9411
7020.00,0.9319
7019.00,0.9230
7018.00,0.9142
7017.00,0.9053
7016.00,0.8961
7015.00,0.8867
7014.00,0.8774
7013.00,0.8686
7012.00,0.8600
7011.00,0.8518
7010.00,0.8437
7009.00,0.8358
7008.00,0.8279
7007.00,0.8201
7006.00,0.8125
7005.00,0.8052
7004.00,0.7982
7003.00,0.7914
7002.00,0.7851
7001.00,0.7796
7000.00,0.7747
6999.00,0.7702
6998.00,0.7659
6997.00,0.7619
6996.00,0.7585
6995.00,0.7556
6994.00,0.7532
6993.00,0.7510
6992.00,0.7489
6991.00,0.7472
6990.00,0.7464
6989.00,0.7465
6988.00,0.7472
6987.00,0.7480
6986.00,0.7492
6985.00,0.7511
6984.00,0.7537
6983.00,0.7568
6982.00,0.7602
6981.00,0.7638
6980.00,0.7679
6979.00,0.7724
6978.00,0.7774
6977.00,0.7826
6976.00,0.7882
6975.00,0.7942
6974.00,0.8005
6973.00,0.8072
6972.00,0.8142
6971.00,0.8212
6970.00,0.8284
6969.00,0.8358
6968.00,0.8434
6967.00,0.8510
6966.00,0.8588
6965.00,0.8669
6964.00,0.8753
6963.00,0.8837
6962.00,0.8922
6961.00,0.9007
6960.00,0.9092
6959.00,0.9176
6958.00,0.9259
6957.00,0.9342
6956.00,0.9426
6955.00,0.9510
6954.00,0.9593
6953.00,0.9677
6952.00,0.9760
6951.00,0.9843
6950.00,0.9925
6949.00,1.0002
6948.00,1.0075
6947.00,1.0146
6946.00,1.0220
6945.00,1.0298
6944.00,1.0375
6943.00,1.0449
6942.00,1.0520
6941.00,1.0590
6940.00,1.0655
6939.00,1.0717
6938.00,1.0776
6937.00,1.0837
6936.00,1.0897
6935.00,1.0955
6934.00,1.1010
6933.00,1.1064
6932.00,1.1116
6931.00,1.1163
6930.00,1.1203
6929.00,1.1238
6928.00,1.1274
6927.00,1.1311
6926.00,1.1347
6925.00,1.1377
6924.00,1.1401
6923.00,1.1418
6922.00,1.1431
6921.00,1.1442
6920.00,1.1448
6919.00,1.1450
6918.00,1.1448
6917.00,1.1445
6916.00,1.1442
6915.00,1.1438
6914.00,1.1430
6913.00,1.1418
6912.00,1.1402
6911.00,1.1386
6910.00,1.1369
6909.00,1.1350
6908.00,1.1327
6907.00,1.1295
6906.00,1.1257
6905.00,1.1213
6904.00,1.1164
6903.00,1.1111
6902.00,1.1060
6901.00,1.1009
6900.00,1.0957
6899.00,1.0898
6898.00,1.0835
6897.00,1.0772
6896.00,1.0709
6895.00,1.0640
6894.00,1.0565
6893.00,1.0488
6892.00,1.0412
6891.00,1.0337
6890.00,1.0260
6889.00,1.0181
6888.00,1.0101
6887.00,1.0017
6886.00,0.9930
6885.00,0.9842
6884.00,0.9753
6883.00,0.9663
6882.00,0.9568
6881.00,0.9470
6880.00,0.9372
6879.00,0.9276
6878.00,0.9183
6877.00,0.9090
6876.00,0.8995
6875.00,0.8899
6874.00,0.8806
6873.00,0.8717
6872.00,0.8631
6871.00,0.8546
6870.00,0.8460
6869.00,0.8377
6868.00,0.8298
6867.00,0.8222
6866.00,0.8148
6865.00,0.8075
6864.00,0.8004
6863.00,0.7936
6862.00,0.7873
6861.00,0.7813
6860.00,0.7758
6859.00,0.7707
6858.00,0.7661
6857.00,0.7620
6856.00,0.7581
6855.00,0.7545
6854.00,0.7514
6853.00,0.7486
6852.00,0.7463
6851.00,0.7443
6850.00,0.7427
6849.00,0.7417
6848.00,0.7414
6847.00,0.7417
6846.00,0.7423
6845.00,0.7434
6844.00,0.7449
6843.00,0.7470
6842.00,0.7495
6841.00,0.7522
6840.00,0.7552
6839.00,0.7588
6838.00,0.7630
6837.00,0.7677
6836.00,0.7726
6835.00,0.7779
6834.00,0.7838
6833.00,0.7901
6832.00,0.7965
6831.00,0.8030
6830.00,0.8098
6829.00,0.8170
6828.00,0.8244
6827.00,0.8319
6826.00,0.8396
6825.00,0.8477
6824.00,0.8561
6823.00,0.8645
6822.00,0.8731
6821.00,0.8819
6820.00,0.8906
6819.00,0.8993
6818.00,0.9078
6817.00,0.9165
6816.00,0.9254
6815.00,0.9345
6814.00,0.9438
6813.00,0.9532
6812.00,0.9623
6811.00,0.9712
6810.00,0.9800
6809.00,0.9887
6808.00,0.9974
6807.00,1.0060
6806.00,1.0144
6805.00,1.0229
6804.00,1.0317
6803.00,1.0404
6802.00,1.0487
6801.00,1.0566
6800.00,1.0644
6799.00,1.0723
6798.00,1.0801
6797.00,1.0876
6796.00,1.0945
6795.00,1.1009
6794.00,1.1070
6793.00,1.1131
6792.00,1.1192
6791.00,1.1251
6790.00,1.1306
6789.00,1.1358
6788.00,1.1407
6787.00,1.1454
6786.00,1.1497
6785.00,1.1538
6784.00,1.1576
6783.00,1.1616
6782.00,1.1658
6781.00,1.1700
6780.00,1.1738
6779.00,1.1768
6778.00,1.1787
6777.00,1.1798
6776.00,1.1806
6775.00,1.1811
6774.00,1.1815
6773.00,1.1818
6772.00,1.1822
6771.00,1.1826
6770.00,1.1830
6769.00,1.1830
6768.00,1.1823
6767.00,1.1808
6766.00,1.1787
6765.00,1.1762
6764.00,1.1735
6763.00,1.1704
6762.00,1.1671
6761.00,1.1638
6760.00,1.1607
6759.00,1.1572
6758.00,1.1530
6757.00,1.1482
6756.00,1.1428
6755.00,1.1367
6754.00,1.1298
6753.00,1.1226
6752.00,1.1155
6751.00,1.1090
6750.00,1.1028
6749.00,1.0966
6748.00,1.0899
6747.00,1.0827
6746.00,1.0750
6745.00,1.0666
6744.00,1.0576
6743.00,1.0483
6742.00,1.0390
6741.00,1.0298
6740.00,1.0207
6739.00,1.0116
6738.00,1.0023
6737.00,0.9928
6736.00,0.9830
6735.00,0.9728
6734.00,0.9625
6733.00,0.9522
6732.00,0.9422
6731.00,0.9323
6730.00,0.9227
6729.00,0.9132
6728.00,0.9039
6727.00,0.8947
6726.00,0.8855
6725.00,0.8764
6724.00,0.8672
6723.00,0.8580
6722.00,0.8492
6721.00,0.8410
6720.00,0.8333
6719.00,0.8261
6718.00,0.8194
6717.00,0.8129
6716.00,0.8066
6715.00,0.8007
6714.00,0.7953
6713.00,0.7904
6712.00,0.7857
6711.00,0.7815
6710.00,0.7780
6709.00,0.7752
6708.00,0.7729
6707.00,0.7708
6706.00,0.7692
6705.00,0.7682
6704.00,0.7678
6703.00,0.7678
6702.00,0.7683
6701.00,0.7695
6700.00,0.7713
6699.00,0.7737
6698.00,0.7765
6697.00,0.7799
6696.00,0.7838
6695.00,0.7880
6694.00,0.7927
6693.00,0.7978
6692.00,0.8033
6691.00,0.8091
6690.00,0.8149
6689.00,0.8210
6688.00,0.8276
6687.00,0.8345
6686.00,0.8416
6685.00,0.8489
6684.00,0.8567
6683.00,0.8650
6682.00,0.8737
6681.00,0.8824
6680.00,0.8910
6679.00,0.8995
6678.00,0.9081
6677.00,0.9168
6676.00,0.9256
6675.00,0.9343
6674.00,0.9430
6673.00,0.9518
6672.00,0.9608
6671.00,0.9699
6670.00,0.9789
6669.00,0.9878
6668.00,0.9966
6667.00,1.0054
6666.00,1.0140
6665.00,1.0225
6664.00,1.0307
6663.00,1.0388
6662.00,1.0468
6661.00,1.0549
6660.00,1.0629
6659.00,1.0710
6658.00,1.0789
6657.00,1.0866
6656.00,1.0938
6655.00,1.1006
6654.00,1.1071
6653.00,1.1133
6652.00,1.1192
6651.00,1.1249
6650.00,1.1306
6649.00,1.1362
6648.00,1.1417
6647.00,1.1468
6646.00,1.1515
6645.00,1.1558
6644.00,1.1597
6643.00,1.1634
6642.00,1.1669
6641.00,1.1704
6640.00,1.1734
6639.00,1.1759
6638.00,1.1779
6637.00,1.1798
6636.00,1.1815
6635.00,1.1829
6634.00,1.1837
6633.00,1.1841
6632.00,1.1841
6631.00,1.1837
6630.00,1.1829
6629.00,1.1817
6628.00,1.1802
6627.00,1.1783
6626.00,1.1763
6625.00,1.1743
6624.00,1.1718
6623.00,1.1687
6622.00,1.1651
6621.00,1.1612
6620.00,1.1571
6619.00,1.1527
6618.00,1.1480
6617.00,1.1428
6616.00,1.1369
6615.00,1.1304
6614.00,1.1237
6613.00,1.1171
6612.00,1.1106
6611.00,1.1040
6610.00,1.0972
6609.00,1.0904
6608.00,1.0834
6607.00,1.0759
6606.00,1.0678
6605.00,1.0592
6604.00,1.0503
6603.00,1.0412
6602.00,1.0320
6601.00,1.0227
6600.00,1.0134
6599.00,1.0040
6598.00,0.9944
6597.00,0.9847
6596.00,0.9749
6595.00,0.9650
6594.00,0.9552
6593.00,0.9454
6592.00,0.9356
6591.00,0.9257
6590.00,0.9160
6589.00,0.9066
6588.00,0.8973
6587.00,0.8880
6586.00,0.8787
6585.00,0.8695
6584.00,0.8607
6583.00,0.8521
6582.00,0.8437
6581.00,0.8355
6580.00,0.8275
6579.00,0.8197
6578.00,0.8122
6577.00,0.8051
6576.00,0.7983
6575.00,0.7919
6574.00,0.7859
6573.00,0.7804
6572.00,0.7755
6571.00,0.7709
6570.00,0.7667
6569.00,0.7628
6568.00,0.7594
6567.00,0.7563
6566.00,0.7538
6565.00,0.7519
6564.00,0.7506
6563.00,0.7497
6562.00,0.7493
6561.00,0.7495
6560.00,0.7503
6559.00,0.7515
6558.00,0.7532
6557.00,0.7554
6556.00,0.7581
6555.00,0.7613
6554.00,0.7651
6553.00,0.7695
6552.00,0.7743
6551.00,0.7794
6550.00,0.7849
6549.00,0.7908
6548.00,0.7970
6547.00,0.8037
6546.00,0.8106
6545.00,0.8178
6544.00,0.8254
6543.00,0.8333
6542.00,0.8415
6541.00,0.8498
6540.00,0.8581
6539.00,0.8665
6538.00,0.8751
6537.00,0.8840
6536.00,0.8931
6535.00,0.9021
6534.00,0.9111
6533.00,0.9203
6532.00,0.9296
6531.00,0.9390
6530.00,0.9484
6529.00,0.9580
6528.00,0.9676
6527.00,0.9771
6526.00,0.9865
6525.00,0.9958
6524.00,1.0049
6523.00,1.0141
6522.00,1.0233
6521.00,1.0327
6520.00,1.0420
6519.00,1.0510
6518.00,1.0598
6517.00,1.0682
6516.00,1.0761
6515.00,1.0837
6514.00,1.0912
6513.00,1.0990
6512.00,1.1067
6511.00,1.1141
6510.00,1.1211
6509.00,1.1277
6508.00,1.1340
6507.00,1.1397
6506.00,1.1451
6505.00,1.1504
6504.00,1.1558
6503.00,1.1610
6502.00,1.1661
6501.00,1.1709
6500.00,1.1754
6499.00,1.1795
6498.00,1.1835
6497.00,1.1872
6496.00,1.1905
6495.00,1.1936
6494.00,1.1965
6493.00,1.1992
6492.00,1.2013
6491.00,1.2027
6490.00,1.2035
6489.00,1.2040
6488.00,1.2044
6487.00,1.2045
6486.00,1.2042
6485.00,1.2035
6484.00,1.2024
6483.00,1.2008
6482.00,1.1989
6481.00,1.1968
6480.00,1.1944
6479.00,1.1916
6478.00,1.1884
6477.00,1.1850
6476.00,1.1814
6475.00,1.1773
6474.00,1.1729
6473.00,1.1681
6472.00,1.1632
6471.00,1.1580
6470.00,1.1525
6469.00,1.1465
6468.00,1.1401
6467.00,1.1335
6466.00,1.1267
6465.00,1.1197
6464.00,1.1122
6463.00,1.1043
6462.00,1.0960
6461.00,1.0874
6460.00,1.0784
6459.00,1.0691
6458.00,1.0597
6457.00,1.0501
6456.00,1.0402
6455.00,1.0300
6454.00,1.0196
6453.00,1.0094
6452.00,0.9991
6451.00,0.9886
6450.00,0.9781
6449.00,0.9677
6448.00,0.9574
6447.00,0.9470
6446.00,0.9364
6445.00,0.9259
6444.00,0.9157
6443.00,0.9056
6442.00,0.8954
6441.00,0.8851
6440.00,0.8750
6439.00,0.8652
6438.00,0.8558
6437.00,0.8467
6436.00,0.8378
6435.00,0.8292
6434.00,0.8210
6433.00,0.8134
6432.00,0.8062
6431.00,0.7995
6430.00,0.7932
6429.00,0.7874
6428.00,0.7820
6427.00,0.7769
6426.00,0.7721
6425.00,0.7679
6424.00,0.7643
6423.00,0.7615
6422.00,0.7593
6421.00,0.7578
6420.00,0.7567
6419.00,0.7561
6418.00,0.7560
6417.00,0.7565
6416.00,0.7576
6415.00,0.7594
6414.00,0.7621
6413.00,0.7654
6412.00,0.7691
6411.00,0.7730
6410.00,0.7772
6409.00,0.7817
6408.00,0.7866
6407.00,0.7919
6406.00,0.7979
6405.00,0.8044
6404.00,0.8113
6403.00,0.8186
6402.00,0.8261
6401.00,0.8340
6400.00,0.8421
6399.00,0.8502
6398.00,0.8585
6397.00,0.8671
6396.00,0.8758
6395.00,0.8847
6394.00,0.8938
6393.00,0.9033
6392.00,0.9129
6391.00,0.9225
6390.00,0.9321
6389.00,0.9414
6388.00,0.9506
6387.00,0.9594
6386.00,0.9683
6385.00,0.9775
6384.00,0.9869
6383.00,0.9964
6382.00,1.0060
6381.00,1.0155
6380.00,1.0248
6379.00,1.0337
6378.00,1.0424
6377.00,1.0511
6376.00,1.0597
6375.00,1.0681
6374.00,1.0764
6373.00,1.0846
6372.00,1.0926
6371.00,1.1001
6370.00,1.1070
6369.00,1.1134
6368.00,1.1196
6367.00,1.1254
6366.00,1.1311
6365.00,1.1368
6364.00,1.1425
6363.00,1.1482
6362.00,1.1539
6361.00,1.1593
6360.00,1.1641
6359.00,1.1682
6358.00,1.1717
6357.00,1.1749
6356.00,1.1779
6355.00,1.1807
6354.00,1.1836
6353.00,1.1868
6352.00,1.1897
6351.00,1.1918
6350.00,1.1931
6349.00,1.1937
6348.00,1.1939
6347.00,1.1938
6346.00,1.1933
6345.00,1.1925
6344.00,1.1914
6343.00,1.1901
6342.00,1.1888
6341.00,1.1872
6340.00,1.1852
6339.00,1.1830
6338.00,1.1807
6337.00,1.1786
6336.00,1.1762
6335.00,1.1731
6334.00,1.1694
6333.00,1.1654
6332.00,1.1614
6331.00,1.1573
6330.00,1.1531
6329.00,1.1486
6328.00,1.1439
6327.00,1.1386
6326.00,1.1323
6325.00,1.1252
6324.00,1.1173
6323.00,1.1090
6322.00,1.1006
6321.00,1.0920
6320.00,1.0832
6319.00,1.0739
6318.00,1.0642
6317.00,1.0540
6316.00,1.0434
6315.00,1.0326
6314.00,1.0218
6313.00,1.0112
6312.00,1.0006
6311.00,0.9897
6310.00,0.9786
6309.00,0.9672
6308.00,0.9558
6307.00,0.9444
6306.00,0.9332
6305.00,0.9223
6304.00,0.9116
6303.00,0.9011
6302.00,0.8907
6301.00,0.8805
6300.00,0.8702
6299.00,0.8598
6298.00,0.8497
6297.00,0.8398
6296.00,0.8303
6295.00,0.8210
6294.00,0.8122
6293.00,0.8040
6292.00,0.7962
6291.00,0.7885
6290.00,0.7810
6289.00,0.7739
6288.00,0.7674
6287.00,0.7613
6286.00,0.7557
6285.00,0.7507
6284.00,0.7463
6283.00,0.7425
6282.00,0.7391
6281.00,0.7362
6280.00,0.7337
6279.00,0.7317
6278.00,0.7304
6277.00,0.7298
6276.00,0.7298
6275.00,0.7305
6274.00,0.7319
6273.00,0.7338
6272.00,0.7362
6271.00,0.7390
6270.00,0.7423
6269.00,0.7461
6268.00,0.7504
6267.00,0.7553
6266.00,0.7608
6265.00,0.7668
6264.00,0.7731
6263.00,0.7797
6262.00,0.7865
6261.00,0.7937
6260.00,0.8014
6259.00,0.8093
6258.00,0.8176
6257.00,0.8263
6256.00,0.8352
6255.00,0.8444
6254.00,0.8535
6253.00,0.8627
6252.00,0.8721
6251.00,0.8815
6250.00,0.8910
6249.00,0.9006
6248.00,0.9104
6247.00,0.9203
6246.00,0.9305
6245.00,0.9407
6244.00,0.9510
6243.00,0.9610
6242.00,0.9710
6241.00,0.9809
6240.00,0.9908
6239.00,1.0005
6238.00,1.0100
6237.00,1.0193
6236.00,1.0282
6235.00,1.0370
6234.00,1.0457
6233.00,1.0546
6232.00,1.0637
6231.00,1.0729
6230.00,1.0820
6229.00,1.0906
6228.00,1.0987
6227.00,1.1062
6226.00,1.1132
6225.00,1.1199
6224.00,1.1267
6223.00,1.1335
6222.00,1.1404
6221.00,1.1471
6220.00,1.1535
6219.00,1.1596
6218.00,1.1653
6217.00,1.1705
6216.00,1.1750
6215.00,1.1788
6214.00,1.1821
6213.00,1.1854
6212.00,1.1885
6211.00,1.1914
6210.00,1.1942
6209.00,1.1969
6208.00,1.1995
6207.00,1.2018
6206.00,1.2036
6205.00,1.2050
6204.00,1.2059
6203.00,1.2063
6202.00,1.2062
6201.00,1.2054
6200.00,1.2042
6199.00,1.2026
6198.00,1.2007
6197.00,1.1986
6196.00,1.1965
6195.00,1.1940
6194.00,1.1912
6193.00,1.1881
6192.00,1.1846
6191.00,1.1807
6190.00,1.1764
6189.00,1.1716
6188.00,1.1666
6187.00,1.1612
6186.00,1.1553
6185.00,1.1492
6184.00,1.1431
6183.00,1.1368
6182.00,1.1299
6181.00,1.1223
6180.00,1.1144
6179.00,1.1062
6178.00,1.0976
6177.00,1.0887
6176.00,1.0796
6175.00,1.0705
6174.00,1.0613
6173.00,1.0519
6172.00,1.0422
6171.00,1.0321
6170.00,1.0219
6169.00,1.0114
6168.00,1.0006
6167.00,0.9896
6166.00,0.9783
6165.00,0.9669
6164.00,0.9554
6163.00,0.9439
6162.00,0.9324
6161.00,0.9211
6160.00,0.9098
6159.00,0.8985
6158.00,0.8873
6157.00,0.8761
6156.00,0.8650
6155.00,0.8541
6154.00,0.8436
6153.00,0.8335
6152.00,0.8236
6151.00,0.8141
6150.00,0.8049
6149.00,0.7961
6148.00,0.7877
6147.00,0.7795
6146.00,0.7717
6145.00,0.7643
6144.00,0.7575
6143.00,0.7512
6142.00,0.7455
6141.00,0.7404
6140.00,0.7361
6139.00,0.7325
6138.00,0.7296
6137.00,0.7273
6136.00,0.7255
6135.00,0.7243
6134.00,0.7236
6133.00,0.7236
6132.00,0.7243
6131.00,0.7256
6130.00,0.7275
6129.00,0.7300
6128.00,0.7330
6127.00,0.7365
6126.00,0.7406
6125.00,0.7452
6124.00,0.7504
6123.00,0.7561
6122.00,0.7625
6121.00,0.7693
6120.00,0.7766
6119.00,0.7841
6118.00,0.7920
6117.00,0.8001
6116.00,0.8083
6115.00,0.8165
6114.00,0.8251
6113.00,0.8340
6112.00,0.8432
6111.00,0.8527
6110.00,0.8625
6109.00,0.8725
6108.00,0.8825
6107.00,0.8925
6106.00,0.9025
6105.00,0.9126
6104.00,0.9228
6103.00,0.9329
6102.00,0.9430
6101.00,0.9532
6100.00,0.9635
6099.00,0.9736
6098.00,0.9834
6097.00,0.9930
6096.00,1.0024
6095.00,1.0117
6094.00,1.0208
6093.00,1.0299
6092.00,1.0390
6091.00,1.0482
6090.00,1.0575
6089.00,1.0665
6088.00,1.0750
6087.00,1.0830
6086.00,1.0907
6085.00,1.0983
6084.00,1.1054
6083.00,1.1123
6082.00,1.1190
6081.00,1.1257
6080.00,1.1323
6079.00,1.1384
6078.00,1.1442
6077.00,1.1496
6076.00,1.1545
6075.00,1.1589
6074.00,1.1631
6073.00,1.1671
6072.00,1.1712
6071.00,1.1751
6070.00,1.1787
6069.00,1.1819
6068.00,1.1845
6067.00,1.1865
6066.00,1.1880
6065.00,1.1891
6064.00,1.1898
6063.00,1.1903
6062.00,1.1907
6061.00,1.1908
6060.00,1.1904
6059.00,1.1894
6058.00,1.1880
6057.00,1.1865
6056.00,1.1849
6055.00,1.1829
6054.00,1.1805
6053.00,1.1780
6052.00,1.1753
6051.00,1.1720
6050.00,1.1681
6049.00,1.1637
6048.00,1.1593
6047.00,1.1547
6046.00,1.1499
6045.00,1.1447
6044.00,1.1391
6043.00,1.1332
6042.00,1.1269
6041.00,1.1199
6040.00,1.1125
6039.00,1.1048
6038.00,1.0973
6037.00,1.0899
6036.00,1.0823
6035.00,1.0744
6034.00,1.0660
6033.00,1.0572
6032.00,1.0480
6031.00,1.0384
6030.00,1.0285
6029.00,1.0186
6028.00,1.0087
6027.00,0.9985
6026.00,0.9879
6025.00,0.9768
6024.00,0.9653
6023.00,0.9539
6022.00,0.9426
6021.00,0.9313
6020.00,0.9201
6019.00,0.9089
6018.00,0.8976
6017.00,0.8863
6016.00,0.8751
6015.00,0.8639
6014.00,0.8530
6013.00,0.8423
6012.00,0.8318
6011.00,0.8215
6010.00,0.8114
6009.00,0.8015
6008.00,0.7918
6007.00,0.7826
6006.00,0.7738
6005.00,0.7655
6004.00,0.7576
6003.00,0.7500
6002.00,0.7430
6001.00,0.7367
6000.00,0.7309
5999.00,0.7257
5998.00,0.7211
5997.00,0.7172
5996.00,0.7140
5995.00,0.7113
5994.00,0.7093
5993.00,0.7079
5992.00,0.7071
5991.00,0.7069
5990.00,0.7073
5989.00,0.7085
5988.00,0.7103
5987.00,0.7127
5986.00,0.7157
5985.00,0.7194
5984.00,0.7236
5983.00,0.7284
5982.00,0.7337
5981.00,0.7396
5980.00,0.7461
5979.00,0.7530
5978.00,0.7603
5977.00,0.7682
5976.00,0.7764
5975.00,0.7849
5974.00,0.7937
5973.00,0.8029
5972.00,0.8124
5971.00,0.8222
5970.00,0.8323
5969.00,0.8425
5968.00,0.8529
5967.00,0.8633
5966.00,0.8740
5965.00,0.8847
5964.00,0.8956
5963.00,0.9065
5962.00,0.9176
5961.00,0.9287
5960.00,0.9399
5959.00,0.9510
5958.00,0.9621
5957.00,0.9731
5956.00,0.9838
5955.00,0.9941
5954.00,1.0042
5953.00,1.0141
5952.00,1.0237
5951.00,1.0331
5950.00,1.0425
5949.00,1.0518
5948.00,1.0608
5947.00,1.0695
5946.00,1.0779
5945.00,1.0863
5944.00,1.0945
5943.00,1.1024
5942.00,1.1099
5941.00,1.1169
5940.00,1.1233
5939.00,1.1294
5938.00,1.1354
5937.00,1.1417
5936.00,1.1481
5935.00,1.1544
5934.00,1.1608
5933.00,1.1670
5932.00,1.1728
5931.00,1.1777
5930.00,1.1820
5929.00,1.1859
5928.00,1.1897
5927.00,1.1935
5926.00,1.1970
5925.00,1.2001
5924.00,1.2027
5923.00,1.2047
5922.00,1.2061
5921.00,1.2070
5920.00,1.2076
5919.00,1.2078
5918.00,1.2081
5917.00,1.2083
5916.00,1.2082
5915.00,1.2075
5914.00,1.2063
5913.00,1.2046
5912.00,1.2025
5911.00,1.1998
5910.00,1.1968
5909.00,1.1937
5908.00,1.1907
5907.00,1.1875
5906.00,1.1839
5905.00,1.1798
5904.00,1.1753
5903.00,1.1700
5902.00,1.1642
5901.00,1.1580
5900.00,1.1516
5899.00,1.1449
5898.00,1.1380
5897.00,1.1307
5896.00,1.1232
5895.00,1.1153
5894.00,1.1072
5893.00,1.0987
5892.00,1.0899
5891.00,1.0806
5890.00,1.0709
5889.00,1.0607
5888.00,1.0500
5887.00,1.0390
5886.00,1.0280
5885.00,1.0170
5884.00,1.0059
5883.00,0.9947
5882.00,0.9834
5881.00,0.9719
5880.00,0.9600
5879.00,0.9477
5878.00,0.9353
5877.00,0.9230
5876.00,0.9110
5875.00,0.8989
5874.00,0.8870
5873.00,0.8751
5872.00,0.8633
5871.00,0.8516
5870.00,0.8400
5869.00,0.8286
5868.00,0.8177
5867.00,0.8072
5866.00,0.7971
5865.00,0.7874
5864.00,0.7779
5863.00,0.7689
5862.00,0.7602
5861.00,0.7520
5860.00,0.7444
5859.00,0.7374
5858.00,0.7311
5857.00,0.7255
5856.00,0.7206
5855.00,0.7162
5854.00,0.7126
5853.00,0.7096
5852.00,0.7073
5851.00,0.7057
5850.00,0.7049
5849.00,0.7049
5848.00,0.7056
5847.00,0.7069
5846.00,0.7090
5845.00,0.7117
5844.00,0.7149
5843.00,0.7186
5842.00,0.7231
5841.00,0.7282
5840.00,0.7338
5839.00,0.7400
5838.00,0.7466
5837.00,0.7536
5836.00,0.7609
5835.00,0.7686
5834.00,0.7767
5833.00,0.7852
5832.00,0.7940
5831.00,0.8029
5830.00,0.8120
5829.00,0.8212
5828.00,0.8306
5827.00,0.8401
5826.00,0.8499
5825.00,0.8599
5824.00,0.8701
5823.00,0.8804
5822.00,0.8907
5821.00,0.9011
5820.00,0.9115
5819.00,0.9218
5818.00,0.9322
5817.00,0.9427
5816.00,0.9532
5815.00,0.9637
5814.00,0.9741
5813.00,0.9845
5812.00,0.9949
5811.00,1.0053
5810.00,1.0155
5809.00,1.0256
5808.00,1.0357
5807.00,1.0455
5806.00,1.0552
5805.00,1.0646
5804.00,1.0738
5803.00,1.0828
5802.00,1.0916
5801.00,1.1001
5800.00,1.1082
5799.00,1.1159
5798.00,1.1234
5797.00,1.1310
5796.00,1.1385
5795.00,1.1457
5794.00,1.1526
5793.00,1.1591
5792.00,1.1651
5791.00,1.1707
5790.00,1.1758
5789.00,1.1806
5788.00,1.1853
5787.00,1.1896
5786.00,1.1935
5785.00,1.1970
5784.00,1.2002
5783.00,1.2033
5782.00,1.2063
5781.00,1.2089
5780.00,1.2111
5779.00,1.2127
5778.00,1.2139
5777.00,1.2148
5776.00,1.2154
5775.00,1.2159
5774.00,1.2161
5773.00,1.2159
5772.00,1.2149
5771.00,1.2133
5770.00,1.2112
5769.00,1.2088
5768.00,1.2063
5767.00,1.2035
5766.00,1.2004
5765.00,1.1970
5764.00,1.1931
5763.00,1.1887
5762.00,1.1839
5761.00,1.1789
5760.00,1.1737
5759.00,1.1680
5758.00,1.1619
5757.00,1.1554
5756.00,1.1485
5755.00,1.1413
5754.00,1.1338
5753.00,1.1260
5752.00,1.1180
5751.00,1.1097
5750.00,1.1010
5749.00,1.0919
5748.00,1.0823
5747.00,1.0723
5746.00,1.0620
5745.00,1.0516
5744.00,1.0410
5743.00,1.0301
5742.00,1.0188
5741.00,1.0073
5740.00,0.9957
5739.00,0.9837
5738.00,0.9714
5737.00,0.9590
5736.00,0.9466
5735.00,0.9339
5734.00,0.9212
5733.00,0.9086
5732.00,0.8961
5731.00,0.8837
5730.00,0.8713
5729.00,0.8591
5728.00,0.8469
5727.00,0.8348
5726.00,0.8229
5725.00,0.8113
5724.00,0.8001
5723.00,0.7892
5722.00,0.7786
5721.00,0.7685
5720.00,0.7587
5719.00,0.7493
5718.00,0.7406
5717.00,0.7325
5716.00,0.7250
5715.00,0.7180
5714.00,0.7117
5713.00,0.7060
5712.00,0.7009
5711.00,0.6965
5710.00,0.6929
5709.00,0.6900
5708.00,0.6878
5707.00,0.6863
5706.00,0.6855
5705.00,0.6853
5704.00,0.6858
5703.00,0.6870
5702.00,0.6890
5701.00,0.6917
5700.00,0.6951
5699.00,0.6992
5698.00,0.7038
5697.00,0.7091
5696.00,0.7150
5695.00,0.7214
5694.00,0.7283
5693.00,0.7358
5692.00,0.7437
5691.00,0.7520
5690.00,0.7606
5689.00,0.7697
5688.00,0.7792
5687.00,0.7891
5686.00,0.7992
5685.00,0.8095
5684.00,0.8200
5683.00,0.8307
5682.00,0.8417
5681.00,0.8528
5680.00,0.8641
5679.00,0.8754
5678.00,0.8868
5677.00,0.8983
5676.00,0.9097
5675.00,0.9211
5674.00,0.9328
5673.00,0.9445
5672.00,0.9561
5671.00,0.9676
5670.00,0.9789
5669.00,0.9901
5668.00,1.0012
5667.00,1.0121
5666.00,1.0228
5665.00,1.0334
5664.00,1.0438
5663.00,1.0539
5662.00,1.0639
5661.00,1.0737
5660.00,1.0833
5659.00,1.0928
5658.00,1.1021
5657.00,1.1112
5656.00,1.1200
5655.00,1.1284
5654.00,1.1364
5653.00,1.1440
5652.00,1.1515
5651.00,1.1587
5650.00,1.1657
5649.00,1.1725
5648.00,1.1789
5647.00,1.1850
5646.00,1.1905
5645.00,1.1956
5644.00,1.2002
5643.00,1.2043
5642.00,1.2083
5641.00,1.2119
5640.00,1.2151
5639.00,1.2180
5638.00,1.2208
5637.00,1.2233
5636.00,1.2255
5635.00,1.2271
5634.00,1.2283
5633.00,1.2293
5632.00,1.2298
5631.00,1.2296
5630.00,1.2288
5629.00,1.2277
5628.00,1.2264
5627.00,1.2247
5626.00,1.2227
5625.00,1.2205
5624.00,1.2180
5623.00,1.2151
5622.00,1.2115
5621.00,1.2075
5620.00,1.2031
5619.00,1.1985
5618.00,1.1936
5617.00,1.1885
5616.00,1.1830
5615.00,1.1769
5614.00,1.1703
5613.00,1.1632
5612.00,1.1555
5611.00,1.1473
5610.00,1.1390
5609.00,1.1306
5608.00,1.1219
5607.00,1.1128
5606.00,1.1032
5605.00,1.0933
5604.00,1.0830
5603.00,1.0723
5602.00,1.0614
5601.00,1.0504
5600.00,1.0391
5599.00,1.0275
5598.00,1.0156
5597.00,1.0035
5596.00,0.9910
5595.00,0.9783
5594.00,0.9652
5593.00,0.9521
5592.00,0.9389
5591.00,0.9257
5590.00,0.9126
5589.00,0.8995
5588.00,0.8865
5587.00,0.8734
5586.00,0.8603
5585.00,0.8474
5584.00,0.8347
5583.00,0.8224
5582.00,0.8103
5581.00,0.7986
5580.00,0.7872
5579.00,0.7762
5578.00,0.7656
5577.00,0.7555
5576.00,0.7459
5575.00,0.7370
5574.00,0.7287
5573.00,0.7210
5572.00,0.7140
5571.00,0.7075
5570.00,0.7018
5569.00,0.6968
5568.00,0.6927
5567.00,0.6894
5566.00,0.6869
5565.00,0.6852
5564.00,0.6842
5563.00,0.6840
5562.00,0.6845
5561.00,0.6859
5560.00,0.6881
5559.00,0.6910
5558.00,0.6948
5557.00,0.6993
5556.00,0.7045
5555.00,0.7103
5554.00,0.7168
5553.00,0.7238
5552.00,0.7314
5551.00,0.7394
5550.00,0.7479
5549.00,0.7569
5548.00,0.7663
5547.00,0.7761
5546.00,0.7862
5545.00,0.7967
5544.00,0.8075
5543.00,0.8186
5542.00,0.8301
5541.00,0.8418
5540.00,0.8537
5539.00,0.8657
5538.00,0.8777
5537.00,0.8898
5536.00,0.9020
5535.00,0.9142
5534.00,0.9264
5533.00,0.9387
5532.00,0.9509
5531.00,0.9628
5530.00,0.9747
5529.00,0.9867
5528.00,0.9987
5527.00,1.0107
5526.00,1.0226
5525.00,1.0343
5524.00,1.0455
5523.00,1.0564
5522.00,1.0671
5521.00,1.0778
5520.00,1.0884
5519.00,1.0989
5518.00,1.1092
5517.00,1.1192
5516.00,1.1289
5515.00,1.1381
5514.00,1.1470
5513.00,1.1555
5512.00,1.1637
5511.00,1.1715
5510.00,1.1789
5509.00,1.1860
5508.00,1.1930
5507.00,1.1997
5506.00,1.2061
5505.00,1.2120
5504.00,1.2175
5503.00,1.2226
5502.00,1.2275
5501.00,1.2320
5500.00,1.2361
5499.00,1.2397
5498.00,1.2429
5497.00,1.2459
5496.00,1.2484
5495.00,1.2504
5494.00,1.2521
5493.00,1.2536
5492.00,1.2546
5491.00,1.2552
5490.00,1.2551
5489.00,1.2546
5488.00,1.2538
5487.00,1.2525
5486.00,1.2509
5485.00,1.2490
5484.00,1.2469
5483.00,1.2446
5482.00,1.2422
5481.00,1.2393
5480.00,1.2359
5479.00,1.2320
5478.00,1.2277
5477.00,1.2229
5476.00,1.2176
5475.00,1.2117
5474.00,1.2054
5473.00,1.1987
5472.00,1.1917
5471.00,1.1843
5470.00,1.1768
5469.00,1.1691
5468.00,1.1611
5467.00,1.1526
5466.00,1.1435
5465.00,1.1340
5464.00,1.1240
5463.00,1.1133
5462.00,1.1024
5461.00,1.0912
5460.00,1.0797
5459.00,1.0678
5458.00,1.0556
5457.00,1.0432
5456.00,1.0306
5455.00,1.0177
5454.00,1.0046
5453.00,0.9915
5452.00,0.9783
5451.00,0.9649
5450.00,0.9513
5449.00,0.9374
5448.00,0.9234
5447.00,0.9091
5446.00,0.8948
5445.00,0.8806
5444.00,0.8664
5443.00,0.8522
5442.00,0.8383
5441.00,0.8247
5440.00,0.8114
5439.00,0.7986
5438.00,0.7862
5437.00,0.7744
5436.00,0.7632
5435.00,0.7524
5434.00,0.7422
5433.00,0.7326
5432.00,0.7237
5431.00,0.7154
5430.00,0.7078
5429.00,0.7009
5428.00,0.6945
5427.00,0.6889
5426.00,0.6841
5425.00,0.6803
5424.00,0.6775
5423.00,0.6755
5422.00,0.6745
5421.00,0.6745
5420.00,0.6753
5419.00,0.6770
5418.00,0.6794
5417.00,0.6826
5416.00,0.6865
5415.00,0.6911
5414.00,0.6963
5413.00,0.7022
5412.00,0.7087
5411.00,0.7158
5410.00,0.7235
5409.00,0.7318
5408.00,0.7407
5407.00,0.7502
5406.00,0.7602
5405.00,0.7706
5404.00,0.7814
5403.00,0.7926
5402.00,0.8041
5401.00,0.8159
5400.00,0.8278
5399.00,0.8400
5398.00,0.8523
5397.00,0.8647
5396.00,0.8771
5395.00,0.8897
5394.00,0.9025
5393.00,0.9154
5392.00,0.9285
5391.00,0.9416
5390.00,0.9547
5389.00,0.9677
5388.00,0.9807
5387.00,0.9935
5386.00,1.0062
5385.00,1.0188
5384.00,1.0312
5383.00,1.0434
5382.00,1.0553
5381.00,1.0670
5380.00,1.0785
5379.00,1.0899
5378.00,1.1011
5377.00,1.1121
5376.00,1.1229
5375.00,1.1333
5374.00,1.1434
5373.00,1.1531
5372.00,1.1626
5371.00,1.1717
5370.00,1.1807
5369.00,1.1895
5368.00,1.1979
5367.00,1.2060
5366.00,1.2138
5365.00,1.2214
5364.00,1.2285
5363.00,1.2350
5362.00,1.2411
5361.00,1.2467
5360.00,1.2520
5359.00,1.2568
5358.00,1.2613
5357.00,1.2652
5356.00,1.2688
5355.00,1.2721
5354.00,1.2751
5353.00,1.2778
5352.00,1.2801
5351.00,1.2819
5350.00,1.2832
5349.00,1.2842
5348.00,1.2849
5347.00,1.2852
5346.00,1.2850
5345.00,1.2842
5344.00,1.2828
5343.00,1.2811
5342.00,1.2790
5341.00,1.2767
5340.00,1.2740
5339.00,1.2709
5338.00,1.2675
5337.00,1.2636
5336.00,1.2592
5335.00,1.2544
5334.00,1.2493
5333.00,1.2441
5332.00,1.2387
5331.00,1.2329
5330.00,1.2268
5329.00,1.2203
5328.00,1.2133
5327.00,1.2058
5326.00,1.1977
5325.00,1.1890
5324.00,1.1799
5323.00,1.1706
5322.00,1.1609
5321.00,1.1508
5320.00,1.1403
5319.00,1.1293
5318.00,1.1180
5317.00,1.1063
5316.00,1.0944
5315.00,1.0821
5314.00,1.0695
5313.00,1.0566
5312.00,1.0434
5311.00,1.0299
5310.00,1.0162
5309.00,1.0023
5308.00,0.9882
5307.00,0.9738
5306.00,0.9593
5305.00,0.9448
5304.00,0.9303
5303.00,0.9158
5302.00,0.9014
5301.00,0.8872
5300.00,0.8730
5299.00,0.8591
5298.00,0.8455
5297.00,0.8323
5296.00,0.8195
5295.00,0.8072
5294.00,0.7953
5293.00,0.7840
5292.00,0.7731
5291.00,0.7626
5290.00,0.7527
5289.00,0.7434
5288.00,0.7349
5287.00,0.7271
5286.00,0.7202
5285.00,0.7143
5284.00,0.7093
5283.00,0.7051
5282.00,0.7018
5281.00,0.6994
5280.00,0.6979
5279.00,0.6973
5278.00,0.6976
5277.00,0.6988
5276.00,0.7009
5275.00,0.7039
5274.00,0.7076
5273.00,0.7122
5272.00,0.7174
5271.00,0.7232
5270.00,0.7299
5269.00,0.7373
5268.00,0.7454
5267.00,0.7542
5266.00,0.7634
5265.00,0.7732
5264.00,0.7835
5263.00,0.7942
5262.00,0.8053
5261.00,0.8167
5260.00,0.8285
5259.00,0.8405
5258.00,0.8527
5257.00,0.8651
5256.00,0.8778
5255.00,0.8906
5254.00,0.9036
5253.00,0.9166
5252.00,0.9297
5251.00,0.9428
5250.00,0.9560
5249.00,0.9692
5248.00,0.9824
5247.00,0.9955
5246.00,1.0085
5245.00,1.0214
5244.00,1.0343
5243.00,1.0472
5242.00,1.0599
5241.00,1.0723
5240.00,1.0843
5239.00,1.0961
5238.00,1.1078
5237.00,1.1193
5236.00,1.1307
5235.00,1.1419
5234.00,1.1528
5233.00,1.1636
5232.00,1.1740
5231.00,1.1842
5230.00,1.1941
5229.00,1.2035
5228.00,1.2125
5227.00,1.2210
5226.00,1.2291
5225.00,1.2368
5224.00,1.2443
5223.00,1.2514
5222.00,1.2582
5221.00,1.2648
5220.00,1.2708
5219.00,1.2762
5218.00,1.2812
5217.00,1.2859
5216.00,1.2905
5215.00,1.2950
5214.00,1.2992
5213.00,1.3030
5212.00,1.3063
5211.00,1.3090
5210.00,1.3111
5209.00,1.3128
5208.00,1.3141
5207.00,1.3149
5206.00,1.3155
5205.00,1.3156
5204.00,1.3154
5203.00,1.3148
5202.00,1.3139
5201.00,1.3128
5200.00,1.3112
5199.00,1.3091
5198.00,1.3067
5197.00,1.3038
5196.00,1.3004
5195.00,1.2967
5194.00,1.2927
5193.00,1.2883
5192.00,1.2837
5191.00,1.2785
5190.00,1.2728
5189.00,1.2668
5188.00,1.2603
5187.00,1.2534
5186.00,1.2459
5185.00,1.2380
5184.00,1.2295
5183.00,1.2205
5182.00,1.2109
5181.00,1.2010
5180.00,1.1908
5179.00,1.1805
5178.00,1.1698
5177.00,1.1587
5176.00,1.1472
5175.00,1.1351
5174.00,1.1224
5173.00,1.1094
5172.00,1.0961
5171.00,1.0826
5170.00,1.0687
5169.00,1.0546
5168.00,1.0401
5167.00,1.0253
5166.00,1.0103
5165.00,0.9952
5164.00,0.9798
5163.00,0.9642
5162.00,0.9486
5161.00,0.9330
5160.00,0.9175
5159.00,0.9020
5158.00,0.8867
5157.00,0.8716
5156.00,0.8568
5155.00,0.8422
5154.00,0.8280
5153.00,0.8143
5152.00,0.8010
5151.00,0.7882
5150.00,0.7759
5149.00,0.7643
5148.00,0.7534
5147.00,0.7433
5146.00,0.7340
5145.00,0.7256
5144.00,0.7179
5143.00,0.7110
5142.00,0.7050
5141.00,0.6998
5140.00,0.6956
5139.00,0.6923
5138.00,0.6901
5137.00,0.6888
5136.00,0.6885
5135.00,0.6891
5134.00,0.6906
5133.00,0.6930
5132.00,0.6962
5131.00,0.7004
5130.00,0.7056
5129.00,0.7116
5128.00,0.7184
5127.00,0.7260
5126.00,0.7342
5125.00,0.7431
5124.00,0.7527
5123.00,0.7628
5122.00,0.7734
5121.00,0.7845
5120.00,0.7960
5119.00,0.8079
5118.00,0.8201
5117.00,0.8328
5116.00,0.8458
5115.00,0.8591
5114.00,0.8728
5113.00,0.8866
5112.00,0.9005
5111.00,0.9144
5110.00,0.9285
5109.00,0.9427
5108.00,0.9570
5107.00,0.9713
5106.00,0.9855
5105.00,0.9997
5104.00,1.0138
5103.00,1.0279
5102.00,1.0418
5101.00,1.0556
5100.00,1.0692
5099.00,1.0825
5098.00,1.0956
5097.00,1.1086
5096.00,1.1216
5095.00,1.1345
5094.00,1.1472
5093.00,1.1596
5092.00,1.1716
5091.00,1.1831
5090.00,1.1941
5089.00,1.2046
5088.00,1.2148
5087.00,1.2248
5086.00,1.2345
5085.00,1.2439
5084.00,1.2528
5083.00,1.2613
5082.00,1.2694
5081.00,1.2772
5080.00,1.2847
5079.00,1.2919
5078.00,1.2988
5077.00,1.3053
5076.00,1.3114
5075.00,1.3170
5074.00,1.3221
5073.00,1.3265
5072.00,1.3306
5071.00,1.3343
5070.00,1.3379
5069.00,1.3413
5068.00,1.3443
5067.00,1.3467
5066.00,1.3484
5065.00,1.3494
5064.00,1.3498
5063.00,1.3499
5062.00,1.3499
5061.00,1.3497
5060.00,1.3493
5059.00,1.3485
5058.00,1.3473
5057.00,1.3456
5056.00,1.3434
5055.00,1.3405
5054.00,1.3372
5053.00,1.3335
5052.00,1.3293
5051.00,1.3247
5050.00,1.3198
5049.00,1.3147
5048.00,1.3092
5047.00,1.3033
5046.00,1.2969
5045.00,1.2901
5044.00,1.2828
5043.00,1.2750
5042.00,1.2670
5041.00,1.2587
5040.00,1.2500
5039.00,1.2408
5038.00,1.2311
5037.00,1.2209
5036.00,1.2103
5035.00,1.1993
5034.00,1.1878
5033.00,1.1760
5032.00,1.1635
5031.00,1.1506
5030.00,1.1372
5029.00,1.1235
5028.00,1.1094
5027.00,1.0950
5026.00,1.0804
5025.00,1.0655
5024.00,1.0505
5023.00,1.0351
5022.00,1.0193
5021.00,1.0034
5020.00,0.9873
5019.00,0.9711
5018.00,0.9550
5017.00,0.9389
5016.00,0.9229
5015.00,0.9070
5014.00,0.8912
5013.00,0.8756
5012.00,0.8604
5011.00,0.8456
5010.00,0.8312
5009.00,0.8175
5008.00,0.8043
5007.00,0.7917
5006.00,0.7799
5005.00,0.7687
5004.00,0.7583
5003.00,0.7486
5002.00,0.7397
5001.00,0.7318
5000.00,0.7248
4999.00,0.7188
4998.00,0.7138
4997.00,0.7097
4996.00,0.7066
4995.00,0.7045
4994.00,0.7034
4993.00,0.7034
4992.00,0.7044
4991.00,0.7063
4990.00,0.7093
4989.00,0.7132
4988.00,0.7181
4987.00,0.7239
4986.00,0.7306
4985.00,0.7382
4984.00,0.7465
4983.00,0.7554
4982.00,0.7651
4981.00,0.7753
4980.00,0.7862
4979.00,0.7978
4978.00,0.8099
4977.00,0.8225
4976.00,0.8356
4975.00,0.8489
4974.00,0.8626
4973.00,0.8766
4972.00,0.8907
4971.00,0.9050
4970.00,0.9195
4969.00,0.9343
4968.00,0.9491
4967.00,0.9639
4966.00,0.9787
4965.00,0.9935
4964.00,1.0082
4963.00,1.0230
4962.00,1.0377
4961.00,1.0523
4960.00,1.0668
4959.00,1.0811
4958.00,1.0953
4957.00,1.1093
4956.00,1.1232
4955.00,1.1367
4954.00,1.1500
4953.00,1.1630
4952.00,1.1757
4951.00,1.1881
4950.00,1.2003
4949.00,1.2122
4948.00,1.2236
4947.00,1.2346
4946.00,1.2452
4945.00,1.2555
4944.00,1.2655
4943.00,1.2752
4942.00,1.2848
4941.00,1.2941
4940.00,1.3029
4939.00,1.3109
4938.00,1.3182
4937.00,1.3249
4936.00,1.3312
4935.00,1.3372
4934.00,1.3430
4933.00,1.3486
4932.00,1.3538
4931.00,1.3587
4930.00,1.3632
4929.00,1.3673
4928.00,1.3709
4927.00,1.3739
4926.00,1.3762
4925.00,1.3781
4924.00,1.3794
4923.00,1.3805
4922.00,1.3814
4921.00,1.3820
4920.00,1.3823
4919.00,1.3821
4918.00,1.3815
4917.00,1.3804
4916.00,1.3789
4915.00,1.3770
4914.00,1.3748
4913.00,1.3722
4912.00,1.3690
4911.00,1.3653
4910.00,1.3610
4909.00,1.3565
4908.00,1.3516
4907.00,1.3463
4906.00,1.3407
4905.00,1.3346
4904.00,1.3280
4903.00,1.3210
4902.00,1.3136
4901.00,1.3058
4900.00,1.2975
4899.00,1.2886
4898.00,1.2792
4897.00,1.2694
4896.00,1.2590
4895.00,1.2483
4894.00,1.2371
4893.00,1.2256
4892.00,1.2137
4891.00,1.2014
4890.00,1.1887
4889.00,1.1755
4888.00,1.1617
4887.00,1.1475
4886.00,1.1327
4885.00,1.1176
4884.00,1.1022
4883.00,1.0865
4882.00,1.0706
4881.00,1.0546
4880.00,1.0383
4879.00,1.0218
4878.00,1.0050
4877.00,0.9880
4876.00,0.9710
4875.00,0.9540
4874.00,0.9371
4873.00,0.9203
4872.00,0.9036
4871.00,0.8871
4870.00,0.8709
4869.00,0.8552
4868.00,0.8400
4867.00,0.8253
4866.00,0.8111
4865.00,0.7976
4864.00,0.7846
4863.00,0.7724
4862.00,0.7609
4861.00,0.7503
4860.00,0.7406
4859.00,0.7318
4858.00,0.7239
4857.00,0.7172
4856.00,0.7116
4855.00,0.7070
4854.00,0.7034
4853.00,0.7010
4852.00,0.6996
4851.00,0.6995
4850.00,0.7005
4849.00,0.7027
4848.00,0.7061
4847.00,0.7105
4846.00,0.7159
4845.00,0.7223
4844.00,0.7297
4843.00,0.7379
4842.00,0.7470
4841.00,0.7569
4840.00,0.7675
4839.00,0.7787
4838.00,0.7905
4837.00,0.8028
4836.00,0.8156
4835.00,0.8289
4834.00,0.8428
4833.00,0.8571
4832.00,0.8718
4831.00,0.8867
4830.00,0.9017
4829.00,0.9170
4828.00,0.9324
4827.00,0.9479
4826.00,0.9634
4825.00,0.9791
4824.00,0.9949
4823.00,1.0107
4822.00,1.0265
4821.00,1.0422
4820.00,1.0577
4819.00,1.0730
4818.00,1.0882
4817.00,1.1034
4816.00,1.1184
4815.00,1.1332
4814.00,1.1478
4813.00,1.1622
4812.00,1.1763
4811.00,1.1902
4810.00,1.2037
4809.00,1.2168
4808.00,1.2295
4807.00,1.2418
4806.00,1.2539
4805.00,1.2657
4804.00,1.2772
4803.00,1.2883
4802.00,1.2990
4801.00,1.3090
4800.00,1.3184
4799.00,1.3272
4798.00,1.3356
4797.00,1.3438
4796.00,1.3518
4795.00,1.3596
4794.00,1.3672
4793.00,1.3744
4792.00,1.3811
4791.00,1.3872
4790.00,1.3926
4789.00,1.3975
4788.00,1.4020
4787.00,1.4060
4786.00,1.4096
4785.00,1.4129
4784.00,1.4157
4783.00,1.4180
4782.00,1.4198
4781.00,1.4213
4780.00,1.4226
4779.00,1.4236
4778.00,1.4241
4777.00,1.4242
4776.00,1.4237
4775.00,1.4228
4774.00,1.4215
4773.00,1.4199
4772.00,1.4180
4771.00,1.4157
4770.00,1.4130
4769.00,1.4097
4768.00,1.4060
4767.00,1.4019
4766.00,1.3974
4765.00,1.3925
4764.00,1.3871
4763.00,1.3812
4762.00,1.3748
4761.00,1.3678
4760.00,1.3602
4759.00,1.3521
4758.00,1.3434
4757.00,1.3344
4756.00,1.3251
4755.00,1.3156
4754.00,1.3058
4753.00,1.2956
4752.00,1.2848
4751.00,1.2735
4750.00,1.2617
4749.00,1.2494
4748.00,1.2365
4747.00,1.2231
4746.00,1.2092
4745.00,1.1948
4744.00,1.1798
4743.00,1.1644
4742.00,1.1487
4741.00,1.1327
4740.00,1.1164
4739.00,1.0997
4738.00,1.0826
4737.00,1.0653
4736.00,1.0477
4735.00,1.0298
4734.00,1.0118
4733.00,0.9938
4732.00,0.9756
4731.00,0.9575
4730.00,0.9394
4729.00,0.9215
4728.00,0.9039
4727.00,0.8867
4726.00,0.8699
4725.00,0.8536
4724.00,0.8379
4723.00,0.8227
4722.00,0.8082
4721.00,0.7946
4720.00,0.7818
4719.00,0.7700
4718.00,0.7591
4717.00,0.7491
4716.00,0.7402
4715.00,0.7323
4714.00,0.7257
4713.00,0.7203
4712.00,0.7161
4711.00,0.7131
4710.00,0.7114
4709.00,0.7110
4708.00,0.7117
4707.00,0.7138
4706.00,0.7171
4705.00,0.7217
4704.00,0.7274
4703.00,0.7340
4702.00,0.7417
4701.00,0.7503
4700.00,0.7600
4699.00,0.7705
4698.00,0.7818
4697.00,0.7939
4696.00,0.8065
4695.00,0.8197
4694.00,0.8335
4693.00,0.8477
4692.00,0.8623
4691.00,0.8773
4690.00,0.8927
4689.00,0.9085
4688.00,0.9244
4687.00,0.9405
4686.00,0.9568
4685.00,0.9731
4684.00,0.9897
4683.00,1.0063
4682.00,1.0231
4681.00,1.0397
4680.00,1.0563
4679.00,1.0727
4678.00,1.0890
4677.00,1.1052
4676.00,1.1211
4675.00,1.1369
4674.00,1.1525
4673.00,1.1679
4672.00,1.1830
4671.00,1.1979
4670.00,1.2125
4669.00,1.2268
4668.00,1.2409
4667.00,1.2546
4666.00,1.2679
4665.00,1.2808
4664.00,1.2933
4663.00,1.3053
4662.00,1.3169
4661.00,1.3281
4660.00,1.3388
4659.00,1.3490
4658.00,1.3588
4657.00,1.3682
4656.00,1.3773
4655.00,1.3860
4654.00,1.3943
4653.00,1.4019
4652.00,1.4089
4651.00,1.4154
4650.00,1.4213
4649.00,1.4269
4648.00,1.4322
4647.00,1.4371
4646.00,1.4416
4645.00,1.4456
4644.00,1.4492
4643.00,1.4523
4642.00,1.4551
4641.00,1.4575
4640.00,1.4595
4639.00,1.4610
4638.00,1.4619
4637.00,1.4624
4636.00,1.4626
4635.00,1.4625
4634.00,1.4620
4633.00,1.4611
4632.00,1.4596
4631.00,1.4576
4630.00,1.4550
4629.00,1.4520
4628.00,1.4485
4627.00,1.4445
4626.00,1.4402
4625.00,1.4356
4624.00,1.4305
4623.00,1.4251
4622.00,1.4191
4621.00,1.4125
4620.00,1.4055
4619.00,1.3981
4618.00,1.3903
4617.00,1.3822
4616.00,1.3735
4615.00,1.3644
4614.00,1.3550
4613.00,1.3454
4612.00,1.3356
4611.00,1.3255
4610.00,1.3151
4609.00,1.3040
4608.00,1.2922
4607.00,1.2798
4606.00,1.2670
4605.00,1.2539
4604.00,1.2405
4603.00,1.2266
4602.00,1.2123
4601.00,1.1974
4600.00,1.1820
4599.00,1.1660
4598.00,1.1494
4597.00,1.1324
4596.00,1.1150
4595.00,1.0971
4594.00,1.0790
4593.00,1.0606
4592.00,1.0420
4591.00,1.0231
4590.00,1.0041
4589.00,0.9851
4588.00,0.9661
4587.00,0.9472
4586.00,0.9286
4585.00,0.9103
4584.00,0.8923
4583.00,0.8748
4582.00,0.8579
4581.00,0.8416
4580.00,0.8260
4579.00,0.8111
4578.00,0.7972
4577.00,0.7843
4576.00,0.7725
4575.00,0.7619
4574.00,0.7523
4573.00,0.7439
4572.00,0.7367
4571.00,0.7308
4570.00,0.7262
4569.00,0.7231
4568.00,0.7214
4567.00,0.7211
4566.00,0.7221
4565.00,0.7245
4564.00,0.7281
4563.00,0.7331
4562.00,0.7392
4561.00,0.7466
4560.00,0.7551
4559.00,0.7646
4558.00,0.7751
4557.00,0.7866
4556.00,0.7989
4555.00,0.8119
4554.00,0.8256
4553.00,0.8400
4552.00,0.8548
4551.00,0.8702
4550.00,0.8860
4549.00,0.9023
4548.00,0.9189
4547.00,0.9357
4546.00,0.9527
4545.00,0.9700
4544.00,0.9874
4543.00,1.0049
4542.00,1.0226
4541.00,1.0402
4540.00,1.0578
4539.00,1.0752
4538.00,1.0927
4537.00,1.1102
4536.00,1.1277
4535.00,1.1451
4534.00,1.1622
4533.00,1.1791
4532.00,1.1955
4531.00,1.2114
4530.00,1.2271
4529.00,1.2426
4528.00,1.2580
4527.00,1.2732
4526.00,1.2881
4525.00,1.3024
4524.00,1.3161
4523.00,1.3294
4522.00,1.3422
4521.00,1.3546
4520.00,1.3665
4519.00,1.3778
4518.00,1.3887
4517.00,1.3990
4516.00,1.4090
4515.00,1.4185
4514.00,1.4277
4513.00,1.4365
4512.00,1.4451
4511.00,1.4532
4510.00,1.4607
4509.00,1.4675
4508.00,1.4736
4507.00,1.4792
4506.00,1.4845
4505.00,1.4895
4504.00,1.4941
4503.00,1.4982
4502.00,1.5018
4501.00,1.5049
4500.00,1.5077
4499.00,1.5102
4498.00,1.5124
4497.00,1.5140
4496.00,1.5150
4495.00,1.5154
4494.00,1.5152
4493.00,1.5147
4492.00,1.5140
4491.00,1.5128
4490.00,1.5111
4489.00,1.5088
4488.00,1.5059
4487.00,1.5025
4486.00,1.4987
4485.00,1.4947
4484.00,1.4904
4483.00,1.4859
4482.00,1.4811
4481.00,1.4762
4480.00,1.4710
4479.00,1.4654
4478.00,1.4591
4477.00,1.4522
4476.00,1.4446
4475.00,1.4366
4474.00,1.4281
4473.00,1.4190
4472.00,1.4093
4471.00,1.3990
4470.00,1.3883
4469.00,1.3774
4468.00,1.3663
4467.00,1.3548
4466.00,1.3429
4465.00,1.3303
4464.00,1.3172
4463.00,1.3036
4462.00,1.2897
4461.00,1.2752
4460.00,1.2604
4459.00,1.2450
4458.00,1.2293
4457.00,1.2135
4456.00,1.1975
4455.00,1.1813
4454.00,1.1649
4453.00,1.1485
4452.00,1.1320
4451.00,1.1158
4450.00,1.0999
4449.00,1.0845
4448.00,1.0694
4447.00,1.0549
4446.00,1.0409
4445.00,1.0274
4444.00,1.0145
4443.00,1.0021
4442.00,0.9901
4441.00,0.9784
4440.00,0.9669
4439.00,0.9555
4438.00,0.9442
4437.00,0.9328
4436.00,0.9213
4435.00,0.9096
4434.00,0.8978
4433.00,0.8859
4432.00,0.8742
4431.00,0.8628
4430.00,0.8519
4429.00,0.8419
4428.00,0.8330
4427.00,0.8252
4426.00,0.8187
4425.00,0.8137
4424.00,0.8103
4423.00,0.8086
4422.00,0.8086
4421.00,0.8103
4420.00,0.8138
4419.00,0.8189
4418.00,0.8255
4417.00,0.8336
4416.00,0.8430
4415.00,0.8537
4414.00,0.8656
4413.00,0.8785
4412.00,0.8925
4411.00,0.9073
4410.00,0.9230
4409.00,0.9394
4408.00,0.9564
4407.00,0.9738
4406.00,0.9916
4405.00,1.0097
4404.00,1.0279
4403.00,1.0463
4402.00,1.0647
4401.00,1.0829
4400.00,1.1007
4399.00,1.1181
4398.00,1.1351
4397.00,1.1519
4396.00,1.1684
4395.00,1.1846
4394.00,1.2005
4393.00,1.2162
4392.00,1.2316
4391.00,1.2467
4390.00,1.2618
4389.00,1.2767
4388.00,1.2916
4387.00,1.3064
4386.00,1.3210
4385.00,1.3352
4384.00,1.3492
4383.00,1.3628
4382.00,1.3762
4381.00,1.3893
4380.00,1.4020
4379.00,1.4144
4378.00,1.4265
4377.00,1.4382
4376.00,1.4494
4375.00,1.4601
4374.00,1.4702
4373.00,1.4797
4372.00,1.4887
4371.00,1.4973
4370.00,1.5054
4369.00,1.5130
4368.00,1.5202
4367.00,1.5269
4366.00,1.5332
4365.00,1.5390
4364.00,1.5444
4363.00,1.5494
4362.00,1.5539
4361.00,1.5579
4360.00,1.5612
4359.00,1.5640
4358.00,1.5665
4357.00,1.5690
4356.00,1.5713
4355.00,1.5730
4354.00,1.5740
4353.00,1.5743
4352.00,1.5744
4351.00,1.5745
4350.00,1.5746
4349.00,1.5746
4348.00,1.5739
4347.00,1.5726
4346.00,1.5708
4345.00,1.5687
4344.00,1.5666
4343.00,1.5641
4342.00,1.5613
4341.00,1.5577
4340.00,1.5534
4339.00,1.5485
4338.00,1.5433
4337.00,1.5379
4336.00,1.5323
4335.00,1.5260
4334.00,1.5192
4333.00,1.5118
4332.00,1.5041
4331.00,1.4960
4330.00,1.4876
4329.00,1.4787
4328.00,1.4693
4327.00,1.4594
4326.00,1.4492
4325.00,1.4385
4324.00,1.4273
4323.00,1.4156
4322.00,1.4036
4321.00,1.3912
4320.00,1.3784
4319.00,1.3649
4318.00,1.3507
4317.00,1.3357
4316.00,1.3200
4315.00,1.3036
4314.00,1.2866
4313.00,1.2690
4312.00,1.2507
4311.00,1.2319
4310.00,1.2124
4309.00,1.1925
4308.00,1.1720
4307.00,1.1512
4306.00,1.1299
4305.00,1.1084
4304.00,1.0867
4303.00,1.0650
4302.00,1.0433
4301.00,1.0219
4300.00,1.0006
4299.00,0.9796
4298.00,0.9588
4297.00,0.9384
4296.00,0.9186
4295.00,0.8995
4294.00,0.8812
4293.00,0.8638
4292.00,0.8474
4291.00,0.8321
4290.00,0.8180
4289.00,0.8051
4288.00,0.7936
4287.00,0.7834
4286.00,0.7748
4285.00,0.7677
4284.00,0.7621
4283.00,0.7581
4282.00,0.7557
4281.00,0.7549
4280.00,0.7557
4279.00,0.7582
4278.00,0.7622
4277.00,0.7677
4276.00,0.7747
4275.00,0.7829
4274.00,0.7925
4273.00,0.8032
4272.00,0.8151
4271.00,0.8279
4270.00,0.8418
4269.00,0.8565
4268.00,0.8719
4267.00,0.8880
4266.00,0.9047
4265.00,0.9220
4264.00,0.9397
4263.00,0.9579
4262.00,0.9765
4261.00,0.9953
4260.00,1.0143
4259.00,1.0335
4258.00,1.0528
4257.00,1.0722
4256.00,1.0917
4255.00,1.1111
4254.00,1.1305
4253.00,1.1498
4252.00,1.1691
4251.00,1.1883
4250.00,1.2074
4249.00,1.2263
4248.00,1.2450
4247.00,1.2634
4246.00,1.2815
4245.00,1.2993
4244.00,1.3166
4243.00,1.3334
4242.00,1.3498
4241.00,1.3659
4240.00,1.3814
4239.00,1.3965
4238.00,1.4110
4237.00,1.4248
4236.00,1.4382
4235.00,1.4510
4234.00,1.4634
4233.00,1.4752
4232.00,1.4866
4231.00,1.4974
4230.00,1.5079
4229.00,1.5181
4228.00,1.5279
4227.00,1.5372
4226.00,1.5458
4225.00,1.5539
4224.00,1.5612
4223.00,1.5679
4222.00,1.5739
4221.00,1.5795
4220.00,1.5848
4219.00,1.5900
4218.00,1.5951
4217.00,1.5996
4216.00,1.6035
4215.00,1.6065
4214.00,1.6091
4213.00,1.6114
4212.00,1.6136
4211.00,1.6155
4210.00,1.6170
4209.00,1.6179
4208.00,1.6182
4207.00,1.6179
4206.00,1.6172
4205.00,1.6161
4204.00,1.6145
4203.00,1.6122
4202.00,1.6095
4201.00,1.6064
4200.00,1.6031
4199.00,1.5996
4198.00,1.5957
4197.00,1.5913
4196.00,1.5863
4195.00,1.5807
4194.00,1.5746
4193.00,1.5680
4192.00,1.5611
4191.00,1.5538
4190.00,1.5462
4189.00,1.5380
4188.00,1.5292
4187.00,1.5195
4186.00,1.5094
4185.00,1.4990
4184.00,1.4884
4183.00,1.4773
4182.00,1.4655
4181.00,1.4531
4180.00,1.4400
4179.00,1.4263
4178.00,1.4120
4177.00,1.3973
4176.00,1.3819
4175.00,1.3658
4174.00,1.3490
4173.00,1.3315
4172.00,1.3135
4171.00,1.2948
4170.00,1.2756
4169.00,1.2557
4168.00,1.2354
4167.00,1.2147
4166.00,1.1934
4165.00,1.1717
4164.00,1.1496
4163.00,1.1271
4162.00,1.1045
4161.00,1.0818
4160.00,1.0592
4159.00,1.0366
4158.00,1.0142
4157.00,0.9922
4156.00,0.9704
4155.00,0.9491
4154.00,0.9284
4153.00,0.9085
4152.00,0.8894
4151.00,0.8714
4150.00,0.8545
4149.00,0.8389
4148.00,0.8245
4147.00,0.8115
4146.00,0.8000
4145.00,0.7900
4144.00,0.7817
4143.00,0.7751
4142.00,0.7702
4141.00,0.7672
4140.00,0.7660
4139.00,0.7666
4138.00,0.7690
4137.00,0.7731
4136.00,0.7788
4135.00,0.7862
4134.00,0.7951
4133.00,0.8054
4132.00,0.8171
4131.00,0.8300
4130.00,0.8440
4129.00,0.8591
4128.00,0.8750
4127.00,0.8917
4126.00,0.9092
4125.00,0.9273
4124.00,0.9460
4123.00,0.9652
4122.00,0.9849
4121.00,1.0048
4120.00,1.0249
4119.00,1.0452
4118.00,1.0657
4117.00,1.0865
4116.00,1.1074
4115.00,1.1284
4114.00,1.1494
4113.00,1.1704
4112.00,1.1911
4111.00,1.2116
4110.00,1.2319
4109.00,1.2520
4108.00,1.2720
4107.00,1.2918
4106.00,1.3113
4105.00,1.3301
4104.00,1.3484
4103.00,1.3663
4102.00,1.3836
4101.00,1.4005
4100.00,1.4170
4099.00,1.4329
4098.00,1.4484
4097.00,1.4635
4096.00,1.4781
4095.00,1.4920
4094.00,1.5053
4093.00,1.5180
4092.00,1.5303
4091.00,1.5421
4090.00,1.5536
4089.00,1.5645
4088.00,1.5747
4087.00,1.5844
4086.00,1.5935
4085.00,1.6023
4084.00,1.6107
4083.00,1.6184
4082.00,1.6255
4081.00,1.6320
4080.00,1.6380
4079.00,1.6437
4078.00,1.6490
4077.00,1.6539
4076.00,1.6582
4075.00,1.6622
4074.00,1.6657
4073.00,1.6688
4072.00,1.6715
4071.00,1.6736
4070.00,1.6753
4069.00,1.6764
4068.00,1.6770
4067.00,1.6771
4066.00,1.6770
4065.00,1.6768
4064.00,1.6763
4063.00,1.6752
4062.00,1.6733
4061.00,1.6706
4060.00,1.6674
4059.00,1.6640
4058.00,1.6608
4057.00,1.6576
4056.00,1.6539
4055.00,1.6495
4054.00,1.6440
4053.00,1.6376
4052.00,1.6309
4051.00,1.6241
4050.00,1.6170
4049.00,1.6097
4048.00,1.6017
4047.00,1.5933
4046.00,1.5842
4045.00,1.5745
4044.00,1.5643
4043.00,1.5534
4042.00,1.5422
4041.00,1.5308
4040.00,1.5190
4039.00,1.5069
4038.00,1.4941
4037.00,1.4808
4036.00,1.4670
4035.00,1.4526
4034.00,1.4379
4033.00,1.4228
4032.00,1.4072
4031.00,1.3911
4030.00,1.3743
4029.00,1.3570
4028.00,1.3391
4027.00,1.3206
4026.00,1.3013
4025.00,1.2813
4024.00,1.2606
4023.00,1.2391
4022.00,1.2169
4021.00,1.1942
4020.00,1.1709
4019.00,1.1473
4018.00,1.1234
4017.00,1.0994
4016.00,1.0753
4015.00,1.0512
4014.00,1.0274
4013.00,1.0040
4012.00,0.9812
4011.00,0.9592
4010.00,0.9380
4009.00,0.9178
4008.00,0.8987
4007.00,0.8808
4006.00,0.8642
4005.00,0.8492
4004.00,0.8359
4003.00,0.8244
4002.00,0.8148
4001.00,0.8072
4000.00,0.8014
3999.00,0.7977
3998.00,0.7959
3997.00,0.7963
3996.00,0.7987
3995.00,0.8031
3994.00,0.8094
3993.00,0.8175
3992.00,0.8273
3991.00,0.8388
3990.00,0.8519
3989.00,0.8665
3988.00,0.8824
3987.00,0.8994
3986.00,0.9173
3985.00,0.9360
3984.00,0.9555
3983.00,0.9756
3982.00,0.9962
3981.00,1.0172
3980.00,1.0383
3979.00,1.0595
3978.00,1.0807
3977.00,1.1018
3976.00,1.1228
3975.00,1.1437
3974.00,1.1645
3973.00,1.1851
3972.00,1.2055
3971.00,1.2256
3970.00,1.2456
3969.00,1.2653
3968.00,1.2848
3967.00,1.3042
3966.00,1.3234
3965.00,1.3423
3964.00,1.3610
3963.00,1.3794
3962.00,1.3977
3961.00,1.4159
3960.00,1.4338
3959.00,1.4513
3958.00,1.4683
3957.00,1.4847
3956.00,1.5006
3955.00,1.5159
3954.00,1.5307
3953.00,1.5450
3952.00,1.5586
3951.00,1.5716
3950.00,1.5841
3949.00,1.5961
3948.00,1.6078
3947.00,1.6190
3946.00,1.6294
3945.00,1.6391
3944.00,1.6485
3943.00,1.6577
3942.00,1.6668
3941.00,1.6756
3940.00,1.6837
3939.00,1.6909
3938.00,1.6973
3937.00,1.7029
3936.00,1.7077
3935.00,1.7119
3934.00,1.7157
3933.00,1.7196
3932.00,1.7237
3931.00,1.7277
3930.00,1.7311
3929.00,1.7336
3928.00,1.7355
3927.00,1.7370
3926.00,1.7381
3925.00,1.7388
3924.00,1.7392
3923.00,1.7391
3922.00,1.7385
3921.00,1.7370
3920.00,1.7350
3919.00,1.7326
3918.00,1.7301
3917.00,1.7277
3916.00,1.7252
3915.00,1.7223
3914.00,1.7187
3913.00,1.7144
3912.00,1.7094
3911.00,1.7039
3910.00,1.6978
3909.00,1.6910
3908.00,1.6834
3907.00,1.6750
3906.00,1.6658
3905.00,1.6558
3904.00,1.6451
3903.00,1.6339
3902.00,1.6223
3901.00,1.6110
3900.00,1.6000
3899.00,1.5892
3898.00,1.5781
3897.00,1.5665
3896.00,1.5542
3895.00,1.5410
3894.00,1.5268
3893.00,1.5115
3892.00,1.4950
3891.00,1.4769
3890.00,1.4579
3889.00,1.4384
3888.00,1.4189
3887.00,1.3988
3886.00,1.3777
3885.00,1.3557
3884.00,1.3331
3883.00,1.3103
3882.00,1.2870
3881.00,1.2627
3880.00,1.2374
3879.00,1.2119
3878.00,1.1865
3877.00,1.1614
3876.00,1.1361
3875.00,1.1103
3874.00,1.0839
3873.00,1.0576
3872.00,1.0317
3871.00,1.0059
3870.00,0.9796
3869.00,0.9537
3868.00,0.9295
3867.00,0.9079
3866.00,0.8883
3865.00,0.8702
3864.00,0.8533
3863.00,0.8377
3862.00,0.8239
3861.00,0.8122
3860.00,0.8028
3859.00,0.7953
3858.00,0.7895
3857.00,0.7852
3856.00,0.7828
3855.00,0.7834
3854.00,0.7876
3853.00,0.7940
3852.00,0.8017
3851.00,0.8107
3850.00,0.8218
3849.00,0.8352
3848.00,0.8507
3847.00,0.8676
3846.00,0.8855
3845.00,0.9043
3844.00,0.9239
3843.00,0.9441
3842.00,0.9646
3841.00,0.9853
3840.00,1.0063
3839.00,1.0283
3838.00,1.0520
3837.00,1.0772
3836.00,1.1031
3835.00,1.1284
3834.00,1.1528
3833.00,1.1769
3832.00,1.2013
3831.00,1.2261
3830.00,1.2509
3829.00,1.2751
3828.00,1.2988
3827.00,1.3221
3826.00,1.3446
3825.00,1.3659
3824.00,1.3854
3823.00,1.4042
3822.00,1.4239
3821.00,1.4454
3820.00,1.4673
3819.00,1.4880
3818.00,1.5070
3817.00,1.5251
3816.00,1.5435
3815.00,1.5624
3814.00,1.5807
3813.00,1.5977
3812.00,1.6130
3811.00,1.6268
3810.00,1.6395
3809.00,1.6515
3808.00,1.6632
3807.00,1.6750
3806.00,1.6865
3805.00,1.6972
3804.00,1.7067
3803.00,1.7156
3802.00,1.7245
3801.00,1.7333
3800.00,1.7417
3799.00,1.7493
3798.00,1.7566
3797.00,1.7636
3796.00,1.7703
3795.00,1.7766
3794.00,1.7824
3793.00,1.7876
3792.00,1.7920
3791.00,1.7958
3790.00,1.7991
3789.00,1.8018
3788.00,1.8037
3787.00,1.8050
3786.00,1.8060
3785.00,1.8067
3784.00,1.8067
3783.00,1.8061
3782.00,1.8053
3781.00,1.8047
3780.00,1.8039
3779.00,1.8026
3778.00,1.8005
3777.00,1.7978
3776.00,1.7947
3775.00,1.7913
3774.00,1.7875
3773.00,1.7831
3772.00,1.7778
3771.00,1.7715
3770.00,1.7644
3769.00,1.7567
3768.00,1.7486
3767.00,1.7407
3766.00,1.7328
3765.00,1.7247
3764.00,1.7162
3763.00,1.7072
3762.00,1.6979
3761.00,1.6877
3760.00,1.6765
3759.00,1.6641
3758.00,1.6509
3757.00,1.6372
3756.00,1.6230
3755.00,1.6084
3754.00,1.5933
3753.00,1.5774
3752.00,1.5603
3751.00,1.5413
3750.00,1.5202
3749.00,1.4983
3748.00,1.4767
3747.00,1.4558
3746.00,1.4347
3745.00,1.4121
3744.00,1.3879
3743.00,1.3636
3742.00,1.3407
3741.00,1.3186
3740.00,1.2960
3739.00,1.2718
3738.00,1.2457
3737.00,1.2173
3736.00,1.1869
3735.00,1.1556
3734.00,1.1245
3733.00,1.0942
3732.00,1.0645
3731.00,1.0359
3730.00,1.0088
3729.00,0.9833
3728.00,0.9592
3727.00,0.9365
3726.00,0.9152
3725.00,0.8959
3724.00,0.8785
3723.00,0.8633
3722.00,0.8504
3721.00,0.8396
3720.00,0.8303
3719.00,0.8227
3718.00,0.8178
3717.00,0.8168
3716.00,0.8198
3715.00,0.8265
3714.00,0.8357
3713.00,0.8470
3712.00,0.8603
3711.00,0.8753
3710.00,0.8918
3709.00,0.9099
3708.00,0.9298
3707.00,0.9513
3706.00,0.9739
3705.00,0.9970
3704.00,1.0208
3703.00,1.0458
3702.00,1.0725
3701.00,1.1005
3700.00,1.1291
3699.00,1.1575
3698.00,1.1854
3697.00,1.2132
3696.00,1.2408
3695.00,1.2679
3694.00,1.2939
3693.00,1.3190
3692.00,1.3434
3691.00,1.3679
3690.00,1.3930
3689.00,1.4194
3688.00,1.4476
3687.00,1.4765
3686.00,1.5040
3685.00,1.5288
3684.00,1.5513
3683.00,1.5721
3682.00,1.5919
3681.00,1.6109
3680.00,1.6290
3679.00,1.6455
3678.00,1.6605
3677.00,1.6751
3676.00,1.6907
3675.00,1.7074
3674.00,1.7239
3673.00,1.7388
3672.00,1.7519
3671.00,1.7644
3670.00,1.7771
3669.00,1.7903
3668.00,1.8036
3667.00,1.8161
3666.00,1.8273
3665.00,1.8372
3664.00,1.8460
3663.00,1.8542
3662.00,1.8618
3661.00,1.8689
3660.00,1.8752
3659.00,1.8805
3658.00,1.8852
3657.00,1.8899
3656.00,1.8950
3655.00,1.8997
3654.00,1.9034
3653.00,1.9057
3652.00,1.9074
3651.00,1.9095
3650.00,1.9122
3649.00,1.9150
3648.00,1.9176
3647.00,1.9198
3646.00,1.9220
3645.00,1.9245
3644.00,1.9271
3643.00,1.9296
3642.00,1.9316
3641.00,1.9329
3640.00,1.9332
3639.00,1.9328
3638.00,1.9315
3637.00,1.9297
3636.00,1.9275
3635.00,1.9248
3634.00,1.9214
3633.00,1.9169
3632.00,1.9110
3631.00,1.9039
3630.00,1.8968
3629.00,1.8904
3628.00,1.8850
3627.00,1.8803
3626.00,1.8758
3625.00,1.8710
3624.00,1.8656
3623.00,1.8595
3622.00,1.8527
3621.00,1.8453
3620.00,1.8375
3619.00,1.8294
3618.00,1.8204
3617.00,1.8103
3616.00,1.7997
3615.00,1.7893
3614.00,1.7792
3613.00,1.7688
3612.00,1.7575
3611.00,1.7451
3610.00,1.7319
3609.00,1.7184
3608.00,1.7045
3607.00,1.6904
3606.00,1.6762
3605.00,1.6619
3604.00,1.6473
3603.00,1.6320
3602.00,1.6160
3601.00,1.5991
3600.00,1.5812
3599.00,1.5624
3598.00,1.5427
3597.00,1.5225
3596.00,1.5020
3595.00,1.4812
3594.00,1.4601
3593.00,1.4388
3592.00,1.4173
3591.00,1.3956
3590.00,1.3737
3589.00,1.3518
3588.00,1.3300
3587.00,1.3085
3586.00,1.2878
3585.00,1.2683
3584.00,1.2502
3583.00,1.2334
3582.00,1.2178
3581.00,1.2034
3580.00,1.1902
3579.00,1.1783
3578.00,1.1678
3577.00,1.1589
3576.00,1.1514
3575.00,1.1458
3574.00,1.1418
3573.00,1.1395
3572.00,1.1386
3571.00,1.1390
3570.00,1.1411
3569.00,1.1453
3568.00,1.1521
3567.00,1.1611
3566.00,1.1719
3565.00,1.1839
3564.00,1.1968
3563.00,1.2104
3562.00,1.2251
3561.00,1.2407
3560.00,1.2573
3559.00,1.2748
3558.00,1.2926
3557.00,1.3106
3556.00,1.3287
3555.00,1.3470
3554.00,1.3657
3553.00,1.3848
3552.00,1.4042
3551.00,1.4234
3550.00,1.4422
3549.00,1.4606
3548.00,1.4788
3547.00,1.4972
3546.00,1.5158
3545.00,1.5345
3544.00,1.5531
3543.00,1.5713
3542.00,1.5889
3541.00,1.6058
3540.00,1.6221
3539.00,1.6378
3538.00,1.6533
3537.00,1.6687
3536.00,1.6841
3535.00,1.6992
3534.00,1.7140
3533.00,1.7282
3532.00,1.7420
3531.00,1.7555
3530.00,1.7684
3529.00,1.7806
3528.00,1.7921
3527.00,1.8033
3526.00,1.8145
3525.00,1.8257
3524.00,1.8369
3523.00,1.8477
3522.00,1.8584
3521.00,1.8686
3520.00,1.8781
3519.00,1.8868
3518.00,1.8950
3517.00,1.9030
3516.00,1.9107
3515.00,1.9179
3514.00,1.9244
3513.00,1.9304
3512.00,1.9360
3511.00,1.9411
3510.00,1.9462
3509.00,1.9514
3508.00,1.9568
3507.00,1.9619
3506.00,1.9660
3505.00,1.9694
3504.00,1.9724
3503.00,1.9752
3502.00,1.9777
3501.00,1.9792
3500.00,1.9796
3499.00,1.9794
3498.00,1.9794
3497.00,1.9799
3496.00,1.9807
3495.00,1.9814
3494.00,1.9817
3493.00,1.9812
3492.00,1.9796
3491.00,1.9770
3490.00,1.9735
3489.00,1.9698
3488.00,1.9659
3487.00,1.9620
3486.00,1.9581
3485.00,1.9537
3484.00,1.9486
3483.00,1.9427
3482.00,1.9366
3481.00,1.9306
3480.00,1.9243
3479.00,1.9172
3478.00,1.9090
3477.00,1.9001
3476.00,1.8907
3475.00,1.8810
3474.00,1.8712
3473.00,1.8611
3472.00,1.8507
3471.00,1.8397
3470.00,1.8279
3469.00,1.8154
3468.00,1.8023
3467.00,1.7885
3466.00,1.7742
3465.00,1.7595
3464.00,1.7441
3463.00,1.7277
3462.00,1.7105
3461.00,1.6926
3460.00,1.6742
3459.00,1.6551
3458.00,1.6351
3457.00,1.6143
3456.00,1.5927
3455.00,1.5705
3454.00,1.5477
3453.00,1.5244
3452.00,1.5003
3451.00,1.4756
3450.00,1.4502
3449.00,1.4245
3448.00,1.3985
3447.00,1.3722
3446.00,1.3458
3445.00,1.3195
3444.00,1.2936
3443.00,1.2682
3442.00,1.2433
3441.00,1.2190
3440.00,1.1956
3439.00,1.1733
3438.00,1.1524
3437.00,1.1329
3436.00,1.1152
3435.00,1.0992
3434.00,1.0853
3433.00,1.0734
3432.00,1.0637
3431.00,1.0563
3430.00,1.0512
3429.00,1.0484
3428.00,1.0480
3427.00,1.0500
3426.00,1.0544
3425.00,1.0611
3424.00,1.0699
3423.00,1.0807
3422.00,1.0935
3421.00,1.1081
3420.00,1.1243
3419.00,1.1419
3418.00,1.1608
3417.00,1.1808
3416.00,1.2017
3415.00,1.2234
3414.00,1.2457
3413.00,1.2686
3412.00,1.2919
3411.00,1.3157
3410.00,1.3397
3409.00,1.3640
3408.00,1.3883
3407.00,1.4125
3406.00,1.4365
3405.00,1.4603
3404.00,1.4838
3403.00,1.5069
3402.00,1.5296
3401.00,1.5519
3400.00,1.5739
3399.00,1.5955
3398.00,1.6167
3397.00,1.6374
3396.00,1.6576
3395.00,1.6773
3394.00,1.6966
3393.00,1.7155
3392.00,1.7337
3391.00,1.7515
3390.00,1.7685
3389.00,1.7849
3388.00,1.8003
3387.00,1.8150
3386.00,1.8293
3385.00,1.8437
3384.00,1.8580
3383.00,1.8716
3382.00,1.8841
3381.00,1.8958
3380.00,1.9072
3379.00,1.9183
3378.00,1.9291
3377.00,1.9391
3376.00,1.9484
3375.00,1.9570
3374.00,1.9653
3373.00,1.9733
3372.00,1.9811
3371.00,1.9884
3370.00,1.9953
3369.00,2.0018
3368.00,2.0077
3367.00,2.0129
3366.00,2.0172
3365.00,2.0208
3364.00,2.0240
3363.00,2.0269
3362.00,2.0296
3361.00,2.0319
3360.00,2.0340
3359.00,2.0358
3358.00,2.0372
3357.00,2.0380
3356.00,2.0380
3355.00,2.0374
3354.00,2.0363
3353.00,2.0351
3352.00,2.0338
3351.00,2.0327
3350.00,2.0314
3349.00,2.0297
3348.00,2.0272
3347.00,2.0240
3346.00,2.0201
3345.00,2.0156
3344.00,2.0106
3343.00,2.0049
3342.00,1.9986
3341.00,1.9918
3340.00,1.9847
3339.00,1.9775
3338.00,1.9700
3337.00,1.9620
3336.00,1.9533
3335.00,1.9440
3334.00,1.9344
3333.00,1.9246
3332.00,1.9144
3331.00,1.9036
3330.00,1.8920
3329.00,1.8798
3328.00,1.8672
3327.00,1.8540
3326.00,1.8404
3325.00,1.8262
3324.00,1.8113
3323.00,1.7954
3322.00,1.7785
3321.00,1.7606
3320.00,1.7421
3319.00,1.7230
3318.00,1.7032
3317.00,1.6826
3316.00,1.6612
3315.00,1.6389
3314.00,1.6157
3313.00,1.5918
3312.00,1.5674
3311.00,1.5424
3310.00,1.5169
3309.00,1.4908
3308.00,1.4642
3307.00,1.4373
3306.00,1.4102
3305.00,1.3831
3304.00,1.3560
3303.00,1.3292
3302.00,1.3029
3301.00,1.2772
3300.00,1.2524
3299.00,1.2286
3298.00,1.2060
3297.00,1.1848
3296.00,1.1652
3295.00,1.1475
3294.00,1.1317
3293.00,1.1180
3292.00,1.1063
3291.00,1.0969
3290.00,1.0899
3289.00,1.0852
3288.00,1.0831
3287.00,1.0833
3286.00,1.0859
3285.00,1.0909
3284.00,1.0982
3283.00,1.1077
3282.00,1.1193
3281.00,1.1328
3280.00,1.1481
3279.00,1.1650
3278.00,1.1834
3277.00,1.2029
3276.00,1.2236
3275.00,1.2452
3274.00,1.2677
3273.00,1.2909
3272.00,1.3147
3271.00,1.3389
3270.00,1.3635
3269.00,1.3885
3268.00,1.4139
3267.00,1.4395
3266.00,1.4652
3265.00,1.4906
3264.00,1.5158
3263.00,1.5408
3262.00,1.5655
3261.00,1.5899
3260.00,1.6139
3259.00,1.6373
3258.00,1.6601
3257.00,1.6824
3256.00,1.7043
3255.00,1.7257
3254.00,1.7466
3253.00,1.7670
3252.00,1.7868
3251.00,1.8061
3250.00,1.8247
3249.00,1.8425
3248.00,1.8593
3247.00,1.8753
3246.00,1.8906
3245.00,1.9055
3244.00,1.9199
3243.00,1.9335
3242.00,1.9463
3241.00,1.9586
3240.00,1.9706
3239.00,1.9822
3238.00,1.9933
3237.00,2.0037
3236.00,2.0134
3235.00,2.0226
3234.00,2.0314
3233.00,2.0395
3232.00,2.0470
3231.00,2.0541
3230.00,2.0608
3229.00,2.0672
3228.00,2.0730
3227.00,2.0783
3226.00,2.0833
3225.00,2.0881
3224.00,2.0923
3223.00,2.0960
3222.00,2.0994
3221.00,2.1027
3220.00,2.1056
3219.00,2.1078
3218.00,2.1092
3217.00,2.1098
3216.00,2.1100
3215.00,2.1098
3214.00,2.1096
3213.00,2.1092
3212.00,2.1083
3211.00,2.1067
3210.00,2.1048
3209.00,2.1029
3208.00,2.1011
3207.00,2.0991
3206.00,2.0967
3205.00,2.0938
3204.00,2.0903
3203.00,2.0861
3202.00,2.0814
3201.00,2.0765
3200.00,2.0716
3199.00,2.0660
3198.00,2.0594
3197.00,2.0514
3196.00,2.0423
3195.00,2.0324
3194.00,2.0221
3193.00,2.0117
3192.00,2.0009
3191.00,1.9895
3190.00,1.9775
3189.00,1.9650
3188.00,1.9519
3187.00,1.9379
3186.00,1.9228
3185.00,1.9068
3184.00,1.8902
3183.00,1.8733
3182.00,1.8559
3181.00,1.8379
3180.00,1.8191
3179.00,1.7993
3178.00,1.7786
3177.00,1.7571
3176.00,1.7353
3175.00,1.7138
3174.00,1.6930
3173.00,1.6735
3172.00,1.6558
3171.00,1.6409
3170.00,1.6302
3169.00,1.6248
3168.00,1.6255
3167.00,1.6316
3166.00,1.6410
3165.00,1.6501
3164.00,1.6543
3163.00,1.6497
3162.00,1.6341
3161.00,1.6079
3160.00,1.5734
3159.00,1.5338
3158.00,1.4921
3157.00,1.4509
3156.00,1.4116
3155.00,1.3751
3154.00,1.3418
3153.00,1.3120
3152.00,1.2856
3151.00,1.2628
3150.00,1.2436
3149.00,1.2279
3148.00,1.2156
3147.00,1.2066
3146.00,1.2007
3145.00,1.1978
3144.00,1.1977
3143.00,1.2006
3142.00,1.2063
3141.00,1.2148
3140.00,1.2258
3139.00,1.2391
3138.00,1.2545
3137.00,1.2716
3136.00,1.2902
3135.00,1.3103
3134.00,1.3316
3133.00,1.3541
3132.00,1.3776
3131.00,1.4018
3130.00,1.4264
3129.00,1.4514
3128.00,1.4767
3127.00,1.5023
3126.00,1.5280
3125.00,1.5538
3124.00,1.5795
3123.00,1.6053
3122.00,1.6308
3121.00,1.6560
3120.00,1.6808
3119.00,1.7052
3118.00,1.7293
3117.00,1.7530
3116.00,1.7761
3115.00,1.7984
3114.00,1.8198
3113.00,1.8403
3112.00,1.8600
3111.00,1.8791
3110.00,1.8976
3109.00,1.9158
3108.00,1.9334
3107.00,1.9506
3106.00,1.9673
3105.00,1.9833
3104.00,1.9983
3103.00,2.0122
3102.00,2.0254
3101.00,2.0383
3100.00,2.0508
3099.00,2.0626
3098.00,2.0738
3097.00,2.0845
3096.00,2.0949
3095.00,2.1050
3094.00,2.1148
3093.00,2.1241
3092.00,2.1329
3091.00,2.1411
3090.00,2.1484
3089.00,2.1549
3088.00,2.1604
3087.00,2.1651
3086.00,2.1692
3085.00,2.1733
3084.00,2.1773
3083.00,2.1812
3082.00,2.1850
3081.00,2.1889
3080.00,2.1927
3079.00,2.1963
3078.00,2.1993
3077.00,2.2016
3076.00,2.2033
3075.00,2.2046
3074.00,2.2057
3073.00,2.2060
3072.00,2.2052
3071.00,2.2032
3070.00,2.2006
3069.00,2.1980
3068.00,2.1958
3067.00,2.1936
3066.00,2.1914
3065.00,2.1888
3064.00,2.1856
3063.00,2.1816
3062.00,2.1767
3061.00,2.1709
3060.00,2.1644
3059.00,2.1576
3058.00,2.1508
3057.00,2.1438
3056.00,2.1363
3055.00,2.1280
3054.00,2.1191
3053.00,2.1100
3052.00,2.1006
3051.00,2.0906
3050.00,2.0799
3049.00,2.0686
3048.00,2.0565
3047.00,2.0434
3046.00,2.0296
3045.00,2.0156
3044.00,2.0016
3043.00,1.9877
3042.00,1.9734
3041.00,1.9582
3040.00,1.9420
3039.00,1.9250
3038.00,1.9073
3037.00,1.8893
3036.00,1.8709
3035.00,1.8522
3034.00,1.8332
3033.00,1.8140
3032.00,1.7948
3031.00,1.7758
3030.00,1.7569
3029.00,1.7384
3028.00,1.7202
3027.00,1.7028
3026.00,1.6863
3025.00,1.6709
3024.00,1.6570
3023.00,1.6446
3022.00,1.6339
3021.00,1.6250
3020.00,1.6178
3019.00,1.6127
3018.00,1.6098
3017.00,1.6095
3016.00,1.6119
3015.00,1.6169
3014.00,1.6242
3013.00,1.6335
3012.00,1.6445
3011.00,1.6570
3010.00,1.6706
3009.00,1.6851
3008.00,1.7000
3007.00,1.7145
3006.00,1.7281
3005.00,1.7403
3004.00,1.7507
3003.00,1.7588
3002.00,1.7644
3001.00,1.7675
3000.00,1.7686
2999.00,1.7681
2998.00,1.7665
2997.00,1.7641
2996.00,1.7614
2995.00,1.7588
2994.00,1.7570
2993.00,1.7567
2992.00,1.7582
2991.00,1.7619
2990.00,1.7678
2989.00,1.7762
2988.00,1.7872
2987.00,1.8007
2986.00,1.8164
2985.00,1.8341
2984.00,1.8534
2983.00,1.8741
2982.00,1.8959
2981.00,1.9189
2980.00,1.9427
2979.00,1.9671
2978.00,1.9916
2977.00,2.0162
2976.00,2.0407
2975.00,2.0653
2974.00,2.0899
2973.00,2.1140
2972.00,2.1373
2971.00,2.1597
2970.00,2.1811
2969.00,2.2012
2968.00,2.2197
2967.00,2.2369
2966.00,2.2535
2965.00,2.2697
2964.00,2.2855
2963.00,2.3012
2962.00,2.3169
2961.00,2.3323
2960.00,2.3467
2959.00,2.3595
2958.00,2.3714
2957.00,2.3835
2956.00,2.3969
2955.00,2.4116
2954.00,2.4268
2953.00,2.4416
2952.00,2.4556
2951.00,2.4697
2950.00,2.4852
2949.00,2.5022
2948.00,2.5187
2947.00,2.5330
2946.00,2.5447
2945.00,2.5534
2944.00,2.5569
2943.00,2.5527
2942.00,2.5417
2941.00,2.5268
2940.00,2.5102
2939.00,2.4926
2938.00,2.4746
2937.00,2.4577
2936.00,2.4431
2935.00,2.4311
2934.00,2.4209
2933.00,2.4118
2932.00,2.4029
2931.00,2.3940
2930.00,2.3861
2929.00,2.3803
2928.00,2.3768
2927.00,2.3745
2926.00,2.3723
2925.00,2.3696
2924.00,2.3669
2923.00,2.3648
2922.00,2.3635
2921.00,2.3625
2920.00,2.3607
2919.00,2.3577
2918.00,2.3540
2917.00,2.3511
2916.00,2.3497
2915.00,2.3496
2914.00,2.3499
2913.00,2.3498
2912.00,2.3486
2911.00,2.3463
2910.00,2.3429
2909.00,2.3391
2908.00,2.3353
2907.00,2.3318
2906.00,2.3283
2905.00,2.3243
2904.00,2.3195
2903.00,2.3136
2902.00,2.3069
2901.00,2.2996
2900.00,2.2917
2899.00,2.2831
2898.00,2.2741
2897.00,2.2650
2896.00,2.2556
2895.00,2.2455
2894.00,2.2340
2893.00,2.2213
2892.00,2.2079
2891.00,2.1943
2890.00,2.1803
2889.00,2.1660
2888.00,2.1513
2887.00,2.1361
2886.00,2.1205
2885.00,2.1047
2884.00,2.0888
2883.00,2.0726
2882.00,2.0563
2881.00,2.0401
2880.00,2.0247
2879.00,2.0104
2878.00,1.9974
2877.00,1.9859
2876.00,1.9764
2875.00,1.9691
2874.00,1.9641
2873.00,1.9609
2872.00,1.9588
2871.00,1.9570
2870.00,1.9548
2869.00,1.9514
2868.00,1.9462
2867.00,1.9386
2866.00,1.9283
2865.00,1.9155
2864.00,1.9006
2863.00,1.8833
2862.00,1.8633
2861.00,1.8399
2860.00,1.8130
2859.00,1.7827
2858.00,1.7494
2857.00,1.7137
2856.00,1.6762
2855.00,1.6376
2854.00,1.5986
2853.00,1.5600
2852.00,1.5228
2851.00,1.4877
2850.00,1.4555
2849.00,1.4269
2848.00,1.4022
2847.00,1.3818
2846.00,1.3659
2845.00,1.3545
2844.00,1.3475
2843.00,1.3450
2842.00,1.3468
2841.00,1.3524
2840.00,1.3617
2839.00,1.3740
2838.00,1.3891
2837.00,1.4066
2836.00,1.4262
2835.00,1.4478
2834.00,1.4711
2833.00,1.4958
2832.00,1.5216
2831.00,1.5483
2830.00,1.5758
2829.00,1.6039
2828.00,1.6322
2827.00,1.6607
2826.00,1.6892
2825.00,1.7177
2824.00,1.7462
2823.00,1.7746
2822.00,1.8028
2821.00,1.8307
2820.00,1.8583
2819.00,1.8854
2818.00,1.9119
2817.00,1.9377
2816.00,1.9629
2815.00,1.9876
2814.00,2.0114
2813.00,2.0341
2812.00,2.0555
2811.00,2.0757
2810.00,2.0949
2809.00,2.1135
2808.00,2.1313
2807.00,2.1483
2806.00,2.1645
2805.00,2.1797
2804.00,2.1941
2803.00,2.2078
2802.00,2.2214
2801.00,2.2350
2800.00,2.2482
2799.00,2.2607
2798.00,2.2724
2797.00,2.2832
2796.00,2.2929
2795.00,2.3015
2794.00,2.3095
2793.00,2.3170
2792.00,2.3239
2791.00,2.3300
2790.00,2.3357
2789.00,2.3415
2788.00,2.3476
2787.00,2.3540
2786.00,2.3599
2785.00,2.3646
2784.00,2.3676
2783.00,2.3686
2782.00,2.3687
2781.00,2.3690
2780.00,2.3702
2779.00,2.3724
2778.00,2.3745
2777.00,2.3758
2776.00,2.3760
2775.00,2.3753
2774.00,2.3738
2773.00,2.3719
2772.00,2.3699
2771.00,2.3682
2770.00,2.3664
2769.00,2.3642
2768.00,2.3607
2767.00,2.3560
2766.00,2.3504
2765.00,2.3447
2764.00,2.3394
2763.00,2.3344
2762.00,2.3284
2761.00,2.3206
2760.00,2.3110
2759.00,2.3009
2758.00,2.2914
2757.00,2.2823
2756.00,2.2728
2755.00,2.2622
2754.00,2.2502
2753.00,2.2371
2752.00,2.2235
2751.00,2.2099
2750.00,2.1965
2749.00,2.1828
2748.00,2.1679
2747.00,2.1516
2746.00,2.1343
2745.00,2.1162
2744.00,2.0972
2743.00,2.0769
2742.00,2.0558
2741.00,2.0338
2740.00,2.0111
2739.00,1.9871
2738.00,1.9616
2737.00,1.9349
2736.00,1.9072
2735.00,1.8786
2734.00,1.8487
2733.00,1.8173
2732.00,1.7844
2731.00,1.7499
2730.00,1.7139
2729.00,1.6764
2728.00,1.6375
2727.00,1.5973
2726.00,1.5562
2725.00,1.5145
2724.00,1.4727
2723.00,1.4310
2722.00,1.3899
2721.00,1.3497
2720.00,1.3112
2719.00,1.2746
2718.00,1.2406
2717.00,1.2097
2716.00,1.1824
2715.00,1.1590
2714.00,1.1400
2713.00,1.1258
2712.00,1.1165
2711.00,1.1123
2710.00,1.1130
2709.00,1.1188
2708.00,1.1294
2707.00,1.1446
2706.00,1.1639
2705.00,1.1868
2704.00,1.2129
2703.00,1.2416
2702.00,1.2725
2701.00,1.3053
2700.00,1.3396
2699.00,1.3751
2698.00,1.4115
2697.00,1.4486
2696.00,1.4861
2695.00,1.5240
2694.00,1.5619
2693.00,1.6000
2692.00,1.6379
2691.00,1.6758
2690.00,1.7132
2689.00,1.7500
2688.00,1.7859
2687.00,1.8210
2686.00,1.8553
2685.00,1.8887
2684.00,1.9210
2683.00,1.9522
2682.00,1.9819
2681.00,2.0102
2680.00,2.0372
2679.00,2.0630
2678.00,2.0877
2677.00,2.1113
2676.00,2.1334
2675.00,2.1540
2674.00,2.1734
2673.00,2.1918
2672.00,2.2094
2671.00,2.2260
2670.00,2.2416
2669.00,2.2564
2668.00,2.2705
2667.00,2.2841
2666.00,2.2976
2665.00,2.3108
2664.00,2.3234
2663.00,2.3350
2662.00,2.3460
2661.00,2.3572
2660.00,2.3688
2659.00,2.3803
2658.00,2.3910
2657.00,2.4002
2656.00,2.4079
2655.00,2.4145
2654.00,2.4209
2653.00,2.4276
2652.00,2.4340
2651.00,2.4393
2650.00,2.4432
2649.00,2.4464
2648.00,2.4495
2647.00,2.4529
2646.00,2.4565
2645.00,2.4600
2644.00,2.4630
2643.00,2.4653
2642.00,2.4672
2641.00,2.4694
2640.00,2.4716
2639.00,2.4732
2638.00,2.4737
2637.00,2.4734
2636.00,2.4722
2635.00,2.4703
2634.00,2.4678
2633.00,2.4654
2632.00,2.4637
2631.00,2.4625
2630.00,2.4614
2629.00,2.4602
2628.00,2.4588
2627.00,2.4563
2626.00,2.4520
2625.00,2.4460
2624.00,2.4392
2623.00,2.4324
2622.00,2.4256
2621.00,2.4188
2620.00,2.4115
2619.00,2.4035
2618.00,2.3947
2617.00,2.3848
2616.00,2.3737
2615.00,2.3614
2614.00,2.3485
2613.00,2.3358
2612.00,2.3233
2611.00,2.3102
2610.00,2.2956
2609.00,2.2796
2608.00,2.2629
2607.00,2.2460
2606.00,2.2289
2605.00,2.2109
2604.00,2.1913
2603.00,2.1703
2602.00,2.1481
2601.00,2.1251
2600.00,2.1014
2599.00,2.0768
2598.00,2.0506
2597.00,2.0227
2596.00,1.9933
2595.00,1.9627
2594.00,1.9306
2593.00,1.8969
2592.00,1.8616
2591.00,1.8245
2590.00,1.7858
2589.00,1.7453
2588.00,1.7031
2587.00,1.6593
2586.00,1.6143
2585.00,1.5686
2584.00,1.5226
2583.00,1.4767
2582.00,1.4316
2581.00,1.3878
2580.00,1.3460
2579.00,1.3069
2578.00,1.2709
2577.00,1.2385
2576.00,1.2104
2575.00,1.1869
2574.00,1.1685
2573.00,1.1555
2572.00,1.1480
2571.00,1.1462
2570.00,1.1499
2569.00,1.1589
2568.00,1.1730
2567.00,1.1916
2566.00,1.2142
2565.00,1.2405
2564.00,1.2697
2563.00,1.3015
2562.00,1.3354
2561.00,1.3712
2560.00,1.4084
2559.00,1.4469
2558.00,1.4863
2557.00,1.5261
2556.00,1.5663
2555.00,1.6067
2554.00,1.6473
2553.00,1.6879
2552.00,1.7282
2551.00,1.7677
2550.00,1.8065
2549.00,1.8444
2548.00,1.8814
2547.00,1.9176
2546.00,1.9527
2545.00,1.9867
2544.00,2.0194
2543.00,2.0506
2542.00,2.0803
2541.00,2.1087
2540.00,2.1358
2539.00,2.1619
2538.00,2.1873
2537.00,2.2116
2536.00,2.2346
2535.00,2.2558
2534.00,2.2756
2533.00,2.2947
2532.00,2.3132
2531.00,2.3309
2530.00,2.3479
2529.00,2.3643
2528.00,2.3799
2527.00,2.3942
2526.00,2.4069
2525.00,2.4185
2524.00,2.4296
2523.00,2.4406
2522.00,2.4516
2521.00,2.4626
2520.00,2.4731
2519.00,2.4825
2518.00,2.4911
2517.00,2.4989
2516.00,2.5061
2515.00,2.5126
2514.00,2.5194
2513.00,2.5272
2512.00,2.5352
2511.00,2.5415
2510.00,2.5456
2509.00,2.5489
2508.00,2.5532
2507.00,2.5587
2506.00,2.5639
2505.00,2.5673
2504.00,2.5691
2503.00,2.5701
2502.00,2.5714
2501.00,2.5734
2500.00,2.5758
2499.00,2.5773
2498.00,2.5773
2497.00,2.5764
2496.00,2.5759
2495.00,2.5756
2494.00,2.5737
2493.00,2.5693
2492.00,2.5636
2491.00,2.5586
2490.00,2.5548
2489.00,2.5513
2488.00,2.5470
2487.00,2.5421
2486.00,2.5373
2485.00,2.5326
2484.00,2.5276
2483.00,2.5216
2482.00,2.5142
2481.00,2.5058
2480.00,2.4970
2479.00,2.4884
2478.00,2.4798
2477.00,2.4707
2476.00,2.4606
2475.00,2.4499
2474.00,2.4388
2473.00,2.4272
2472.00,2.4148
2471.00,2.4011
2470.00,2.3860
2469.00,2.3698
2468.00,2.3528
2467.00,2.3352
2466.00,2.3169
2465.00,2.2978
2464.00,2.2778
2463.00,2.2571
2462.00,2.2354
2461.00,2.2129
2460.00,2.1895
2459.00,2.1648
2458.00,2.1385
2457.00,2.1106
2456.00,2.0811
2455.00,2.0501
2454.00,2.0177
2453.00,1.9839
2452.00,1.9486
2451.00,1.9118
2450.00,1.8733
2449.00,1.8329
2448.00,1.7912
2447.00,1.7486
2446.00,1.7054
2445.00,1.6620
2444.00,1.6188
2443.00,1.5761
2442.00,1.5345
2441.00,1.4947
2440.00,1.4571
2439.00,1.4224
2438.00,1.3910
2437.00,1.3636
2436.00,1.3405
2435.00,1.3222
2434.00,1.3092
2433.00,1.3016
2432.00,1.2995
2431.00,1.3030
2430.00,1.3118
2429.00,1.3259
2428.00,1.3448
2427.00,1.3680
2426.00,1.3951
2425.00,1.4254
2424.00,1.4584
2423.00,1.4935
2422.00,1.5301
2421.00,1.5678
2420.00,1.6062
2419.00,1.6449
2418.00,1.6837
2417.00,1.7224
2416.00,1.7607
2415.00,1.7982
2414.00,1.8349
2413.00,1.8705
2412.00,1.9049
2411.00,1.9380
2410.00,1.9699
2409.00,2.0008
2408.00,2.0308
2407.00,2.0598
2406.00,2.0875
2405.00,2.1141
2404.00,2.1399
2403.00,2.1652
2402.00,2.1901
2401.00,2.2146
2400.00,2.2385
2399.00,2.2621
2398.00,2.2852
2397.00,2.3079
2396.00,2.3294
2395.00,2.3499
2394.00,2.3697
2393.00,2.3892
2392.00,2.4087
2391.00,2.4288
2390.00,2.4505
2389.00,2.4749
2388.00,2.5011
2387.00,2.5323
2386.00,2.5602
2385.00,2.6010
2384.00,2.6217
2383.00,2.6868
2382.00,2.6076
2381.00,2.5462
2380.00,2.5778
2379.00,2.5735
2378.00,2.5881
2377.00,2.5910
2376.00,2.6009
2375.00,2.6059
2374.00,2.6167
2373.00,2.6187
2372.00,2.6453
2371.00,2.6602
2370.00,2.6475
2369.00,2.6474
2368.00,2.6392
2367.00,2.6422
2366.00,2.6466
2365.00,2.6482
2364.00,2.6527
2363.00,2.6571
2362.00,2.6614
2361.00,2.6631
2360.00,2.6623
2359.00,2.6608
2358.00,2.6604
2357.00,2.6617
2356.00,2.6632
2355.00,2.6630
2354.00,2.6603
2353.00,2.6561
2352.00,2.6523
2351.00,2.6499
2350.00,2.6482
2349.00,2.6460
2348.00,2.6426
2347.00,2.6383
2346.00,2.6331
2345.00,2.6253
2344.00,2.6170
2343.00,2.6037
2342.00,2.5977
2341.00,2.5791
2340.00,2.5839
2339.00,2.5222
2338.00,2.4822
2337.00,2.4964
2336.00,2.4935
2335.00,2.5034
2334.00,2.5112
2333.00,2.5187
2332.00,2.5165
2331.00,2.5069
2330.00,2.4907
2329.00,2.4768
2328.00,2.4657
2327.00,2.4609
2326.00,2.4579
2325.00,2.4518
2324.00,2.4411
2323.00,2.4224
2322.00,2.3984
2321.00,2.3672
2320.00,2.3329
2319.00,2.2970
2318.00,2.2643
2317.00,2.2346
2316.00,2.2069
2315.00,2.1766
2314.00,2.1409
2313.00,2.0985
2312.00,2.0510
2311.00,2.0009
2310.00,1.9508
2309.00,1.9026
2308.00,1.8588
2307.00,1.8218
2306.00,1.7949
2305.00,1.7804
2304.00,1.7804
2303.00,1.7950
2302.00,1.8238
2301.00,1.8659
2300.00,1.9191
2299.00,1.9818
2298.00,2.0501
2297.00,2.1212
2296.00,2.1894
2295.00,2.2492
2294.00,2.2927
2293.00,2.3128
2292.00,2.3042
2291.00,2.2679
2290.00,2.2107
2289.00,2.1424
2288.00,2.0718
2287.00,2.0057
2286.00,1.9492
2285.00,1.9055
2284.00,1.8760
2283.00,1.8606
2282.00,1.8584
2281.00,1.8682
2280.00,1.8887
2279.00,1.9186
2278.00,1.9561
2277.00,1.9997
2276.00,2.0478
2275.00,2.0990
2274.00,2.1517
2273.00,2.2047
2272.00,2.2575
2271.00,2.3096
2270.00,2.3611
2269.00,2.4117
2268.00,2.4612
2267.00,2.5092
2266.00,2.5556
2265.00,2.6003
2264.00,2.6439
2263.00,2.6882
2262.00,2.7353
2261.00,2.7869
2260.00,2.8452
2259.00,2.9134
2258.00,2.9979
2257.00,3.1073
2256.00,3.2482
2255.00,3.4176
2254.00,3.5830
2253.00,3.6625
2252.00,3.5936
2251.00,3.4276
2250.00,3.2375
2249.00,3.0523
2248.00,2.8787
2247.00,2.7193
2246.00,2.5781
2245.00,2.4593
2244.00,2.3658
2243.00,2.2985
2242.00,2.2564
2241.00,2.2372
2240.00,2.2373
2239.00,2.2528
2238.00,2.2797
2237.00,2.3141
2236.00,2.3525
2235.00,2.3923
2234.00,2.4316
2233.00,2.4695
2232.00,2.5056
2231.00,2.5390
2230.00,2.5685
2229.00,2.5932
2228.00,2.6135
2227.00,2.6307
2226.00,2.6461
2225.00,2.6600
2224.00,2.6725
2223.00,2.6847
2222.00,2.6975
2221.00,2.7115
2220.00,2.7258
2219.00,2.7392
2218.00,2.7503
2217.00,2.7584
2216.00,2.7640
2215.00,2.7686
2214.00,2.7734
2213.00,2.7776
2212.00,2.7798
2211.00,2.7793
2210.00,2.7778
2209.00,2.7772
2208.00,2.7786
2207.00,2.7818
2206.00,2.7855
2205.00,2.7885
2204.00,2.7899
2203.00,2.7896
2202.00,2.7879
2201.00,2.7857
2200.00,2.7839
2199.00,2.7820
2198.00,2.7794
2197.00,2.7756
2196.00,2.7715
2195.00,2.7677
2194.00,2.7634
2193.00,2.7567
2192.00,2.7475
2191.00,2.7375
2190.00,2.7283
2189.00,2.7199
2188.00,2.7115
2187.00,2.7025
2186.00,2.6928
2185.00,2.6821
2184.00,2.6699
2183.00,2.6563
2182.00,2.6414
2181.00,2.6248
2180.00,2.6068
2179.00,2.5881
2178.00,2.5700
2177.00,2.5529
2176.00,2.5361
2175.00,2.5190
2174.00,2.5012
2173.00,2.4819
2172.00,2.4604
2171.00,2.4365
2170.00,2.4113
2169.00,2.3856
2168.00,2.3593
2167.00,2.3315
2166.00,2.3014
2165.00,2.2688
2164.00,2.2342
2163.00,2.1978
2162.00,2.1596
2161.00,2.1192
2160.00,2.0765
2159.00,2.0315
2158.00,1.9844
2157.00,1.9350
2156.00,1.8831
2155.00,1.8288
2154.00,1.7728
2153.00,1.7162
2152.00,1.6598
2151.00,1.6045
2150.00,1.5514
2149.00,1.5015
2148.00,1.4559
2147.00,1.4156
2146.00,1.3813
2145.00,1.3540
2144.00,1.3343
2143.00,1.3226
2142.00,1.3193
2141.00,1.3241
2140.00,1.3369
2139.00,1.3571
2138.00,1.3838
2137.00,1.4161
2136.00,1.4531
2135.00,1.4938
2134.00,1.5374
2133.00,1.5831
2132.00,1.6304
2131.00,1.6788
2130.00,1.7278
2129.00,1.7773
2128.00,1.8271
2127.00,1.8767
2126.00,1.9260
2125.00,1.9746
2124.00,2.0221
2123.00,2.0680
2122.00,2.1121
2121.00,2.1545
2120.00,2.1952
2119.00,2.2344
2118.00,2.2720
2117.00,2.3076
2116.00,2.3413
2115.00,2.3734
2114.00,2.4043
2113.00,2.4337
2112.00,2.4611
2111.00,2.4865
2110.00,2.5102
2109.00,2.5327
2108.00,2.5535
2107.00,2.5724
2106.00,2.5902
2105.00,2.6085
2104.00,2.6272
2103.00,2.6455
2102.00,2.6623
2101.00,2.6781
2100.00,2.6938
2099.00,2.7098
2098.00,2.7253
2097.00,2.7397
2096.00,2.7533
2095.00,2.7658
2094.00,2.7767
2093.00,2.7853
2092.00,2.7924
2091.00,2.7995
2090.00,2.8083
2089.00,2.8184
2088.00,2.8284
2087.00,2.8373
2086.00,2.8456
2085.00,2.8535
2084.00,2.8607
2083.00,2.8659
2082.00,2.8688
2081.00,2.8706
2080.00,2.8726
2079.00,2.8756
2078.00,2.8797
2077.00,2.8848
2076.00,2.8899
2075.00,2.8935
2074.00,2.8947
2073.00,2.8942
2072.00,2.8935
2071.00,2.8933
2070.00,2.8935
2069.00,2.8938
2068.00,2.8940
2067.00,2.8937
2066.00,2.8925
2065.00,2.8909
2064.00,2.8902
2063.00,2.8906
2062.00,2.8898
2061.00,2.8857
2060.00,2.8785
2059.00,2.8704
2058.00,2.8634
2057.00,2.8579
2056.00,2.8532
2055.00,2.8484
2054.00,2.8421
2053.00,2.8331
2052.00,2.8224
2051.00,2.8118
2050.00,2.8023
2049.00,2.7931
2048.00,2.7826
2047.00,2.7705
2046.00,2.7580
2045.00,2.7458
2044.00,2.7337
2043.00,2.7204
2042.00,2.7056
2041.00,2.6897
2040.00,2.6737
2039.00,2.6578
2038.00,2.6416
2037.00,2.6244
2036.00,2.6061
2035.00,2.5864
2034.00,2.5649
2033.00,2.5414
2032.00,2.5165
2031.00,2.4913
2030.00,2.4657
2029.00,2.4389
2028.00,2.4099
2027.00,2.3791
2026.00,2.3467
2025.00,2.3127
2024.00,2.2767
2023.00,2.2384
2022.00,2.1978
2021.00,2.1548
2020.00,2.1093
2019.00,2.0611
2018.00,2.0103
2017.00,1.9576
2016.00,1.9037
2015.00,1.8487
2014.00,1.7927
2013.00,1.7363
2012.00,1.6807
2011.00,1.6272
2010.00,1.5768
2009.00,1.5308
2008.00,1.4903
2007.00,1.4563
2006.00,1.4296
2005.00,1.4109
2004.00,1.4006
2003.00,1.3988
2002.00,1.4054
2001.00,1.4201
2000.00,1.4425
1999.00,1.4717
1998.00,1.5067
1997.00,1.5463
1996.00,1.5893
1995.00,1.6343
1994.00,1.6805
1993.00,1.7288
1992.00,1.7797
1991.00,1.8328
1990.00,1.8863
1989.00,1.9387
1988.00,1.9901
1987.00,2.0408
1986.00,2.0906
1985.00,2.1388
1984.00,2.1853
1983.00,2.2302
1982.00,2.2733
1981.00,2.3137
1980.00,2.3509
1979.00,2.3856
1978.00,2.4185
1977.00,2.4504
1976.00,2.4816
1975.00,2.5121
1974.00,2.5417
1973.00,2.5700
1972.00,2.5964
1971.00,2.6210
1970.00,2.6441
1969.00,2.6662
1968.00,2.6872
1967.00,2.7067
1966.00,2.7242
1965.00,2.7400
1964.00,2.7551
1963.00,2.7705
1962.00,2.7868
1961.00,2.8031
1960.00,2.8188
1959.00,2.8331
1958.00,2.8455
1957.00,2.8556
1956.00,2.8643
1955.00,2.8730
1954.00,2.8825
1953.00,2.8922
1952.00,2.9025
1951.00,2.9146
1950.00,2.9285
1949.00,2.9407
1948.00,2.9475
1947.00,2.9499
1946.00,2.9521
1945.00,2.9570
1944.00,2.9646
1943.00,2.9732
1942.00,2.9810
1941.00,2.9862
1940.00,2.9884
1939.00,2.9888
1938.00,2.9896
1937.00,2.9911
1936.00,2.9925
1935.00,2.9935
1934.00,2.9943
1933.00,2.9948
1932.00,2.9946
1931.00,2.9941
1930.00,2.9943
1929.00,2.9948
1928.00,2.9950
1927.00,2.9948
1926.00,2.9948
1925.00,2.9939
1924.00,2.9902
1923.00,2.9837
1922.00,2.9766
1921.00,2.9703
1920.00,2.9647
1919.00,2.9598
1918.00,2.9560
1917.00,2.9534
1916.00,2.9508
1915.00,2.9477
1914.00,2.9441
1913.00,2.9396
1912.00,2.9326
1911.00,2.9221
1910.00,2.9090
1909.00,2.8958
1908.00,2.8836
1907.00,2.8721
1906.00,2.8605
1905.00,2.8489
1904.00,2.8374
1903.00,2.8250
1902.00,2.8102
1901.00,2.7924
1900.00,2.7732
1899.00,2.7543
1898.00,2.7359
1897.00,2.7167
1896.00,2.6956
1895.00,2.6732
1894.00,2.6504
1893.00,2.6271
1892.00,2.6020
1891.00,2.5750
1890.00,2.5468
1889.00,2.5185
1888.00,2.4896
1887.00,2.4585
1886.00,2.4241
1885.00,2.3869
1884.00,2.3475
1883.00,2.3061
1882.00,2.2624
1881.00,2.2165
1880.00,2.1688
1879.00,2.1191
1878.00,2.0674
1877.00,2.0143
1876.00,1.9603
1875.00,1.9054
1874.00,1.8499
1873.00,1.7948
1872.00,1.7412
1871.00,1.6903
1870.00,1.6434
1869.00,1.6023
1868.00,1.5685
1867.00,1.5422
1866.00,1.5234
1865.00,1.5130
1864.00,1.5120
1863.00,1.5205
1862.00,1.5380
1861.00,1.5641
1860.00,1.5979
1859.00,1.6379
1858.00,1.6828
1857.00,1.7315
1856.00,1.7831
1855.00,1.8361
1854.00,1.8899
1853.00,1.9443
1852.00,1.9992
1851.00,2.0536
1850.00,2.1063
1849.00,2.1573
1848.00,2.2063
1847.00,2.2525
1846.00,2.2969
1845.00,2.3428
1844.00,2.3914
1843.00,2.4397
1842.00,2.4835
1841.00,2.5220
1840.00,2.5562
1839.00,2.5874
1838.00,2.6159
1837.00,2.6418
1836.00,2.6665
1835.00,2.6914
1834.00,2.7165
1833.00,2.7411
1832.00,2.7651
1831.00,2.7898
1830.00,2.8155
1829.00,2.8389
1828.00,2.8556
1827.00,2.8662
1826.00,2.8769
1825.00,2.8920
1824.00,2.9098
1823.00,2.9258
1822.00,2.9395
1821.00,2.9538
1820.00,2.9690
1819.00,2.9828
1818.00,2.9937
1817.00,3.0028
1816.00,3.0121
1815.00,3.0223
1814.00,3.0325
1813.00,3.0424
1812.00,3.0526
1811.00,3.0627
1810.00,3.0705
1809.00,3.0731
1808.00,3.0722
1807.00,3.0729
1806.00,3.0774
1805.00,3.0817
1804.00,3.0813
1803.00,3.0788
1802.00,3.0812
1801.00,3.0907
1800.00,3.1008
1799.00,3.1041
1798.00,3.1013
1797.00,3.0986
1796.00,3.1005
1795.00,3.1071
1794.00,3.1152
1793.00,3.1200
1792.00,3.1185
1791.00,3.1136
1790.00,3.1102
1789.00,3.1081
1788.00,3.1035
1787.00,3.0961
1786.00,3.0900
1785.00,3.0876
1784.00,3.0862
1783.00,3.0823
1782.00,3.0756
1781.00,3.0682
1780.00,3.0603
1779.00,3.0509
1778.00,3.0406
1777.00,3.0307
1776.00,3.0220
1775.00,3.0146
1774.00,3.0100
1773.00,3.0082
1772.00,3.0041
1771.00,2.9920
1770.00,2.9724
1769.00,2.9494
1768.00,2.9268
1767.00,2.9068
1766.00,2.8889
1765.00,2.8709
1764.00,2.8507
1763.00,2.8288
1762.00,2.8065
1761.00,2.7834
1760.00,2.7575
1759.00,2.7285
1758.00,2.6976
1757.00,2.6665
1756.00,2.6356
1755.00,2.6033
1754.00,2.5673
1753.00,2.5272
1752.00,2.4861
1751.00,2.4488
1750.00,2.4171
1749.00,2.3884
1748.00,2.3586
1747.00,2.3265
1746.00,2.2941
1745.00,2.2654
1744.00,2.2435
1743.00,2.2298
1742.00,2.2238
1741.00,2.2230
1740.00,2.2250
1739.00,2.2285
1738.00,2.2318
1737.00,2.2333
1736.00,2.2350
1735.00,2.2459
1734.00,2.2733
1733.00,2.3137
1732.00,2.3596
1731.00,2.4076
1730.00,2.4586
1729.00,2.5151
1728.00,2.5773
1727.00,2.6421
1726.00,2.7069
1725.00,2.7710
1724.00,2.8349
1723.00,2.9010
1722.00,2.9710
1721.00,3.0418
1720.00,3.1090
1719.00,3.1760
1718.00,3.2526
1717.00,3.3409
1716.00,3.4278
1715.00,3.5050
1714.00,3.5783
1713.00,3.6497
1712.00,3.7118
1711.00,3.7605
1710.00,3.7996
1709.00,3.8233
1708.00,3.8193
1707.00,3.7929
1706.00,3.7508
1705.00,3.6782
1704.00,3.5682
1703.00,3.4373
1702.00,3.2983
1701.00,3.1524
1700.00,3.0058
1699.00,2.8697
1698.00,2.7465
1697.00,2.6302
1696.00,2.5244
1695.00,2.4428
1694.00,2.3910
1693.00,2.3632
1692.00,2.3508
1691.00,2.3513
1690.00,2.3665
1689.00,2.3942
1688.00,2.4267
1687.00,2.4577
1686.00,2.4927
1685.00,2.5447
1684.00,2.6147
1683.00,2.6845
1682.00,2.7364
1681.00,2.7719
1680.00,2.8022
1679.00,2.8340
1678.00,2.8661
1677.00,2.8959
1676.00,2.9257
1675.00,2.9575
1674.00,2.9894
1673.00,3.0195
1672.00,3.0472
1671.00,3.0727
1670.00,3.0959
1669.00,3.1138
1668.00,3.1236
1667.00,3.1266
1666.00,3.1281
1665.00,3.1328
1664.00,3.1420
1663.00,3.1527
1662.00,3.1611
1661.00,3.1679
1660.00,3.1768
1659.00,3.1893
1658.00,3.2035
1657.00,3.2150
1656.00,3.2205
1655.00,3.2233
1654.00,3.2340
1653.00,3.2510
1652.00,3.2588
1651.00,3.2611
1650.00,3.2678
1649.00,3.2723
1648.00,3.2710
1647.00,3.2689
1646.00,3.2686
1645.00,3.2685
1644.00,3.2683
1643.00,3.2681
1642.00,3.2644
1641.00,3.2568
1640.00,3.2481
1639.00,3.2414
1638.00,3.2390
1637.00,3.2429
1636.00,3.2532
1635.00,3.2635
1634.00,3.2670
1633.00,3.2634
1632.00,3.2542
1631.00,3.2406
1630.00,3.2279
1629.00,3.2219
1628.00,3.2230
1627.00,3.2255
1626.00,3.2224
1625.00,3.2113
1624.00,3.1957
1623.00,3.1810
1622.00,3.1690
1621.00,3.1587
1620.00,3.1482
1619.00,3.1369
1618.00,3.1258
1617.00,3.1138
1616.00,3.0978
1615.00,3.0802
1614.00,3.0652
1613.00,3.0510
1612.00,3.0340
1611.00,3.0142
1610.00,2.9939
1609.00,2.9735
1608.00,2.9522
1607.00,2.9297
1606.00,2.9066
1605.00,2.8832
1604.00,2.8586
1603.00,2.8318
1602.00,2.8021
1601.00,2.7691
1600.00,2.7328
1599.00,2.6952
1598.00,2.6577
1597.00,2.6192
1596.00,2.5779
1595.00,2.5339
1594.00,2.4885
1593.00,2.4427
1592.00,2.3962
1591.00,2.3494
1590.00,2.3026
1589.00,2.2564
1588.00,2.2109
1587.00,2.1674
1586.00,2.1274
1585.00,2.0924
1584.00,2.0641
1583.00,2.0434
1582.00,2.0315
1581.00,2.0285
1580.00,2.0314
1579.00,2.0362
1578.00,2.0431
1577.00,2.0590
1576.00,2.0885
1575.00,2.1278
1574.00,2.1693
1573.00,2.2089
1572.00,2.2473
1571.00,2.2902
1570.00,2.3407
1569.00,2.3941
1568.00,2.4433
1567.00,2.4862
1566.00,2.5264
1565.00,2.5680
1564.00,2.6094
1563.00,2.6444
1562.00,2.6694
1561.00,2.6957
1560.00,2.7425
1559.00,2.8102
1558.00,2.8749
1557.00,2.9133
1556.00,2.9297
1555.00,2.9402
1554.00,2.9553
1553.00,2.9782
1552.00,3.0026
1551.00,3.0228
1550.00,3.0410
1549.00,3.0609
1548.00,3.0802
1547.00,3.0952
1546.00,3.1077
1545.00,3.1230
1544.00,3.1417
1543.00,3.1591
1542.00,3.1747
1541.00,3.1947
1540.00,3.2218
1539.00,3.2462
1538.00,3.2580
1537.00,3.2623
1536.00,3.2640
1535.00,3.2644
1534.00,3.2695
1533.00,3.2846
1532.00,3.3066
1531.00,3.3258
1530.00,3.3383
1529.00,3.3487
1528.00,3.3632
1527.00,3.3821
1526.00,3.4014
1525.00,3.4171
1524.00,3.4250
1523.00,3.4205
1522.00,3.4063
1521.00,3.3941
1520.00,3.3929
1519.00,3.3993
1518.00,3.4044
1517.00,3.4056
1516.00,3.4069
1515.00,3.4091
1514.00,3.4112
1513.00,3.4161
1512.00,3.4261
1511.00,3.4331
1510.00,3.4227
1509.00,3.3923
1508.00,3.3569
1507.00,3.3382
1506.00,3.3393
1505.00,3.3437
1504.00,3.3487
1503.00,3.3588
1502.00,3.3700
1501.00,3.3788
1500.00,3.3826
1499.00,3.3802
1498.00,3.3725
1497.00,3.3619
1496.00,3.3511
1495.00,3.3436
1494.00,3.3415
1493.00,3.3432
1492.00,3.3441
1491.00,3.3402
1490.00,3.3300
1489.00,3.3149
1488.00,3.2970
1487.00,3.2809
1486.00,3.2727
1485.00,3.2742
1484.00,3.2788
1483.00,3.2757
1482.00,3.2621
1481.00,3.2456
1480.00,3.2330
1479.00,3.2244
1478.00,3.2167
1477.00,3.2072
1476.00,3.1924
1475.00,3.1697
1474.00,3.1430
1473.00,3.1220
1472.00,3.1127
1471.00,3.1112
1470.00,3.1115
1469.00,3.1131
1468.00,3.1182
1467.00,3.1276
1466.00,3.1402
1465.00,3.1549
1464.00,3.1714
1463.00,3.1893
1462.00,3.2095
1461.00,3.2322
1460.00,3.2540
1459.00,3.2725
1458.00,3.2949
1457.00,3.3357
1456.00,3.3961
1455.00,3.4536
1454.00,3.4890
1453.00,3.5093
1452.00,3.5326
1451.00,3.5652
1450.00,3.5941
1449.00,3.6036
1448.00,3.5948
1447.00,3.5816
1446.00,3.5734
1445.00,3.5694
1444.00,3.5658
1443.00,3.5617
1442.00,3.5597
1441.00,3.5616
1440.00,3.5634
1439.00,3.5586
1438.00,3.5467
1437.00,3.5336
1436.00,3.5211
1435.00,3.5036
1434.00,3.4788
1433.00,3.4542
1432.00,3.4401
1431.00,3.4397
1430.00,3.4476
1429.00,3.4562
1428.00,3.4617
1427.00,3.4644
1426.00,3.4645
1425.00,3.4629
1424.00,3.4622
1423.00,3.4634
1422.00,3.4621
1421.00,3.4540
1420.00,3.4413
1419.00,3.4313
1418.00,3.4300
1417.00,3.4364
1416.00,3.4434
1415.00,3.4432
1414.00,3.4311
1413.00,3.4086
1412.00,3.3829
1411.00,3.3611
1410.00,3.3450
1409.00,3.3308
1408.00,3.3161
1407.00,3.3033
1406.00,3.2958
1405.00,3.2936
1404.00,3.2934
1403.00,3.2923
1402.00,3.2901
1401.00,3.2880
1400.00,3.2874
1399.00,3.2899
1398.00,3.2958
1397.00,3.3024
1396.00,3.3064
1395.00,3.3098
1394.00,3.3211
1393.00,3.3464
1392.00,3.3825
1391.00,3.4178
1390.00,3.4414
1389.00,3.4532
1388.00,3.4616
1387.00,3.4722
1386.00,3.4820
1385.00,3.4891
1384.00,3.4999
1383.00,3.5214
1382.00,3.5540
1381.00,3.5920
1380.00,3.6311
1379.00,3.6731
1378.00,3.7219
1377.00,3.7763
1376.00,3.8261
1375.00,3.8488
1374.00,3.8201
1373.00,3.7455
1372.00,3.6553
1371.00,3.5743
1370.00,3.5143
1369.00,3.4771
1368.00,3.4578
1367.00,3.4473
1366.00,3.4387
1365.00,3.4320
1364.00,3.4312
1363.00,3.4402
1362.00,3.4602
1361.00,3.4873
1360.00,3.5134
1359.00,3.5314
1358.00,3.5405
1357.00,3.5473
1356.00,3.5593
1355.00,3.5808
1354.00,3.6093
1353.00,3.6344
1352.00,3.6477
1351.00,3.6519
1350.00,3.6539
1349.00,3.6582
1348.00,3.6652
1347.00,3.6708
1346.00,3.6695
1345.00,3.6599
1344.00,3.6473
1343.00,3.6360
1342.00,3.6226
1341.00,3.6026
1340.00,3.5813
1339.00,3.5699
1338.00,3.5749
1337.00,3.5911
1336.00,3.6051
1335.00,3.6103
1334.00,3.6119
1333.00,3.6157
1332.00,3.6183
1331.00,3.6138
1330.00,3.6072
1329.00,3.6088
1328.00,3.6192
1327.00,3.6285
1326.00,3.6255
1325.00,3.6073
1324.00,3.5797
1323.00,3.5498
1322.00,3.5213
1321.00,3.4972
1320.00,3.4818
1319.00,3.4781
1318.00,3.4834
1317.00,3.4905
1316.00,3.4946
1315.00,3.4969
1314.00,3.5024
1313.00,3.5133
1312.00,3.5282
1311.00,3.5421
1310.00,3.5459
1309.00,3.5315
1308.00,3.4996
1307.00,3.4585
1306.00,3.4156
1305.00,3.3738
1304.00,3.3348
1303.00,3.3026
1302.00,3.2787
1301.00,3.2559
1300.00,3.2242
1299.00,3.1824
1298.00,3.1391
1297.00,3.1005
1296.00,3.0639
1295.00,3.0232
1294.00,2.9760
1293.00,2.9247
1292.00,2.8718
1291.00,2.8176
1290.00,2.7614
1289.00,2.7036
1288.00,2.6460
1287.00,2.5899
1286.00,2.5359
1285.00,2.4846
1284.00,2.4382
1283.00,2.3996
1282.00,2.3716
1281.00,2.3555
1280.00,2.3515
1279.00,2.3585
1278.00,2.3745
1277.00,2.3964
1276.00,2.4212
1275.00,2.4470
1274.00,2.4727
1273.00,2.4987
1272.00,2.5262
1271.00,2.5574
1270.00,2.5935
1269.00,2.6337
1268.00,2.6757
1267.00,2.7171
1266.00,2.7565
1265.00,2.7946
1264.00,2.8332
1263.00,2.8747
1262.00,2.9209
1261.00,2.9714
1260.00,3.0233
1259.00,3.0722
1258.00,3.1141
1257.00,3.1482
1256.00,3.1774
1255.00,3.2069
1254.00,3.2400
1253.00,3.2748
1252.00,3.3063
1251.00,3.3328
1250.00,3.3570
1249.00,3.3823
1248.00,3.4083
1247.00,3.4307
1246.00,3.4457
1245.00,3.4551
1244.00,3.4666
1243.00,3.4871
1242.00,3.5185
1241.00,3.5572
1240.00,3.5939
1239.00,3.6171
1238.00,3.6211
1237.00,3.6131
1236.00,3.6091
1235.00,3.6211
1234.00,3.6465
1233.00,3.6675
1232.00,3.6669
1231.00,3.6493
1230.00,3.6379
1229.00,3.6530
1228.00,3.6992
1227.00,3.7632
1226.00,3.8225
1225.00,3.8558
1224.00,3.8525
1223.00,3.8319
1222.00,3.8182
1221.00,3.8113
1220.00,3.8008
1219.00,3.7846
1218.00,3.7741
1217.00,3.7837
1216.00,3.8231
1215.00,3.8984
1214.00,3.9942
1213.00,4.0333
1212.00,3.9497
1211.00,3.8178
1210.00,3.7247
1209.00,3.6976
1208.00,3.7321
1207.00,3.8045
1206.00,3.8747
1205.00,3.9091
1204.00,3.9175
1203.00,3.9372
1202.00,3.9645
1201.00,3.9586
1200.00,3.9029
1199.00,3.8017
1198.00,3.7080
1197.00,3.6680
1196.00,3.6764
1195.00,3.7013
1194.00,3.7134
1193.00,3.7146
1192.00,3.7273
1191.00,3.7560
1190.00,3.7787
1189.00,3.7779
1188.00,3.7684
1187.00,3.7717
1186.00,3.7866
1185.00,3.7941
1184.00,3.7873
1183.00,3.7871
1182.00,3.8153
1181.00,3.8568
1180.00,3.8553
1179.00,3.8093
1178.00,3.7737
1177.00,3.7611
1176.00,3.7459
1175.00,3.7052
1174.00,3.6462
1173.00,3.5892
1172.00,3.5414
1171.00,3.5042
1170.00,3.4807
1169.00,3.4759
1168.00,3.4819
1167.00,3.4661
1166.00,3.4112
1165.00,3.3432
1164.00,3.2891
1163.00,3.2583
1162.00,3.2441
1161.00,3.2297
1160.00,3.2024
1159.00,3.1659
1158.00,3.1320
1157.00,3.1043
1156.00,3.0751
1155.00,3.0354
1154.00,2.9846
1153.00,2.9291
1152.00,2.8740
1151.00,2.8208
1150.00,2.7693
1149.00,2.7200
1148.00,2.6752
1147.00,2.6390
1146.00,2.6144
1145.00,2.6018
1144.00,2.5986
1143.00,2.6031
1142.00,2.6163
1141.00,2.6404
1140.00,2.6760
1139.00,2.7214
1138.00,2.7736
1137.00,2.8293
1136.00,2.8852
1135.00,2.9389
1134.00,2.9925
1133.00,3.0528
1132.00,3.1254
1131.00,3.2092
1130.00,3.2962
1129.00,3.3724
1128.00,3.4227
1127.00,3.4442
1126.00,3.4502
1125.00,3.4591
1124.00,3.4809
1123.00,3.5082
1122.00,3.5272
1121.00,3.5323
1120.00,3.5236
1119.00,3.5120
1118.00,3.5192
1117.00,3.5629
1116.00,3.6503
1115.00,3.7779
1114.00,3.9028
1113.00,3.9336
1112.00,3.8733
1111.00,3.8013
1110.00,3.7636
1109.00,3.7673
1108.00,3.7820
1107.00,3.7599
1106.00,3.6889
1105.00,3.6075
1104.00,3.5588
1103.00,3.5673
1102.00,3.6395
1101.00,3.7592
1100.00,3.8844
1099.00,3.9830
1098.00,4.0634
1097.00,4.1423
1096.00,4.1850
1095.00,4.0892
1094.00,3.9552
1093.00,3.9123
1092.00,3.9652
1091.00,4.0807
1090.00,4.2084
1089.00,4.2433
1088.00,4.1402
1087.00,3.9865
1086.00,3.8550
1085.00,3.7814
1084.00,3.7689
1083.00,3.7954
1082.00,3.8376
1081.00,3.8722
1080.00,3.8816
1079.00,3.8747
1078.00,3.8775
1077.00,3.9278
1076.00,4.0370
1075.00,4.1730
1074.00,4.2653
1073.00,4.2307
1072.00,4.1171
1071.00,4.0429
1070.00,4.0408
1069.00,4.0694
1068.00,4.0399
1067.00,3.9326
1066.00,3.8582
1065.00,3.8680
1064.00,3.9517
1063.00,4.0898
1062.00,4.2351
1061.00,4.3421
1060.00,4.3288
1059.00,4.2106
1058.00,4.1591
1057.00,4.2081
1056.00,4.2824
1055.00,4.3469
1054.00,4.5842
1053.00,4.5592
1052.00,4.2246
1051.00,4.1372
1050.00,4.1897
1049.00,4.1523
1048.00,3.9693
1047.00,3.8681
1046.00,3.8890
1045.00,3.9951
1044.00,4.1185
1043.00,4.2080
1042.00,4.3404
1041.00,4.4478
1040.00,4.3625
1039.00,4.2488
1038.00,4.1463
1037.00,4.0416
1036.00,3.9490
1035.00,3.9224
1034.00,4.0015
1033.00,4.0777
1032.00,4.0700
1031.00,4.1144
1030.00,4.1953
1029.00,4.2995
1028.00,4.4416
1027.00,4.5171
1026.00,4.5355
1025.00,4.4655
1024.00,4.3666
1023.00,4.2632
1022.00,4.0751
1021.00,3.9120
1020.00,3.8366
1019.00,3.8336
1018.00,3.8704
1017.00,3.8905
1016.00,3.8716
1015.00,3.8634
1014.00,3.8901
1013.00,3.9273
1012.00,3.9502
1011.00,3.9647
1010.00,3.9748
1009.00,3.9681
1008.00,3.9374
1007.00,3.8771
1006.00,3.7854
1005.00,3.6867
1004.00,3.6026
1003.00,3.5312
1002.00,3.4689
1001.00,3.4207
1000.00,3.3904
999.00,3.3716
998.00,3.3546
997.00,3.3377
996.00,3.3263
995.00,3.3228
994.00,3.3240
993.00,3.3278
992.00,3.3359
991.00,3.3540
990.00,3.3878
989.00,3.4368
988.00,3.4891
987.00,3.5226
986.00,3.5310
985.00,3.5405
984.00,3.5831
983.00,3.6702
982.00,3.7835
981.00,3.8857
980.00,3.9585
979.00,4.0279
978.00,4.0696
977.00,4.0059
976.00,3.8932
975.00,3.7973
974.00,3.7420
973.00,3.7429
972.00,3.7951
971.00,3.8779
970.00,3.9754
969.00,4.0811
968.00,4.1743
967.00,4.2451
966.00,4.3297
965.00,4.4642
964.00,4.5367
963.00,4.5709
962.00,4.8164
961.00,4.5231
960.00,4.1721
959.00,4.0265
958.00,4.0190
957.00,4.1343
956.00,4.3601
955.00,4.4615
954.00,4.5496
953.00,4.9382
952.00,4.4002
951.00,4.1608
950.00,4.1544
949.00,4.2586
948.00,4.4645
947.00,4.7265
946.00,4.4935
945.00,4.3313
944.00,4.3678
943.00,4.4517
942.00,4.5967
941.00,4.6521
940.00,4.4012
939.00,4.2740
938.00,4.2656
937.00,4.3280
936.00,4.4311
935.00,4.4437
934.00,4.2463
933.00,4.0114
932.00,3.8668
931.00,3.8362
930.00,3.9260
929.00,4.1710
928.00,4.7267
927.00,4.9910
926.00,4.8529
925.00,5.0811
924.00,4.6316
923.00,4.5024
922.00,4.5071
921.00,4.3431
920.00,4.1409
919.00,4.0355
918.00,3.9892
917.00,3.9276
916.00,3.8803
915.00,3.9080
914.00,4.0167
913.00,4.1411
912.00,4.1552
911.00,4.0552
910.00,3.9541
909.00,3.8859
908.00,3.8194
907.00,3.7537
906.00,3.7225
905.00,3.7467
904.00,3.8232
903.00,3.9181
902.00,3.9824
901.00,4.0102
900.00,3.9932
899.00,3.8975
898.00,3.7819
897.00,3.7191
896.00,3.7302
895.00,3.7996
894.00,3.8697
893.00,3.8756
892.00,3.8345
891.00,3.8050
890.00,3.8170
889.00,3.8633
888.00,3.9065
887.00,3.9175
886.00,3.9164
885.00,3.9369
884.00,3.9989
883.00,4.1135
882.00,4.1746
881.00,4.0655
880.00,3.9317
879.00,3.8251
878.00,3.7666
877.00,3.7764
876.00,3.8616
875.00,3.9820
874.00,4.0869
873.00,4.1212
872.00,3.9295
871.00,3.7885
870.00,3.8093
869.00,3.9756
868.00,4.2162
867.00,4.3312
866.00,4.2292
865.00,4.0478
864.00,3.9306
863.00,3.9215
862.00,3.9955
861.00,4.0434
860.00,3.9604
859.00,3.8545
858.00,3.8451
857.00,3.9511
856.00,4.2427
855.00,4.7578
854.00,4.2919
853.00,4.2377
852.00,4.4356
851.00,4.3380
850.00,4.0611
849.00,3.8974
848.00,3.8330
847.00,3.8419
846.00,3.8987
845.00,3.9588
844.00,3.9878
843.00,3.9967
842.00,4.0503
841.00,4.2000
840.00,4.3697
839.00,4.3068
838.00,4.1037
837.00,3.9818
836.00,3.9679
835.00,4.0136
834.00,4.0540
833.00,4.0779
832.00,4.0947
831.00,4.0728
830.00,3.9977
829.00,3.9053
828.00,3.8138
827.00,3.7676
826.00,3.8055
825.00,4.0197
824.00,4.3719
823.00,3.9812
822.00,3.8143
821.00,3.8109
820.00,3.8901
819.00,4.0010
818.00,4.0614
817.00,4.0382
816.00,3.9016
815.00,3.7735
814.00,3.7423
813.00,3.8236
812.00,3.9602
811.00,3.9847
810.00,3.9073
809.00,3.8600
808.00,3.8898
807.00,3.9959
806.00,4.1380
805.00,4.2303
804.00,4.1894
803.00,4.0530
802.00,3.9449
801.00,3.9383
800.00,4.0699
799.00,4.2535
798.00,4.1241
797.00,3.9362
796.00,3.8455
795.00,3.8308
794.00,3.8608
793.00,3.9136
792.00,3.9271
791.00,3.8728
790.00,3.8456
789.00,3.8887
788.00,3.9830
787.00,4.0703
786.00,4.1936
785.00,4.4176
784.00,4.4925
783.00,4.5825
782.00,4.5443
781.00,4.1907
780.00,4.0299
779.00,3.9932
778.00,3.9917
777.00,3.9764
776.00,3.9629
775.00,3.9909
774.00,4.1154
773.00,4.5082
772.00,4.6879
771.00,4.1735
770.00,4.0628
769.00,4.1373
768.00,4.1584
767.00,4.0010
766.00,3.8942
765.00,3.8356
764.00,3.7888
763.00,3.7643
762.00,3.7409
761.00,3.6983
760.00,3.6539
759.00,3.6500
758.00,3.7203
757.00,3.8610
756.00,3.9666
755.00,3.9104
754.00,3.8048
753.00,3.7517
752.00,3.7833
751.00,3.8985
750.00,3.9896
749.00,3.9625
748.00,3.9975
747.00,4.1541
746.00,4.0721
745.00,3.8670
744.00,3.7699
743.00,3.7256
742.00,3.7061
741.00,3.7155
740.00,3.7333
739.00,3.7499
738.00,3.7974
737.00,3.8877
736.00,3.8968
735.00,3.7928
734.00,3.7439
733.00,3.7799
732.00,3.8490
731.00,3.8693
730.00,3.8235
729.00,3.7987
728.00,3.8292
727.00,3.8785
726.00,3.8698
725.00,3.7746
724.00,3.6866
723.00,3.6678
722.00,3.7088
721.00,3.7621
720.00,3.7876
719.00,3.7850
718.00,3.7654
717.00,3.7581
716.00,3.7876
715.00,3.8017
714.00,3.7660
713.00,3.7538
712.00,3.8099
711.00,3.9228
710.00,3.9991
709.00,3.9459
708.00,3.8324
707.00,3.7365
706.00,3.6916
705.00,3.6840
704.00,3.6781
703.00,3.6749
702.00,3.7146
701.00,3.8242
700.00,3.9795
