Created as New Dataset,Sample 050 By Administrator Date Wednesday, November 24 2021
cm-1,A
7502.00,0.7597
7501.00,0.7648
7500.00,0.7699
7499.00,0.7752
7498.00,0.7805
7497.00,0.7858
7496.00,0.7912
7495.00,0.7967
7494.00,0.8023
7493.00,0.8074
7492.00,0.8125
7491.00,0.8182
7490.00,0.8240
7489.00,0.8291
7488.00,0.8331
7487.00,0.8365
7486.00,0.8398
7485.00,0.8429
7484.00,0.8451
7483.00,0.8462
7482.00,0.8471
7481.00,0.8487
7480.00,0.8506
7479.00,0.8521
7478.00,0.8529
7477.00,0.8537
7476.00,0.8548
7475.00,0.8560
7474.00,0.8567
7473.00,0.8568
7472.00,0.8563
7471.00,0.8555
7470.00,0.8544
7469.00,0.8527
7468.00,0.8500
7467.00,0.8464
7466.00,0.8422
7465.00,0.8376
7464.00,0.8325
7463.00,0.8267
7462.00,0.8205
7461.00,0.8146
7460.00,0.8090
7459.00,0.8035
7458.00,0.7976
7457.00,0.7911
7456.00,0.7843
7455.00,0.7776
7454.00,0.7712
7453.00,0.7649
7452.00,0.7581
7451.00,0.7506
7450.00,0.7428
7449.00,0.7353
7448.00,0.7286
7447.00,0.7221
7446.00,0.7156
7445.00,0.7087
7444.00,0.7015
7443.00,0.6940
7442.00,0.6865
7441.00,0.6790
7440.00,0.6715
7439.00,0.6637
7438.00,0.6560
7437.00,0.6486
7436.00,0.6418
7435.00,0.6355
7434.00,0.6295
7433.00,0.6239
7432.00,0.6184
7431.00,0.6131
7430.00,0.6081
7429.00,0.6037
7428.00,0.6002
7427.00,0.5974
7426.00,0.5950
7425.00,0.5923
7424.00,0.5893
7423.00,0.5860
7422.00,0.5829
7421.00,0.5797
7420.00,0.5761
7419.00,0.5719
7418.00,0.5674
7417.00,0.5635
7416.00,0.5604
7415.00,0.5580
7414.00,0.5560
7413.00,0.5546
7412.00,0.5536
7411.00,0.5531
7410.00,0.5530
7409.00,0.5534
7408.00,0.5543
7407.00,0.5556
7406.00,0.5573
7405.00,0.5592
7404.00,0.5614
7403.00,0.5637
7402.00,0.5663
7401.00,0.5692
7400.00,0.5724
7399.00,0.5758
7398.00,0.5795
7397.00,0.5836
7396.00,0.5883
7395.00,0.5937
7394.00,0.5997
7393.00,0.6064
7392.00,0.6136
7391.00,0.6211
7390.00,0.6288
7389.00,0.6366
7388.00,0.6441
7387.00,0.6516
7386.00,0.6591
7385.00,0.6670
7384.00,0.6750
7383.00,0.6832
7382.00,0.6917
7381.00,0.7008
7380.00,0.7106
7379.00,0.7207
7378.00,0.7302
7377.00,0.7388
7376.00,0.7471
7375.00,0.7557
7374.00,0.7649
7373.00,0.7741
7372.00,0.7826
7371.00,0.7906
7370.00,0.7989
7369.00,0.8080
7368.00,0.8175
7367.00,0.8267
7366.00,0.8356
7365.00,0.8443
7364.00,0.8528
7363.00,0.8611
7362.00,0.8694
7361.00,0.8777
7360.00,0.8860
7359.00,0.8943
7358.00,0.9024
7357.00,0.9102
7356.00,0.9176
7355.00,0.9244
7354.00,0.9309
7353.00,0.9376
7352.00,0.9444
7351.00,0.9512
7350.00,0.9574
7349.00,0.9628
7348.00,0.9673
7347.00,0.9713
7346.00,0.9750
7345.00,0.9787
7344.00,0.9825
7343.00,0.9864
7342.00,0.9908
7341.00,0.9956
7340.00,1.0003
7339.00,1.0041
7338.00,1.0065
7337.00,1.0077
7336.00,1.0083
7335.00,1.0086
7334.00,1.0091
7333.00,1.0096
7332.00,1.0102
7331.00,1.0106
7330.00,1.0110
7329.00,1.0111
7328.00,1.0110
7327.00,1.0107
7326.00,1.0105
7325.00,1.0103
7324.00,1.0095
7323.00,1.0077
7322.00,1.0053
7321.00,1.0027
7320.00,0.9998
7319.00,0.9958
7318.00,0.9908
7317.00,0.9856
7316.00,0.9809
7315.00,0.9768
7314.00,0.9726
7313.00,0.9679
7312.00,0.9629
7311.00,0.9579
7310.00,0.9527
7309.00,0.9468
7308.00,0.9400
7307.00,0.9326
7306.00,0.9250
7305.00,0.9176
7304.00,0.9104
7303.00,0.9030
7302.00,0.8955
7301.00,0.8878
7300.00,0.8798
7299.00,0.8718
7298.00,0.8636
7297.00,0.8554
7296.00,0.8469
7295.00,0.8383
7294.00,0.8299
7293.00,0.8222
7292.00,0.8146
7291.00,0.8068
7290.00,0.7987
7289.00,0.7906
7288.00,0.7823
7287.00,0.7740
7286.00,0.7657
7285.00,0.7577
7284.00,0.7504
7283.00,0.7434
7282.00,0.7368
7281.00,0.7308
7280.00,0.7252
7279.00,0.7197
7278.00,0.7142
7277.00,0.7086
7276.00,0.7033
7275.00,0.6984
7274.00,0.6940
7273.00,0.6902
7272.00,0.6868
7271.00,0.6837
7270.00,0.6809
7269.00,0.6784
7268.00,0.6765
7267.00,0.6750
7266.00,0.6740
7265.00,0.6733
7264.00,0.6730
7263.00,0.6732
7262.00,0.6741
7261.00,0.6755
7260.00,0.6773
7259.00,0.6795
7258.00,0.6821
7257.00,0.6853
7256.00,0.6891
7255.00,0.6933
7254.00,0.6979
7253.00,0.7028
7252.00,0.7080
7251.00,0.7132
7250.00,0.7186
7249.00,0.7246
7248.00,0.7313
7247.00,0.7383
7246.00,0.7454
7245.00,0.7525
7244.00,0.7598
7243.00,0.7674
7242.00,0.7752
7241.00,0.7829
7240.00,0.7905
7239.00,0.7982
7238.00,0.8064
7237.00,0.8149
7236.00,0.8234
7235.00,0.8319
7234.00,0.8404
7233.00,0.8488
7232.00,0.8570
7231.00,0.8647
7230.00,0.8725
7229.00,0.8805
7228.00,0.8885
7227.00,0.8961
7226.00,0.9037
7225.00,0.9118
7224.00,0.9205
7223.00,0.9291
7222.00,0.9374
7221.00,0.9452
7220.00,0.9528
7219.00,0.9600
7218.00,0.9668
7217.00,0.9733
7216.00,0.9799
7215.00,0.9865
7214.00,0.9931
7213.00,0.9996
7212.00,1.0059
7211.00,1.0119
7210.00,1.0175
7209.00,1.0225
7208.00,1.0272
7207.00,1.0314
7206.00,1.0354
7205.00,1.0396
7204.00,1.0440
7203.00,1.0484
7202.00,1.0522
7201.00,1.0551
7200.00,1.0576
7199.00,1.0600
7198.00,1.0624
7197.00,1.0643
7196.00,1.0654
7195.00,1.0658
7194.00,1.0661
7193.00,1.0665
7192.00,1.0670
7191.00,1.0671
7190.00,1.0668
7189.00,1.0664
7188.00,1.0660
7187.00,1.0654
7186.00,1.0644
7185.00,1.0628
7184.00,1.0604
7183.00,1.0573
7182.00,1.0536
7181.00,1.0498
7180.00,1.0462
7179.00,1.0427
7178.00,1.0392
7177.00,1.0353
7176.00,1.0312
7175.00,1.0268
7174.00,1.0224
7173.00,1.0174
7172.00,1.0117
7171.00,1.0049
7170.00,0.9973
7169.00,0.9892
7168.00,0.9811
7167.00,0.9731
7166.00,0.9654
7165.00,0.9580
7164.00,0.9508
7163.00,0.9439
7162.00,0.9371
7161.00,0.9300
7160.00,0.9224
7159.00,0.9144
7158.00,0.9059
7157.00,0.8971
7156.00,0.8884
7155.00,0.8798
7154.00,0.8715
7153.00,0.8634
7152.00,0.8553
7151.00,0.8473
7150.00,0.8395
7149.00,0.8318
7148.00,0.8240
7147.00,0.8159
7146.00,0.8077
7145.00,0.7996
7144.00,0.7920
7143.00,0.7848
7142.00,0.7780
7141.00,0.7715
7140.00,0.7652
7139.00,0.7592
7138.00,0.7535
7137.00,0.7481
7136.00,0.7429
7135.00,0.7378
7134.00,0.7331
7133.00,0.7286
7132.00,0.7243
7131.00,0.7201
7130.00,0.7162
7129.00,0.7129
7128.00,0.7102
7127.00,0.7079
7126.00,0.7061
7125.00,0.7051
7124.00,0.7047
7123.00,0.7046
7122.00,0.7046
7121.00,0.7047
7120.00,0.7053
7119.00,0.7064
7118.00,0.7082
7117.00,0.7105
7116.00,0.7133
7115.00,0.7166
7114.00,0.7205
7113.00,0.7248
7112.00,0.7294
7111.00,0.7342
7110.00,0.7392
7109.00,0.7448
7108.00,0.7507
7107.00,0.7567
7106.00,0.7625
7105.00,0.7685
7104.00,0.7750
7103.00,0.7819
7102.00,0.7893
7101.00,0.7971
7100.00,0.8053
7099.00,0.8137
7098.00,0.8222
7097.00,0.8308
7096.00,0.8395
7095.00,0.8481
7094.00,0.8566
7093.00,0.8650
7092.00,0.8734
7091.00,0.8820
7090.00,0.8907
7089.00,0.8993
7088.00,0.9079
7087.00,0.9166
7086.00,0.9255
7085.00,0.9344
7084.00,0.9431
7083.00,0.9513
7082.00,0.9591
7081.00,0.9669
7080.00,0.9750
7079.00,0.9832
7078.00,0.9910
7077.00,0.9984
7076.00,1.0058
7075.00,1.0135
7074.00,1.0216
7073.00,1.0294
7072.00,1.0367
7071.00,1.0435
7070.00,1.0502
7069.00,1.0569
7068.00,1.0632
7067.00,1.0688
7066.00,1.0736
7065.00,1.0781
7064.00,1.0828
7063.00,1.0879
7062.00,1.0931
7061.00,1.0982
7060.00,1.1032
7059.00,1.1078
7058.00,1.1122
7057.00,1.1161
7056.00,1.1193
7055.00,1.1217
7054.00,1.1237
7053.00,1.1254
7052.00,1.1269
7051.00,1.1281
7050.00,1.1288
7049.00,1.1293
7048.00,1.1298
7047.00,1.1306
7046.00,1.1313
7045.00,1.1315
7044.00,1.1309
7043.00,1.1297
7042.00,1.1285
7041.00,1.1271
7040.00,1.1250
7039.00,1.1220
7038.00,1.1185
7037.00,1.1154
7036.00,1.1128
7035.00,1.1100
7034.00,1.1064
7033.00,1.1020
7032.00,1.0973
7031.00,1.0927
7030.00,1.0880
7029.00,1.0829
7028.00,1.0772
7027.00,1.0709
7026.00,1.0642
7025.00,1.0573
7024.00,1.0500
7023.00,1.0423
7022.00,1.0343
7021.00,1.0263
7020.00,1.0185
7019.00,1.0108
7018.00,1.0031
7017.00,0.9952
7016.00,0.9872
7015.00,0.9792
7014.00,0.9710
7013.00,0.9625
7012.00,0.9536
7011.00,0.9446
7010.00,0.9356
7009.00,0.9269
7008.00,0.9182
7007.00,0.9093
7006.00,0.9003
7005.00,0.8913
7004.00,0.8822
7003.00,0.8732
7002.00,0.8645
7001.00,0.8560
7000.00,0.8478
6999.00,0.8399
6998.00,0.8324
6997.00,0.8251
6996.00,0.8178
6995.00,0.8107
6994.00,0.8038
6993.00,0.7972
6992.00,0.7910
6991.00,0.7851
6990.00,0.7797
6989.00,0.7748
6988.00,0.7703
6987.00,0.7663
6986.00,0.7628
6985.00,0.7600
6984.00,0.7576
6983.00,0.7555
6982.00,0.7536
6981.00,0.7521
6980.00,0.7510
6979.00,0.7504
6978.00,0.7503
6977.00,0.7508
6976.00,0.7521
6975.00,0.7539
6974.00,0.7563
6973.00,0.7591
6972.00,0.7622
6971.00,0.7656
6970.00,0.7694
6969.00,0.7739
6968.00,0.7787
6967.00,0.7839
6966.00,0.7895
6965.00,0.7954
6964.00,0.8018
6963.00,0.8083
6962.00,0.8149
6961.00,0.8217
6960.00,0.8288
6959.00,0.8362
6958.00,0.8439
6957.00,0.8517
6956.00,0.8598
6955.00,0.8680
6954.00,0.8764
6953.00,0.8849
6952.00,0.8934
6951.00,0.9020
6950.00,0.9105
6949.00,0.9190
6948.00,0.9275
6947.00,0.9361
6946.00,0.9447
6945.00,0.9535
6944.00,0.9622
6943.00,0.9709
6942.00,0.9793
6941.00,0.9876
6940.00,0.9955
6939.00,1.0031
6938.00,1.0106
6937.00,1.0180
6936.00,1.0254
6935.00,1.0327
6934.00,1.0401
6933.00,1.0474
6932.00,1.0545
6931.00,1.0614
6930.00,1.0684
6929.00,1.0752
6928.00,1.0816
6927.00,1.0875
6926.00,1.0931
6925.00,1.0986
6924.00,1.1037
6923.00,1.1080
6922.00,1.1118
6921.00,1.1156
6920.00,1.1195
6919.00,1.1233
6918.00,1.1266
6917.00,1.1295
6916.00,1.1320
6915.00,1.1345
6914.00,1.1370
6913.00,1.1396
6912.00,1.1419
6911.00,1.1437
6910.00,1.1452
6909.00,1.1463
6908.00,1.1471
6907.00,1.1473
6906.00,1.1470
6905.00,1.1463
6904.00,1.1451
6903.00,1.1436
6902.00,1.1415
6901.00,1.1391
6900.00,1.1365
6899.00,1.1335
6898.00,1.1304
6897.00,1.1273
6896.00,1.1240
6895.00,1.1205
6894.00,1.1168
6893.00,1.1127
6892.00,1.1083
6891.00,1.1034
6890.00,1.0977
6889.00,1.0915
6888.00,1.0850
6887.00,1.0784
6886.00,1.0719
6885.00,1.0652
6884.00,1.0582
6883.00,1.0508
6882.00,1.0431
6881.00,1.0351
6880.00,1.0268
6879.00,1.0184
6878.00,1.0098
6877.00,1.0013
6876.00,0.9928
6875.00,0.9841
6874.00,0.9752
6873.00,0.9661
6872.00,0.9569
6871.00,0.9475
6870.00,0.9382
6869.00,0.9289
6868.00,0.9196
6867.00,0.9104
6866.00,0.9013
6865.00,0.8923
6864.00,0.8832
6863.00,0.8739
6862.00,0.8649
6861.00,0.8562
6860.00,0.8479
6859.00,0.8400
6858.00,0.8323
6857.00,0.8249
6856.00,0.8178
6855.00,0.8109
6854.00,0.8041
6853.00,0.7975
6852.00,0.7910
6851.00,0.7847
6850.00,0.7788
6849.00,0.7733
6848.00,0.7684
6847.00,0.7640
6846.00,0.7600
6845.00,0.7566
6844.00,0.7537
6843.00,0.7513
6842.00,0.7492
6841.00,0.7474
6840.00,0.7461
6839.00,0.7452
6838.00,0.7447
6837.00,0.7447
6836.00,0.7453
6835.00,0.7464
6834.00,0.7481
6833.00,0.7503
6832.00,0.7528
6831.00,0.7554
6830.00,0.7584
6829.00,0.7620
6828.00,0.7662
6827.00,0.7708
6826.00,0.7757
6825.00,0.7810
6824.00,0.7869
6823.00,0.7931
6822.00,0.7997
6821.00,0.8065
6820.00,0.8134
6819.00,0.8204
6818.00,0.8277
6817.00,0.8355
6816.00,0.8434
6815.00,0.8513
6814.00,0.8593
6813.00,0.8675
6812.00,0.8759
6811.00,0.8843
6810.00,0.8927
6809.00,0.9014
6808.00,0.9104
6807.00,0.9195
6806.00,0.9289
6805.00,0.9384
6804.00,0.9481
6803.00,0.9576
6802.00,0.9667
6801.00,0.9756
6800.00,0.9843
6799.00,0.9929
6798.00,1.0014
6797.00,1.0098
6796.00,1.0181
6795.00,1.0264
6794.00,1.0348
6793.00,1.0434
6792.00,1.0520
6791.00,1.0605
6790.00,1.0686
6789.00,1.0763
6788.00,1.0836
6787.00,1.0905
6786.00,1.0971
6785.00,1.1034
6784.00,1.1095
6783.00,1.1157
6782.00,1.1219
6781.00,1.1283
6780.00,1.1343
6779.00,1.1398
6778.00,1.1450
6777.00,1.1500
6776.00,1.1546
6775.00,1.1587
6774.00,1.1622
6773.00,1.1653
6772.00,1.1682
6771.00,1.1709
6770.00,1.1734
6769.00,1.1758
6768.00,1.1781
6767.00,1.1801
6766.00,1.1817
6765.00,1.1825
6764.00,1.1825
6763.00,1.1820
6762.00,1.1816
6761.00,1.1815
6760.00,1.1815
6759.00,1.1812
6758.00,1.1806
6757.00,1.1796
6756.00,1.1782
6755.00,1.1759
6754.00,1.1726
6753.00,1.1688
6752.00,1.1653
6751.00,1.1621
6750.00,1.1591
6749.00,1.1556
6748.00,1.1514
6747.00,1.1466
6746.00,1.1415
6745.00,1.1357
6744.00,1.1289
6743.00,1.1213
6742.00,1.1137
6741.00,1.1066
6740.00,1.1000
6739.00,1.0932
6738.00,1.0861
6737.00,1.0786
6736.00,1.0707
6735.00,1.0623
6734.00,1.0534
6733.00,1.0441
6732.00,1.0348
6731.00,1.0256
6730.00,1.0166
6729.00,1.0076
6728.00,0.9986
6727.00,0.9893
6726.00,0.9796
6725.00,0.9697
6724.00,0.9598
6723.00,0.9499
6722.00,0.9402
6721.00,0.9307
6720.00,0.9212
6719.00,0.9117
6718.00,0.9023
6717.00,0.8931
6716.00,0.8841
6715.00,0.8752
6714.00,0.8666
6713.00,0.8582
6712.00,0.8501
6711.00,0.8422
6710.00,0.8346
6709.00,0.8272
6708.00,0.8202
6707.00,0.8135
6706.00,0.8072
6705.00,0.8015
6704.00,0.7963
6703.00,0.7915
6702.00,0.7872
6701.00,0.7832
6700.00,0.7798
6699.00,0.7768
6698.00,0.7743
6697.00,0.7724
6696.00,0.7711
6695.00,0.7704
6694.00,0.7701
6693.00,0.7705
6692.00,0.7714
6691.00,0.7728
6690.00,0.7747
6689.00,0.7770
6688.00,0.7798
6687.00,0.7830
6686.00,0.7867
6685.00,0.7908
6684.00,0.7953
6683.00,0.8001
6682.00,0.8051
6681.00,0.8106
6680.00,0.8166
6679.00,0.8233
6678.00,0.8305
6677.00,0.8381
6676.00,0.8458
6675.00,0.8537
6674.00,0.8616
6673.00,0.8694
6672.00,0.8773
6671.00,0.8852
6670.00,0.8934
6669.00,0.9020
6668.00,0.9110
6667.00,0.9201
6666.00,0.9293
6665.00,0.9383
6664.00,0.9472
6663.00,0.9562
6662.00,0.9653
6661.00,0.9745
6660.00,0.9837
6659.00,0.9928
6658.00,1.0017
6657.00,1.0104
6656.00,1.0188
6655.00,1.0270
6654.00,1.0351
6653.00,1.0429
6652.00,1.0506
6651.00,1.0584
6650.00,1.0664
6649.00,1.0747
6648.00,1.0828
6647.00,1.0906
6646.00,1.0979
6645.00,1.1048
6644.00,1.1111
6643.00,1.1171
6642.00,1.1228
6641.00,1.1284
6640.00,1.1341
6639.00,1.1395
6638.00,1.1446
6637.00,1.1493
6636.00,1.1538
6635.00,1.1580
6634.00,1.1618
6633.00,1.1655
6632.00,1.1690
6631.00,1.1721
6630.00,1.1747
6629.00,1.1766
6628.00,1.1782
6627.00,1.1794
6626.00,1.1805
6625.00,1.1811
6624.00,1.1815
6623.00,1.1816
6622.00,1.1817
6621.00,1.1816
6620.00,1.1811
6619.00,1.1800
6618.00,1.1783
6617.00,1.1763
6616.00,1.1742
6615.00,1.1717
6614.00,1.1688
6613.00,1.1654
6612.00,1.1618
6611.00,1.1582
6610.00,1.1546
6609.00,1.1506
6608.00,1.1458
6607.00,1.1402
6606.00,1.1343
6605.00,1.1285
6604.00,1.1224
6603.00,1.1158
6602.00,1.1085
6601.00,1.1010
6600.00,1.0934
6599.00,1.0859
6598.00,1.0781
6597.00,1.0699
6596.00,1.0616
6595.00,1.0533
6594.00,1.0450
6593.00,1.0366
6592.00,1.0280
6591.00,1.0191
6590.00,1.0098
6589.00,1.0005
6588.00,0.9910
6587.00,0.9814
6586.00,0.9717
6585.00,0.9621
6584.00,0.9524
6583.00,0.9427
6582.00,0.9330
6581.00,0.9231
6580.00,0.9133
6579.00,0.9036
6578.00,0.8940
6577.00,0.8845
6576.00,0.8751
6575.00,0.8662
6574.00,0.8578
6573.00,0.8496
6572.00,0.8415
6571.00,0.8332
6570.00,0.8253
6569.00,0.8177
6568.00,0.8106
6567.00,0.8037
6566.00,0.7971
6565.00,0.7910
6564.00,0.7853
6563.00,0.7801
6562.00,0.7751
6561.00,0.7705
6560.00,0.7664
6559.00,0.7629
6558.00,0.7599
6557.00,0.7574
6556.00,0.7552
6555.00,0.7535
6554.00,0.7522
6553.00,0.7515
6552.00,0.7512
6551.00,0.7516
6550.00,0.7525
6549.00,0.7540
6548.00,0.7560
6547.00,0.7585
6546.00,0.7614
6545.00,0.7648
6544.00,0.7686
6543.00,0.7727
6542.00,0.7774
6541.00,0.7825
6540.00,0.7881
6539.00,0.7942
6538.00,0.8006
6537.00,0.8075
6536.00,0.8148
6535.00,0.8222
6534.00,0.8299
6533.00,0.8379
6532.00,0.8462
6531.00,0.8548
6530.00,0.8635
6529.00,0.8723
6528.00,0.8812
6527.00,0.8902
6526.00,0.8993
6525.00,0.9086
6524.00,0.9178
6523.00,0.9271
6522.00,0.9367
6521.00,0.9464
6520.00,0.9560
6519.00,0.9653
6518.00,0.9744
6517.00,0.9837
6516.00,0.9929
6515.00,1.0021
6514.00,1.0114
6513.00,1.0209
6512.00,1.0304
6511.00,1.0399
6510.00,1.0492
6509.00,1.0583
6508.00,1.0671
6507.00,1.0753
6506.00,1.0829
6505.00,1.0901
6504.00,1.0973
6503.00,1.1044
6502.00,1.1115
6501.00,1.1185
6500.00,1.1253
6499.00,1.1318
6498.00,1.1382
6497.00,1.1443
6496.00,1.1501
6495.00,1.1556
6494.00,1.1609
6493.00,1.1661
6492.00,1.1712
6491.00,1.1762
6490.00,1.1808
6489.00,1.1847
6488.00,1.1880
6487.00,1.1907
6486.00,1.1931
6485.00,1.1950
6484.00,1.1965
6483.00,1.1978
6482.00,1.1994
6481.00,1.2011
6480.00,1.2026
6479.00,1.2038
6478.00,1.2044
6477.00,1.2045
6476.00,1.2040
6475.00,1.2029
6474.00,1.2014
6473.00,1.1997
6472.00,1.1979
6471.00,1.1959
6470.00,1.1935
6469.00,1.1905
6468.00,1.1869
6467.00,1.1829
6466.00,1.1786
6465.00,1.1741
6464.00,1.1694
6463.00,1.1645
6462.00,1.1595
6461.00,1.1541
6460.00,1.1482
6459.00,1.1416
6458.00,1.1345
6457.00,1.1270
6456.00,1.1193
6455.00,1.1114
6454.00,1.1038
6453.00,1.0962
6452.00,1.0884
6451.00,1.0800
6450.00,1.0713
6449.00,1.0624
6448.00,1.0531
6447.00,1.0433
6446.00,1.0330
6445.00,1.0226
6444.00,1.0123
6443.00,1.0020
6442.00,0.9916
6441.00,0.9812
6440.00,0.9708
6439.00,0.9605
6438.00,0.9503
6437.00,0.9400
6436.00,0.9297
6435.00,0.9194
6434.00,0.9094
6433.00,0.8994
6432.00,0.8894
6431.00,0.8795
6430.00,0.8698
6429.00,0.8602
6428.00,0.8509
6427.00,0.8418
6426.00,0.8331
6425.00,0.8250
6424.00,0.8172
6423.00,0.8097
6422.00,0.8026
6421.00,0.7960
6420.00,0.7899
6419.00,0.7843
6418.00,0.7793
6417.00,0.7748
6416.00,0.7709
6415.00,0.7675
6414.00,0.7644
6413.00,0.7618
6412.00,0.7597
6411.00,0.7582
6410.00,0.7573
6409.00,0.7570
6408.00,0.7574
6407.00,0.7584
6406.00,0.7600
6405.00,0.7621
6404.00,0.7648
6403.00,0.7681
6402.00,0.7720
6401.00,0.7764
6400.00,0.7810
6399.00,0.7860
6398.00,0.7912
6397.00,0.7969
6396.00,0.8030
6395.00,0.8094
6394.00,0.8163
6393.00,0.8237
6392.00,0.8315
6391.00,0.8394
6390.00,0.8475
6389.00,0.8559
6388.00,0.8646
6387.00,0.8735
6386.00,0.8826
6385.00,0.8919
6384.00,0.9014
6383.00,0.9110
6382.00,0.9205
6381.00,0.9298
6380.00,0.9390
6379.00,0.9481
6378.00,0.9574
6377.00,0.9667
6376.00,0.9762
6375.00,0.9857
6374.00,0.9953
6373.00,1.0048
6372.00,1.0141
6371.00,1.0231
6370.00,1.0315
6369.00,1.0398
6368.00,1.0480
6367.00,1.0563
6366.00,1.0645
6365.00,1.0725
6364.00,1.0803
6363.00,1.0882
6362.00,1.0959
6361.00,1.1034
6360.00,1.1108
6359.00,1.1181
6358.00,1.1254
6357.00,1.1322
6356.00,1.1384
6355.00,1.1439
6354.00,1.1489
6353.00,1.1536
6352.00,1.1581
6351.00,1.1623
6350.00,1.1664
6349.00,1.1703
6348.00,1.1740
6347.00,1.1774
6346.00,1.1802
6345.00,1.1824
6344.00,1.1844
6343.00,1.1863
6342.00,1.1883
6341.00,1.1901
6340.00,1.1916
6339.00,1.1928
6338.00,1.1938
6337.00,1.1945
6336.00,1.1947
6335.00,1.1943
6334.00,1.1934
6333.00,1.1922
6332.00,1.1911
6331.00,1.1900
6330.00,1.1888
6329.00,1.1871
6328.00,1.1848
6327.00,1.1819
6326.00,1.1784
6325.00,1.1744
6324.00,1.1699
6323.00,1.1651
6322.00,1.1601
6321.00,1.1548
6320.00,1.1489
6319.00,1.1424
6318.00,1.1354
6317.00,1.1278
6316.00,1.1197
6315.00,1.1113
6314.00,1.1028
6313.00,1.0941
6312.00,1.0850
6311.00,1.0758
6310.00,1.0664
6309.00,1.0570
6308.00,1.0475
6307.00,1.0378
6306.00,1.0278
6305.00,1.0177
6304.00,1.0075
6303.00,0.9970
6302.00,0.9865
6301.00,0.9759
6300.00,0.9653
6299.00,0.9547
6298.00,0.9441
6297.00,0.9335
6296.00,0.9229
6295.00,0.9123
6294.00,0.9017
6293.00,0.8911
6292.00,0.8806
6291.00,0.8702
6290.00,0.8602
6289.00,0.8504
6288.00,0.8407
6287.00,0.8313
6286.00,0.8223
6285.00,0.8138
6284.00,0.8056
6283.00,0.7977
6282.00,0.7902
6281.00,0.7832
6280.00,0.7765
6279.00,0.7700
6278.00,0.7639
6277.00,0.7582
6276.00,0.7530
6275.00,0.7483
6274.00,0.7442
6273.00,0.7408
6272.00,0.7379
6271.00,0.7354
6270.00,0.7333
6269.00,0.7318
6268.00,0.7308
6267.00,0.7305
6266.00,0.7309
6265.00,0.7320
6264.00,0.7338
6263.00,0.7362
6262.00,0.7390
6261.00,0.7424
6260.00,0.7462
6259.00,0.7504
6258.00,0.7552
6257.00,0.7606
6256.00,0.7664
6255.00,0.7726
6254.00,0.7791
6253.00,0.7862
6252.00,0.7936
6251.00,0.8014
6250.00,0.8093
6249.00,0.8176
6248.00,0.8262
6247.00,0.8351
6246.00,0.8441
6245.00,0.8535
6244.00,0.8630
6243.00,0.8725
6242.00,0.8821
6241.00,0.8917
6240.00,0.9015
6239.00,0.9112
6238.00,0.9210
6237.00,0.9307
6236.00,0.9405
6235.00,0.9504
6234.00,0.9604
6233.00,0.9704
6232.00,0.9804
6231.00,0.9904
6230.00,1.0004
6229.00,1.0103
6228.00,1.0200
6227.00,1.0294
6226.00,1.0385
6225.00,1.0477
6224.00,1.0567
6223.00,1.0656
6222.00,1.0743
6221.00,1.0829
6220.00,1.0913
6219.00,1.0994
6218.00,1.1070
6217.00,1.1142
6216.00,1.1211
6215.00,1.1278
6214.00,1.1343
6213.00,1.1408
6212.00,1.1471
6211.00,1.1531
6210.00,1.1586
6209.00,1.1637
6208.00,1.1684
6207.00,1.1729
6206.00,1.1771
6205.00,1.1812
6204.00,1.1852
6203.00,1.1892
6202.00,1.1928
6201.00,1.1958
6200.00,1.1983
6199.00,1.2003
6198.00,1.2017
6197.00,1.2028
6196.00,1.2036
6195.00,1.2042
6194.00,1.2047
6193.00,1.2050
6192.00,1.2048
6191.00,1.2041
6190.00,1.2028
6189.00,1.2012
6188.00,1.1994
6187.00,1.1971
6186.00,1.1945
6185.00,1.1916
6184.00,1.1883
6183.00,1.1847
6182.00,1.1805
6181.00,1.1760
6180.00,1.1711
6179.00,1.1660
6178.00,1.1606
6177.00,1.1547
6176.00,1.1485
6175.00,1.1421
6174.00,1.1353
6173.00,1.1280
6172.00,1.1203
6171.00,1.1124
6170.00,1.1045
6169.00,1.0964
6168.00,1.0879
6167.00,1.0791
6166.00,1.0699
6165.00,1.0603
6164.00,1.0504
6163.00,1.0402
6162.00,1.0300
6161.00,1.0197
6160.00,1.0093
6159.00,0.9985
6158.00,0.9873
6157.00,0.9759
6156.00,0.9644
6155.00,0.9530
6154.00,0.9417
6153.00,0.9305
6152.00,0.9193
6151.00,0.9083
6150.00,0.8975
6149.00,0.8867
6148.00,0.8759
6147.00,0.8651
6146.00,0.8546
6145.00,0.8442
6144.00,0.8340
6143.00,0.8240
6142.00,0.8143
6141.00,0.8051
6140.00,0.7964
6139.00,0.7879
6138.00,0.7799
6137.00,0.7722
6136.00,0.7650
6135.00,0.7584
6134.00,0.7525
6133.00,0.7471
6132.00,0.7422
6131.00,0.7378
6130.00,0.7338
6129.00,0.7306
6128.00,0.7280
6127.00,0.7260
6126.00,0.7248
6125.00,0.7242
6124.00,0.7242
6123.00,0.7247
6122.00,0.7259
6121.00,0.7279
6120.00,0.7305
6119.00,0.7337
6118.00,0.7376
6117.00,0.7419
6116.00,0.7467
6115.00,0.7518
6114.00,0.7573
6113.00,0.7633
6112.00,0.7700
6111.00,0.7771
6110.00,0.7846
6109.00,0.7924
6108.00,0.8006
6107.00,0.8090
6106.00,0.8178
6105.00,0.8268
6104.00,0.8360
6103.00,0.8455
6102.00,0.8552
6101.00,0.8652
6100.00,0.8751
6099.00,0.8850
6098.00,0.8950
6097.00,0.9050
6096.00,0.9150
6095.00,0.9250
6094.00,0.9352
6093.00,0.9454
6092.00,0.9556
6091.00,0.9657
6090.00,0.9758
6089.00,0.9858
6088.00,0.9954
6087.00,1.0047
6086.00,1.0139
6085.00,1.0231
6084.00,1.0325
6083.00,1.0419
6082.00,1.0513
6081.00,1.0605
6080.00,1.0695
6079.00,1.0780
6078.00,1.0859
6077.00,1.0934
6076.00,1.1005
6075.00,1.1076
6074.00,1.1147
6073.00,1.1217
6072.00,1.1286
6071.00,1.1354
6070.00,1.1418
6069.00,1.1478
6068.00,1.1531
6067.00,1.1580
6066.00,1.1627
6065.00,1.1673
6064.00,1.1715
6063.00,1.1752
6062.00,1.1786
6061.00,1.1818
6060.00,1.1846
6059.00,1.1868
6058.00,1.1887
6057.00,1.1903
6056.00,1.1914
6055.00,1.1920
6054.00,1.1921
6053.00,1.1918
6052.00,1.1912
6051.00,1.1905
6050.00,1.1899
6049.00,1.1893
6048.00,1.1882
6047.00,1.1866
6046.00,1.1846
6045.00,1.1822
6044.00,1.1792
6043.00,1.1755
6042.00,1.1714
6041.00,1.1671
6040.00,1.1630
6039.00,1.1590
6038.00,1.1549
6037.00,1.1505
6036.00,1.1454
6035.00,1.1397
6034.00,1.1334
6033.00,1.1268
6032.00,1.1198
6031.00,1.1125
6030.00,1.1051
6029.00,1.0975
6028.00,1.0896
6027.00,1.0813
6026.00,1.0726
6025.00,1.0637
6024.00,1.0547
6023.00,1.0453
6022.00,1.0357
6021.00,1.0259
6020.00,1.0157
6019.00,1.0053
6018.00,0.9947
6017.00,0.9840
6016.00,0.9732
6015.00,0.9622
6014.00,0.9513
6013.00,0.9405
6012.00,0.9296
6011.00,0.9186
6010.00,0.9074
6009.00,0.8960
6008.00,0.8846
6007.00,0.8732
6006.00,0.8620
6005.00,0.8511
6004.00,0.8404
6003.00,0.8299
6002.00,0.8197
6001.00,0.8097
6000.00,0.8001
5999.00,0.7908
5998.00,0.7820
5997.00,0.7736
5996.00,0.7654
5995.00,0.7576
5994.00,0.7501
5993.00,0.7432
5992.00,0.7369
5991.00,0.7311
5990.00,0.7259
5989.00,0.7215
5988.00,0.7176
5987.00,0.7142
5986.00,0.7116
5985.00,0.7097
5984.00,0.7085
5983.00,0.7078
5982.00,0.7079
5981.00,0.7086
5980.00,0.7100
5979.00,0.7119
5978.00,0.7145
5977.00,0.7178
5976.00,0.7218
5975.00,0.7264
5974.00,0.7317
5973.00,0.7377
5972.00,0.7443
5971.00,0.7514
5970.00,0.7588
5969.00,0.7666
5968.00,0.7747
5967.00,0.7831
5966.00,0.7921
5965.00,0.8015
5964.00,0.8113
5963.00,0.8213
5962.00,0.8316
5961.00,0.8421
5960.00,0.8526
5959.00,0.8632
5958.00,0.8739
5957.00,0.8848
5956.00,0.8958
5955.00,0.9066
5954.00,0.9172
5953.00,0.9278
5952.00,0.9382
5951.00,0.9483
5950.00,0.9581
5949.00,0.9678
5948.00,0.9773
5947.00,0.9866
5946.00,0.9959
5945.00,1.0050
5944.00,1.0142
5943.00,1.0234
5942.00,1.0327
5941.00,1.0420
5940.00,1.0512
5939.00,1.0602
5938.00,1.0691
5937.00,1.0779
5936.00,1.0864
5935.00,1.0945
5934.00,1.1024
5933.00,1.1101
5932.00,1.1175
5931.00,1.1247
5930.00,1.1317
5929.00,1.1384
5928.00,1.1450
5927.00,1.1512
5926.00,1.1573
5925.00,1.1632
5924.00,1.1687
5923.00,1.1739
5922.00,1.1788
5921.00,1.1833
5920.00,1.1874
5919.00,1.1911
5918.00,1.1945
5917.00,1.1973
5916.00,1.1997
5915.00,1.2015
5914.00,1.2033
5913.00,1.2050
5912.00,1.2067
5911.00,1.2080
5910.00,1.2091
5909.00,1.2098
5908.00,1.2096
5907.00,1.2083
5906.00,1.2065
5905.00,1.2049
5904.00,1.2034
5903.00,1.2017
5902.00,1.1996
5901.00,1.1973
5900.00,1.1948
5899.00,1.1919
5898.00,1.1880
5897.00,1.1834
5896.00,1.1785
5895.00,1.1733
5894.00,1.1678
5893.00,1.1619
5892.00,1.1558
5891.00,1.1495
5890.00,1.1429
5889.00,1.1358
5888.00,1.1283
5887.00,1.1202
5886.00,1.1118
5885.00,1.1032
5884.00,1.0943
5883.00,1.0849
5882.00,1.0751
5881.00,1.0650
5880.00,1.0547
5879.00,1.0442
5878.00,1.0336
5877.00,1.0228
5876.00,1.0117
5875.00,1.0004
5874.00,0.9889
5873.00,0.9774
5872.00,0.9657
5871.00,0.9539
5870.00,0.9420
5869.00,0.9299
5868.00,0.9177
5867.00,0.9055
5866.00,0.8935
5865.00,0.8817
5864.00,0.8702
5863.00,0.8586
5862.00,0.8473
5861.00,0.8362
5860.00,0.8254
5859.00,0.8147
5858.00,0.8045
5857.00,0.7947
5856.00,0.7853
5855.00,0.7764
5854.00,0.7680
5853.00,0.7600
5852.00,0.7525
5851.00,0.7456
5850.00,0.7391
5849.00,0.7333
5848.00,0.7280
5847.00,0.7234
5846.00,0.7195
5845.00,0.7164
5844.00,0.7140
5843.00,0.7123
5842.00,0.7112
5841.00,0.7108
5840.00,0.7111
5839.00,0.7120
5838.00,0.7136
5837.00,0.7158
5836.00,0.7186
5835.00,0.7218
5834.00,0.7256
5833.00,0.7300
5832.00,0.7348
5831.00,0.7400
5830.00,0.7456
5829.00,0.7518
5828.00,0.7584
5827.00,0.7655
5826.00,0.7730
5825.00,0.7808
5824.00,0.7889
5823.00,0.7973
5822.00,0.8060
5821.00,0.8150
5820.00,0.8242
5819.00,0.8336
5818.00,0.8433
5817.00,0.8533
5816.00,0.8634
5815.00,0.8736
5814.00,0.8841
5813.00,0.8948
5812.00,0.9057
5811.00,0.9166
5810.00,0.9275
5809.00,0.9384
5808.00,0.9492
5807.00,0.9598
5806.00,0.9702
5805.00,0.9806
5804.00,0.9908
5803.00,1.0010
5802.00,1.0112
5801.00,1.0214
5800.00,1.0316
5799.00,1.0417
5798.00,1.0516
5797.00,1.0613
5796.00,1.0708
5795.00,1.0800
5794.00,1.0890
5793.00,1.0978
5792.00,1.1062
5791.00,1.1143
5790.00,1.1221
5789.00,1.1295
5788.00,1.1366
5787.00,1.1433
5786.00,1.1500
5785.00,1.1566
5784.00,1.1629
5783.00,1.1689
5782.00,1.1745
5781.00,1.1798
5780.00,1.1847
5779.00,1.1891
5778.00,1.1931
5777.00,1.1971
5776.00,1.2008
5775.00,1.2039
5774.00,1.2065
5773.00,1.2088
5772.00,1.2109
5771.00,1.2127
5770.00,1.2140
5769.00,1.2150
5768.00,1.2156
5767.00,1.2156
5766.00,1.2153
5765.00,1.2146
5764.00,1.2137
5763.00,1.2125
5762.00,1.2110
5761.00,1.2092
5760.00,1.2070
5759.00,1.2043
5758.00,1.2011
5757.00,1.1976
5756.00,1.1939
5755.00,1.1898
5754.00,1.1854
5753.00,1.1805
5752.00,1.1753
5751.00,1.1699
5750.00,1.1644
5749.00,1.1587
5748.00,1.1524
5747.00,1.1455
5746.00,1.1381
5745.00,1.1301
5744.00,1.1216
5743.00,1.1127
5742.00,1.1037
5741.00,1.0947
5740.00,1.0856
5739.00,1.0762
5738.00,1.0664
5737.00,1.0562
5736.00,1.0455
5735.00,1.0344
5734.00,1.0230
5733.00,1.0114
5732.00,0.9995
5731.00,0.9875
5730.00,0.9754
5729.00,0.9633
5728.00,0.9511
5727.00,0.9387
5726.00,0.9262
5725.00,0.9138
5724.00,0.9012
5723.00,0.8887
5722.00,0.8761
5721.00,0.8637
5720.00,0.8516
5719.00,0.8396
5718.00,0.8277
5717.00,0.8161
5716.00,0.8048
5715.00,0.7937
5714.00,0.7831
5713.00,0.7729
5712.00,0.7631
5711.00,0.7538
5710.00,0.7449
5709.00,0.7365
5708.00,0.7286
5707.00,0.7212
5706.00,0.7146
5705.00,0.7087
5704.00,0.7035
5703.00,0.6988
5702.00,0.6948
5701.00,0.6913
5700.00,0.6885
5699.00,0.6865
5698.00,0.6852
5697.00,0.6849
5696.00,0.6853
5695.00,0.6864
5694.00,0.6882
5693.00,0.6906
5692.00,0.6937
5691.00,0.6974
5690.00,0.7019
5689.00,0.7070
5688.00,0.7129
5687.00,0.7192
5686.00,0.7261
5685.00,0.7336
5684.00,0.7416
5683.00,0.7500
5682.00,0.7589
5681.00,0.7681
5680.00,0.7777
5679.00,0.7877
5678.00,0.7980
5677.00,0.8086
5676.00,0.8194
5675.00,0.8303
5674.00,0.8413
5673.00,0.8525
5672.00,0.8638
5671.00,0.8753
5670.00,0.8869
5669.00,0.8986
5668.00,0.9102
5667.00,0.9217
5666.00,0.9330
5665.00,0.9443
5664.00,0.9557
5663.00,0.9670
5662.00,0.9782
5661.00,0.9893
5660.00,1.0004
5659.00,1.0113
5658.00,1.0223
5657.00,1.0331
5656.00,1.0439
5655.00,1.0545
5654.00,1.0647
5653.00,1.0744
5652.00,1.0836
5651.00,1.0927
5650.00,1.1016
5649.00,1.1105
5648.00,1.1192
5647.00,1.1278
5646.00,1.1362
5645.00,1.1440
5644.00,1.1513
5643.00,1.1581
5642.00,1.1647
5641.00,1.1711
5640.00,1.1773
5639.00,1.1834
5638.00,1.1893
5637.00,1.1949
5636.00,1.2000
5635.00,1.2046
5634.00,1.2089
5633.00,1.2127
5632.00,1.2160
5631.00,1.2189
5630.00,1.2217
5629.00,1.2244
5628.00,1.2265
5627.00,1.2280
5626.00,1.2288
5625.00,1.2294
5624.00,1.2296
5623.00,1.2293
5622.00,1.2287
5621.00,1.2280
5620.00,1.2273
5619.00,1.2262
5618.00,1.2246
5617.00,1.2226
5616.00,1.2202
5615.00,1.2176
5614.00,1.2143
5613.00,1.2103
5612.00,1.2057
5611.00,1.2006
5610.00,1.1952
5609.00,1.1893
5608.00,1.1830
5607.00,1.1765
5606.00,1.1701
5605.00,1.1635
5604.00,1.1565
5603.00,1.1489
5602.00,1.1407
5601.00,1.1322
5600.00,1.1232
5599.00,1.1138
5598.00,1.1041
5597.00,1.0944
5596.00,1.0844
5595.00,1.0740
5594.00,1.0631
5593.00,1.0519
5592.00,1.0404
5591.00,1.0286
5590.00,1.0164
5589.00,1.0041
5588.00,0.9916
5587.00,0.9790
5586.00,0.9662
5585.00,0.9532
5584.00,0.9402
5583.00,0.9271
5582.00,0.9140
5581.00,0.9009
5580.00,0.8879
5579.00,0.8748
5578.00,0.8619
5577.00,0.8491
5576.00,0.8366
5575.00,0.8243
5574.00,0.8123
5573.00,0.8008
5572.00,0.7896
5571.00,0.7787
5570.00,0.7682
5569.00,0.7582
5568.00,0.7487
5567.00,0.7397
5566.00,0.7314
5565.00,0.7237
5564.00,0.7166
5563.00,0.7102
5562.00,0.7044
5561.00,0.6995
5560.00,0.6953
5559.00,0.6919
5558.00,0.6894
5557.00,0.6876
5556.00,0.6865
5555.00,0.6862
5554.00,0.6867
5553.00,0.6880
5552.00,0.6901
5551.00,0.6928
5550.00,0.6962
5549.00,0.7003
5548.00,0.7052
5547.00,0.7108
5546.00,0.7172
5545.00,0.7244
5544.00,0.7322
5543.00,0.7404
5542.00,0.7492
5541.00,0.7583
5540.00,0.7678
5539.00,0.7776
5538.00,0.7879
5537.00,0.7985
5536.00,0.8094
5535.00,0.8204
5534.00,0.8317
5533.00,0.8433
5532.00,0.8551
5531.00,0.8671
5530.00,0.8793
5529.00,0.8916
5528.00,0.9038
5527.00,0.9160
5526.00,0.9281
5525.00,0.9402
5524.00,0.9524
5523.00,0.9645
5522.00,0.9766
5521.00,0.9886
5520.00,1.0005
5519.00,1.0123
5518.00,1.0240
5517.00,1.0356
5516.00,1.0472
5515.00,1.0584
5514.00,1.0693
5513.00,1.0799
5512.00,1.0903
5511.00,1.1003
5510.00,1.1102
5509.00,1.1200
5508.00,1.1297
5507.00,1.1391
5506.00,1.1482
5505.00,1.1568
5504.00,1.1648
5503.00,1.1723
5502.00,1.1794
5501.00,1.1863
5500.00,1.1931
5499.00,1.1997
5498.00,1.2060
5497.00,1.2120
5496.00,1.2176
5495.00,1.2227
5494.00,1.2275
5493.00,1.2320
5492.00,1.2361
5491.00,1.2397
5490.00,1.2429
5489.00,1.2458
5488.00,1.2482
5487.00,1.2502
5486.00,1.2518
5485.00,1.2530
5484.00,1.2540
5483.00,1.2545
5482.00,1.2547
5481.00,1.2548
5480.00,1.2547
5479.00,1.2541
5478.00,1.2529
5477.00,1.2510
5476.00,1.2485
5475.00,1.2456
5474.00,1.2423
5473.00,1.2386
5472.00,1.2347
5471.00,1.2304
5470.00,1.2258
5469.00,1.2210
5468.00,1.2158
5467.00,1.2102
5466.00,1.2043
5465.00,1.1980
5464.00,1.1912
5463.00,1.1838
5462.00,1.1760
5461.00,1.1677
5460.00,1.1589
5459.00,1.1496
5458.00,1.1401
5457.00,1.1305
5456.00,1.1205
5455.00,1.1104
5454.00,1.0999
5453.00,1.0892
5452.00,1.0781
5451.00,1.0665
5450.00,1.0545
5449.00,1.0421
5448.00,1.0293
5447.00,1.0161
5446.00,1.0026
5445.00,0.9890
5444.00,0.9752
5443.00,0.9613
5442.00,0.9472
5441.00,0.9331
5440.00,0.9190
5439.00,0.9051
5438.00,0.8912
5437.00,0.8774
5436.00,0.8636
5435.00,0.8499
5434.00,0.8364
5433.00,0.8234
5432.00,0.8108
5431.00,0.7985
5430.00,0.7865
5429.00,0.7748
5428.00,0.7636
5427.00,0.7529
5426.00,0.7428
5425.00,0.7332
5424.00,0.7243
5423.00,0.7159
5422.00,0.7084
5421.00,0.7017
5420.00,0.6959
5419.00,0.6909
5418.00,0.6867
5417.00,0.6833
5416.00,0.6807
5415.00,0.6789
5414.00,0.6777
5413.00,0.6773
5412.00,0.6778
5411.00,0.6790
5410.00,0.6811
5409.00,0.6841
5408.00,0.6880
5407.00,0.6928
5406.00,0.6984
5405.00,0.7046
5404.00,0.7114
5403.00,0.7190
5402.00,0.7272
5401.00,0.7359
5400.00,0.7451
5399.00,0.7547
5398.00,0.7646
5397.00,0.7750
5396.00,0.7856
5395.00,0.7967
5394.00,0.8084
5393.00,0.8205
5392.00,0.8329
5391.00,0.8455
5390.00,0.8582
5389.00,0.8707
5388.00,0.8832
5387.00,0.8958
5386.00,0.9086
5385.00,0.9216
5384.00,0.9347
5383.00,0.9477
5382.00,0.9607
5381.00,0.9736
5380.00,0.9862
5379.00,0.9986
5378.00,1.0109
5377.00,1.0233
5376.00,1.0356
5375.00,1.0480
5374.00,1.0603
5373.00,1.0726
5372.00,1.0845
5371.00,1.0960
5370.00,1.1072
5369.00,1.1180
5368.00,1.1284
5367.00,1.1385
5366.00,1.1483
5365.00,1.1579
5364.00,1.1670
5363.00,1.1759
5362.00,1.1846
5361.00,1.1930
5360.00,1.2011
5359.00,1.2089
5358.00,1.2163
5357.00,1.2233
5356.00,1.2298
5355.00,1.2359
5354.00,1.2415
5353.00,1.2470
5352.00,1.2521
5351.00,1.2569
5350.00,1.2614
5349.00,1.2657
5348.00,1.2696
5347.00,1.2730
5346.00,1.2758
5345.00,1.2780
5344.00,1.2798
5343.00,1.2812
5342.00,1.2822
5341.00,1.2829
5340.00,1.2831
5339.00,1.2830
5338.00,1.2826
5337.00,1.2821
5336.00,1.2813
5335.00,1.2801
5334.00,1.2785
5333.00,1.2766
5332.00,1.2744
5331.00,1.2718
5330.00,1.2687
5329.00,1.2652
5328.00,1.2611
5327.00,1.2565
5326.00,1.2515
5325.00,1.2461
5324.00,1.2403
5323.00,1.2340
5322.00,1.2271
5321.00,1.2198
5320.00,1.2121
5319.00,1.2041
5318.00,1.1957
5317.00,1.1871
5316.00,1.1781
5315.00,1.1686
5314.00,1.1586
5313.00,1.1482
5312.00,1.1374
5311.00,1.1262
5310.00,1.1147
5309.00,1.1028
5308.00,1.0906
5307.00,1.0781
5306.00,1.0652
5305.00,1.0520
5304.00,1.0386
5303.00,1.0250
5302.00,1.0113
5301.00,0.9974
5300.00,0.9834
5299.00,0.9692
5298.00,0.9550
5297.00,0.9408
5296.00,0.9266
5295.00,0.9125
5294.00,0.8985
5293.00,0.8846
5292.00,0.8708
5291.00,0.8573
5290.00,0.8440
5289.00,0.8310
5288.00,0.8185
5287.00,0.8063
5286.00,0.7945
5285.00,0.7833
5284.00,0.7727
5283.00,0.7627
5282.00,0.7534
5281.00,0.7447
5280.00,0.7367
5279.00,0.7294
5278.00,0.7229
5277.00,0.7172
5276.00,0.7123
5275.00,0.7083
5274.00,0.7052
5273.00,0.7030
5272.00,0.7017
5271.00,0.7013
5270.00,0.7017
5269.00,0.7031
5268.00,0.7053
5267.00,0.7084
5266.00,0.7123
5265.00,0.7170
5264.00,0.7224
5263.00,0.7287
5262.00,0.7356
5261.00,0.7432
5260.00,0.7514
5259.00,0.7601
5258.00,0.7693
5257.00,0.7791
5256.00,0.7895
5255.00,0.8003
5254.00,0.8116
5253.00,0.8232
5252.00,0.8349
5251.00,0.8466
5250.00,0.8585
5249.00,0.8709
5248.00,0.8836
5247.00,0.8965
5246.00,0.9095
5245.00,0.9226
5244.00,0.9357
5243.00,0.9489
5242.00,0.9622
5241.00,0.9755
5240.00,0.9886
5239.00,1.0016
5238.00,1.0145
5237.00,1.0273
5236.00,1.0401
5235.00,1.0527
5234.00,1.0652
5233.00,1.0777
5232.00,1.0901
5231.00,1.1021
5230.00,1.1137
5229.00,1.1250
5228.00,1.1359
5227.00,1.1465
5226.00,1.1572
5225.00,1.1679
5224.00,1.1785
5223.00,1.1886
5222.00,1.1983
5221.00,1.2074
5220.00,1.2163
5219.00,1.2248
5218.00,1.2329
5217.00,1.2406
5216.00,1.2479
5215.00,1.2547
5214.00,1.2612
5213.00,1.2674
5212.00,1.2734
5211.00,1.2792
5210.00,1.2845
5209.00,1.2893
5208.00,1.2936
5207.00,1.2975
5206.00,1.3010
5205.00,1.3043
5204.00,1.3074
5203.00,1.3101
5202.00,1.3123
5201.00,1.3141
5200.00,1.3155
5199.00,1.3166
5198.00,1.3173
5197.00,1.3175
5196.00,1.3171
5195.00,1.3160
5194.00,1.3147
5193.00,1.3131
5192.00,1.3113
5191.00,1.3092
5190.00,1.3068
5189.00,1.3038
5188.00,1.3003
5187.00,1.2961
5186.00,1.2915
5185.00,1.2864
5184.00,1.2809
5183.00,1.2751
5182.00,1.2689
5181.00,1.2624
5180.00,1.2555
5179.00,1.2482
5178.00,1.2404
5177.00,1.2320
5176.00,1.2231
5175.00,1.2138
5174.00,1.2043
5173.00,1.1946
5172.00,1.1845
5171.00,1.1741
5170.00,1.1631
5169.00,1.1516
5168.00,1.1395
5167.00,1.1271
5166.00,1.1143
5165.00,1.1013
5164.00,1.0880
5163.00,1.0743
5162.00,1.0601
5161.00,1.0455
5160.00,1.0307
5159.00,1.0156
5158.00,1.0005
5157.00,0.9853
5156.00,0.9700
5155.00,0.9544
5154.00,0.9389
5153.00,0.9234
5152.00,0.9081
5151.00,0.8930
5150.00,0.8782
5149.00,0.8637
5148.00,0.8494
5147.00,0.8353
5146.00,0.8216
5145.00,0.8084
5144.00,0.7957
5143.00,0.7834
5142.00,0.7717
5141.00,0.7606
5140.00,0.7502
5139.00,0.7405
5138.00,0.7316
5137.00,0.7234
5136.00,0.7162
5135.00,0.7098
5134.00,0.7043
5133.00,0.6997
5132.00,0.6959
5131.00,0.6931
5130.00,0.6912
5129.00,0.6903
5128.00,0.6903
5127.00,0.6913
5126.00,0.6933
5125.00,0.6961
5124.00,0.6999
5123.00,0.7046
5122.00,0.7101
5121.00,0.7164
5120.00,0.7236
5119.00,0.7315
5118.00,0.7402
5117.00,0.7495
5116.00,0.7594
5115.00,0.7699
5114.00,0.7809
5113.00,0.7924
5112.00,0.8043
5111.00,0.8167
5110.00,0.8294
5109.00,0.8425
5108.00,0.8558
5107.00,0.8694
5106.00,0.8832
5105.00,0.8971
5104.00,0.9112
5103.00,0.9254
5102.00,0.9398
5101.00,0.9541
5100.00,0.9685
5099.00,0.9827
5098.00,0.9969
5097.00,1.0111
5096.00,1.0252
5095.00,1.0392
5094.00,1.0532
5093.00,1.0670
5092.00,1.0806
5091.00,1.0939
5090.00,1.1069
5089.00,1.1198
5088.00,1.1325
5087.00,1.1449
5086.00,1.1571
5085.00,1.1689
5084.00,1.1805
5083.00,1.1917
5082.00,1.2026
5081.00,1.2131
5080.00,1.2233
5079.00,1.2330
5078.00,1.2423
5077.00,1.2512
5076.00,1.2598
5075.00,1.2680
5074.00,1.2758
5073.00,1.2833
5072.00,1.2904
5071.00,1.2972
5070.00,1.3037
5069.00,1.3099
5068.00,1.3157
5067.00,1.3210
5066.00,1.3259
5065.00,1.3302
5064.00,1.3341
5063.00,1.3376
5062.00,1.3408
5061.00,1.3436
5060.00,1.3459
5059.00,1.3477
5058.00,1.3492
5057.00,1.3503
5056.00,1.3509
5055.00,1.3511
5054.00,1.3507
5053.00,1.3499
5052.00,1.3488
5051.00,1.3475
5050.00,1.3458
5049.00,1.3438
5048.00,1.3412
5047.00,1.3381
5046.00,1.3347
5045.00,1.3309
5044.00,1.3269
5043.00,1.3225
5042.00,1.3177
5041.00,1.3124
5040.00,1.3066
5039.00,1.3005
5038.00,1.2939
5037.00,1.2868
5036.00,1.2793
5035.00,1.2713
5034.00,1.2628
5033.00,1.2538
5032.00,1.2445
5031.00,1.2348
5030.00,1.2247
5029.00,1.2142
5028.00,1.2032
5027.00,1.1918
5026.00,1.1799
5025.00,1.1675
5024.00,1.1547
5023.00,1.1414
5022.00,1.1276
5021.00,1.1134
5020.00,1.0988
5019.00,1.0840
5018.00,1.0689
5017.00,1.0537
5016.00,1.0383
5015.00,1.0228
5014.00,1.0071
5013.00,0.9913
5012.00,0.9754
5011.00,0.9594
5010.00,0.9435
5009.00,0.9277
5008.00,0.9120
5007.00,0.8964
5006.00,0.8811
5005.00,0.8662
5004.00,0.8517
5003.00,0.8377
5002.00,0.8242
5001.00,0.8112
5000.00,0.7986
4999.00,0.7866
4998.00,0.7752
4997.00,0.7645
4996.00,0.7546
4995.00,0.7453
4994.00,0.7370
4993.00,0.7295
4992.00,0.7230
4991.00,0.7175
4990.00,0.7129
4989.00,0.7093
4988.00,0.7067
4987.00,0.7050
4986.00,0.7044
4985.00,0.7050
4984.00,0.7066
4983.00,0.7093
4982.00,0.7129
4981.00,0.7176
4980.00,0.7232
4979.00,0.7297
4978.00,0.7370
4977.00,0.7451
4976.00,0.7541
4975.00,0.7638
4974.00,0.7742
4973.00,0.7852
4972.00,0.7967
4971.00,0.8087
4970.00,0.8211
4969.00,0.8340
4968.00,0.8473
4967.00,0.8610
4966.00,0.8751
4965.00,0.8893
4964.00,0.9038
4963.00,0.9183
4962.00,0.9330
4961.00,0.9478
4960.00,0.9627
4959.00,0.9776
4958.00,0.9925
4957.00,1.0075
4956.00,1.0225
4955.00,1.0374
4954.00,1.0522
4953.00,1.0668
4952.00,1.0812
4951.00,1.0954
4950.00,1.1095
4949.00,1.1235
4948.00,1.1372
4947.00,1.1506
4946.00,1.1638
4945.00,1.1766
4944.00,1.1889
4943.00,1.2008
4942.00,1.2124
4941.00,1.2236
4940.00,1.2346
4939.00,1.2453
4938.00,1.2557
4937.00,1.2659
4936.00,1.2758
4935.00,1.2851
4934.00,1.2940
4933.00,1.3024
4932.00,1.3104
4931.00,1.3179
4930.00,1.3250
4929.00,1.3318
4928.00,1.3382
4927.00,1.3443
4926.00,1.3501
4925.00,1.3555
4924.00,1.3605
4923.00,1.3649
4922.00,1.3688
4921.00,1.3720
4920.00,1.3748
4919.00,1.3771
4918.00,1.3790
4917.00,1.3807
4916.00,1.3822
4915.00,1.3835
4914.00,1.3845
4913.00,1.3850
4912.00,1.3849
4911.00,1.3841
4910.00,1.3830
4909.00,1.3815
4908.00,1.3795
4907.00,1.3771
4906.00,1.3740
4905.00,1.3705
4904.00,1.3667
4903.00,1.3627
4902.00,1.3584
4901.00,1.3538
4900.00,1.3486
4899.00,1.3429
4898.00,1.3367
4897.00,1.3302
4896.00,1.3231
4895.00,1.3157
4894.00,1.3077
4893.00,1.2993
4892.00,1.2905
4891.00,1.2813
4890.00,1.2717
4889.00,1.2616
4888.00,1.2508
4887.00,1.2394
4886.00,1.2274
4885.00,1.2150
4884.00,1.2023
4883.00,1.1893
4882.00,1.1760
4881.00,1.1624
4880.00,1.1483
4879.00,1.1337
4878.00,1.1187
4877.00,1.1033
4876.00,1.0875
4875.00,1.0714
4874.00,1.0552
4873.00,1.0388
4872.00,1.0223
4871.00,1.0056
4870.00,0.9888
4869.00,0.9720
4868.00,0.9552
4867.00,0.9384
4866.00,0.9218
4865.00,0.9055
4864.00,0.8894
4863.00,0.8735
4862.00,0.8580
4861.00,0.8430
4860.00,0.8284
4859.00,0.8143
4858.00,0.8009
4857.00,0.7881
4856.00,0.7760
4855.00,0.7645
4854.00,0.7539
4853.00,0.7440
4852.00,0.7352
4851.00,0.7272
4850.00,0.7204
4849.00,0.7146
4848.00,0.7099
4847.00,0.7064
4846.00,0.7039
4845.00,0.7026
4844.00,0.7025
4843.00,0.7034
4842.00,0.7054
4841.00,0.7086
4840.00,0.7128
4839.00,0.7181
4838.00,0.7243
4837.00,0.7316
4836.00,0.7397
4835.00,0.7487
4834.00,0.7585
4833.00,0.7691
4832.00,0.7804
4831.00,0.7924
4830.00,0.8049
4829.00,0.8180
4828.00,0.8315
4827.00,0.8454
4826.00,0.8598
4825.00,0.8744
4824.00,0.8893
4823.00,0.9043
4822.00,0.9196
4821.00,0.9350
4820.00,0.9507
4819.00,0.9664
4818.00,0.9823
4817.00,0.9982
4816.00,1.0141
4815.00,1.0298
4814.00,1.0455
4813.00,1.0610
4812.00,1.0764
4811.00,1.0917
4810.00,1.1067
4809.00,1.1216
4808.00,1.1363
4807.00,1.1508
4806.00,1.1651
4805.00,1.1791
4804.00,1.1927
4803.00,1.2060
4802.00,1.2190
4801.00,1.2316
4800.00,1.2441
4799.00,1.2561
4798.00,1.2679
4797.00,1.2792
4796.00,1.2903
4795.00,1.3010
4794.00,1.3115
4793.00,1.3215
4792.00,1.3310
4791.00,1.3399
4790.00,1.3482
4789.00,1.3560
4788.00,1.3633
4787.00,1.3702
4786.00,1.3770
4785.00,1.3834
4784.00,1.3894
4783.00,1.3948
4782.00,1.3996
4781.00,1.4038
4780.00,1.4077
4779.00,1.4114
4778.00,1.4150
4777.00,1.4183
4776.00,1.4210
4775.00,1.4231
4774.00,1.4245
4773.00,1.4254
4772.00,1.4259
4771.00,1.4260
4770.00,1.4257
4769.00,1.4252
4768.00,1.4243
4767.00,1.4232
4766.00,1.4218
4765.00,1.4198
4764.00,1.4172
4763.00,1.4140
4762.00,1.4103
4761.00,1.4063
4760.00,1.4019
4759.00,1.3970
4758.00,1.3918
4757.00,1.3864
4756.00,1.3808
4755.00,1.3749
4754.00,1.3685
4753.00,1.3615
4752.00,1.3539
4751.00,1.3456
4750.00,1.3366
4749.00,1.3270
4748.00,1.3169
4747.00,1.3063
4746.00,1.2954
4745.00,1.2841
4744.00,1.2724
4743.00,1.2603
4742.00,1.2477
4741.00,1.2347
4740.00,1.2211
4739.00,1.2069
4738.00,1.1922
4737.00,1.1771
4736.00,1.1618
4735.00,1.1461
4734.00,1.1301
4733.00,1.1137
4732.00,1.0969
4731.00,1.0797
4730.00,1.0622
4729.00,1.0445
4728.00,1.0267
4727.00,1.0087
4726.00,0.9907
4725.00,0.9727
4724.00,0.9548
4723.00,0.9371
4722.00,0.9196
4721.00,0.9024
4720.00,0.8854
4719.00,0.8689
4718.00,0.8529
4717.00,0.8376
4716.00,0.8228
4715.00,0.8087
4714.00,0.7953
4713.00,0.7827
4712.00,0.7710
4711.00,0.7603
4710.00,0.7505
4709.00,0.7418
4708.00,0.7342
4707.00,0.7277
4706.00,0.7224
4705.00,0.7184
4704.00,0.7157
4703.00,0.7143
4702.00,0.7141
4701.00,0.7151
4700.00,0.7173
4699.00,0.7207
4698.00,0.7253
4697.00,0.7311
4696.00,0.7380
4695.00,0.7459
4694.00,0.7547
4693.00,0.7645
4692.00,0.7751
4691.00,0.7865
4690.00,0.7987
4689.00,0.8115
4688.00,0.8250
4687.00,0.8389
4686.00,0.8533
4685.00,0.8681
4684.00,0.8834
4683.00,0.8990
4682.00,0.9148
4681.00,0.9309
4680.00,0.9472
4679.00,0.9636
4678.00,0.9801
4677.00,0.9967
4676.00,1.0133
4675.00,1.0298
4674.00,1.0464
4673.00,1.0628
4672.00,1.0793
4671.00,1.0956
4670.00,1.1118
4669.00,1.1279
4668.00,1.1436
4667.00,1.1592
4666.00,1.1745
4665.00,1.1894
4664.00,1.2040
4663.00,1.2183
4662.00,1.2322
4661.00,1.2461
4660.00,1.2596
4659.00,1.2727
4658.00,1.2853
4657.00,1.2974
4656.00,1.3091
4655.00,1.3206
4654.00,1.3317
4653.00,1.3425
4652.00,1.3527
4651.00,1.3625
4650.00,1.3717
4649.00,1.3806
4648.00,1.3891
4647.00,1.3971
4646.00,1.4047
4645.00,1.4118
4644.00,1.4183
4643.00,1.4244
4642.00,1.4299
4641.00,1.4351
4640.00,1.4400
4639.00,1.4445
4638.00,1.4484
4637.00,1.4519
4636.00,1.4548
4635.00,1.4575
4634.00,1.4599
4633.00,1.4620
4632.00,1.4637
4631.00,1.4648
4630.00,1.4653
4629.00,1.4652
4628.00,1.4646
4627.00,1.4637
4626.00,1.4625
4625.00,1.4608
4624.00,1.4585
4623.00,1.4556
4622.00,1.4523
4621.00,1.4487
4620.00,1.4449
4619.00,1.4406
4618.00,1.4357
4617.00,1.4302
4616.00,1.4243
4615.00,1.4180
4614.00,1.4116
4613.00,1.4050
4612.00,1.3979
4611.00,1.3904
4610.00,1.3823
4609.00,1.3738
4608.00,1.3649
4607.00,1.3556
4606.00,1.3458
4605.00,1.3356
4604.00,1.3251
4603.00,1.3143
4602.00,1.3032
4601.00,1.2917
4600.00,1.2797
4599.00,1.2670
4598.00,1.2535
4597.00,1.2395
4596.00,1.2249
4595.00,1.2098
4594.00,1.1943
4593.00,1.1784
4592.00,1.1620
4591.00,1.1451
4590.00,1.1275
4589.00,1.1095
4588.00,1.0912
4587.00,1.0727
4586.00,1.0541
4585.00,1.0353
4584.00,1.0164
4583.00,0.9973
4582.00,0.9782
4581.00,0.9593
4580.00,0.9407
4579.00,0.9224
4578.00,0.9044
4577.00,0.8868
4576.00,0.8697
4575.00,0.8532
4574.00,0.8373
4573.00,0.8222
4572.00,0.8079
4571.00,0.7945
4570.00,0.7821
4569.00,0.7708
4568.00,0.7605
4567.00,0.7514
4566.00,0.7435
4565.00,0.7368
4564.00,0.7314
4563.00,0.7275
4562.00,0.7249
4561.00,0.7237
4560.00,0.7239
4559.00,0.7255
4558.00,0.7284
4557.00,0.7325
4556.00,0.7380
4555.00,0.7447
4554.00,0.7525
4553.00,0.7615
4552.00,0.7715
4551.00,0.7825
4550.00,0.7944
4549.00,0.8072
4548.00,0.8206
4547.00,0.8348
4546.00,0.8496
4545.00,0.8649
4544.00,0.8807
4543.00,0.8970
4542.00,0.9135
4541.00,0.9304
4540.00,0.9475
4539.00,0.9648
4538.00,0.9823
4537.00,0.9998
4536.00,1.0174
4535.00,1.0350
4534.00,1.0527
4533.00,1.0704
4532.00,1.0880
4531.00,1.1056
4530.00,1.1231
4529.00,1.1404
4528.00,1.1574
4527.00,1.1741
4526.00,1.1907
4525.00,1.2071
4524.00,1.2233
4523.00,1.2391
4522.00,1.2545
4521.00,1.2694
4520.00,1.2839
4519.00,1.2981
4518.00,1.3118
4517.00,1.3252
4516.00,1.3381
4515.00,1.3507
4514.00,1.3630
4513.00,1.3748
4512.00,1.3862
4511.00,1.3971
4510.00,1.4075
4509.00,1.4175
4508.00,1.4272
4507.00,1.4363
4506.00,1.4448
4505.00,1.4528
4504.00,1.4601
4503.00,1.4670
4502.00,1.4734
4501.00,1.4792
4500.00,1.4845
4499.00,1.4893
4498.00,1.4939
4497.00,1.4983
4496.00,1.5023
4495.00,1.5057
4494.00,1.5085
4493.00,1.5107
4492.00,1.5125
4491.00,1.5141
4490.00,1.5152
4489.00,1.5158
4488.00,1.5158
4487.00,1.5155
4486.00,1.5147
4485.00,1.5136
4484.00,1.5120
4483.00,1.5099
4482.00,1.5075
4481.00,1.5047
4480.00,1.5018
4479.00,1.4985
4478.00,1.4947
4477.00,1.4905
4476.00,1.4858
4475.00,1.4807
4474.00,1.4752
4473.00,1.4695
4472.00,1.4634
4471.00,1.4568
4470.00,1.4498
4469.00,1.4421
4468.00,1.4340
4467.00,1.4253
4466.00,1.4161
4465.00,1.4065
4464.00,1.3965
4463.00,1.3860
4462.00,1.3750
4461.00,1.3635
4460.00,1.3514
4459.00,1.3389
4458.00,1.3260
4457.00,1.3128
4456.00,1.2991
4455.00,1.2851
4454.00,1.2709
4453.00,1.2566
4452.00,1.2422
4451.00,1.2278
4450.00,1.2132
4449.00,1.1984
4448.00,1.1835
4447.00,1.1687
4446.00,1.1541
4445.00,1.1399
4444.00,1.1260
4443.00,1.1124
4442.00,1.0988
4441.00,1.0853
4440.00,1.0718
4439.00,1.0581
4438.00,1.0442
4437.00,1.0300
4436.00,1.0154
4435.00,1.0004
4434.00,0.9849
4433.00,0.9692
4432.00,0.9532
4431.00,0.9371
4430.00,0.9210
4429.00,0.9051
4428.00,0.8896
4427.00,0.8748
4426.00,0.8610
4425.00,0.8483
4424.00,0.8368
4423.00,0.8267
4422.00,0.8182
4421.00,0.8113
4420.00,0.8061
4419.00,0.8026
4418.00,0.8009
4417.00,0.8009
4416.00,0.8025
4415.00,0.8058
4414.00,0.8108
4413.00,0.8174
4412.00,0.8255
4411.00,0.8350
4410.00,0.8458
4409.00,0.8579
4408.00,0.8712
4407.00,0.8854
4406.00,0.9005
4405.00,0.9162
4404.00,0.9325
4403.00,0.9491
4402.00,0.9659
4401.00,0.9829
4400.00,0.9999
4399.00,1.0168
4398.00,1.0336
4397.00,1.0501
4396.00,1.0664
4395.00,1.0826
4394.00,1.0987
4393.00,1.1147
4392.00,1.1307
4391.00,1.1465
4390.00,1.1624
4389.00,1.1783
4388.00,1.1941
4387.00,1.2098
4386.00,1.2255
4385.00,1.2412
4384.00,1.2570
4383.00,1.2728
4382.00,1.2885
4381.00,1.3040
4380.00,1.3191
4379.00,1.3337
4378.00,1.3480
4377.00,1.3620
4376.00,1.3756
4375.00,1.3889
4374.00,1.4019
4373.00,1.4144
4372.00,1.4264
4371.00,1.4379
4370.00,1.4488
4369.00,1.4591
4368.00,1.4687
4367.00,1.4776
4366.00,1.4860
4365.00,1.4939
4364.00,1.5014
4363.00,1.5084
4362.00,1.5151
4361.00,1.5214
4360.00,1.5272
4359.00,1.5327
4358.00,1.5379
4357.00,1.5429
4356.00,1.5475
4355.00,1.5517
4354.00,1.5554
4353.00,1.5586
4352.00,1.5614
4351.00,1.5639
4350.00,1.5660
4349.00,1.5678
4348.00,1.5692
4347.00,1.5705
4346.00,1.5718
4345.00,1.5729
4344.00,1.5737
4343.00,1.5739
4342.00,1.5735
4341.00,1.5725
4340.00,1.5710
4339.00,1.5689
4338.00,1.5664
4337.00,1.5636
4336.00,1.5605
4335.00,1.5572
4334.00,1.5534
4333.00,1.5492
4332.00,1.5442
4331.00,1.5386
4330.00,1.5325
4329.00,1.5262
4328.00,1.5197
4327.00,1.5130
4326.00,1.5061
4325.00,1.4987
4324.00,1.4907
4323.00,1.4822
4322.00,1.4733
4321.00,1.4639
4320.00,1.4540
4319.00,1.4435
4318.00,1.4325
4317.00,1.4209
4316.00,1.4086
4315.00,1.3955
4314.00,1.3817
4313.00,1.3673
4312.00,1.3523
4311.00,1.3367
4310.00,1.3205
4309.00,1.3036
4308.00,1.2861
4307.00,1.2682
4306.00,1.2499
4305.00,1.2312
4304.00,1.2120
4303.00,1.1921
4302.00,1.1717
4301.00,1.1508
4300.00,1.1295
4299.00,1.1081
4298.00,1.0867
4297.00,1.0653
4296.00,1.0439
4295.00,1.0227
4294.00,1.0016
4293.00,0.9808
4292.00,0.9603
4291.00,0.9402
4290.00,0.9206
4289.00,0.9018
4288.00,0.8837
4287.00,0.8665
4286.00,0.8502
4285.00,0.8349
4284.00,0.8207
4283.00,0.8077
4282.00,0.7959
4281.00,0.7855
4280.00,0.7765
4279.00,0.7691
4278.00,0.7633
4277.00,0.7591
4276.00,0.7564
4275.00,0.7553
4274.00,0.7559
4273.00,0.7580
4272.00,0.7617
4271.00,0.7669
4270.00,0.7735
4269.00,0.7816
4268.00,0.7909
4267.00,0.8016
4266.00,0.8134
4265.00,0.8263
4264.00,0.8402
4263.00,0.8549
4262.00,0.8705
4261.00,0.8867
4260.00,0.9036
4259.00,0.9211
4258.00,0.9392
4257.00,0.9576
4256.00,0.9764
4255.00,0.9954
4254.00,1.0146
4253.00,1.0340
4252.00,1.0535
4251.00,1.0731
4250.00,1.0929
4249.00,1.1127
4248.00,1.1324
4247.00,1.1520
4246.00,1.1712
4245.00,1.1903
4244.00,1.2091
4243.00,1.2277
4242.00,1.2462
4241.00,1.2644
4240.00,1.2823
4239.00,1.2998
4238.00,1.3169
4237.00,1.3335
4236.00,1.3498
4235.00,1.3657
4234.00,1.3813
4233.00,1.3964
4232.00,1.4110
4231.00,1.4250
4230.00,1.4385
4229.00,1.4516
4228.00,1.4644
4227.00,1.4765
4226.00,1.4881
4225.00,1.4989
4224.00,1.5092
4223.00,1.5189
4222.00,1.5283
4221.00,1.5373
4220.00,1.5458
4219.00,1.5538
4218.00,1.5612
4217.00,1.5681
4216.00,1.5746
4215.00,1.5809
4214.00,1.5869
4213.00,1.5923
4212.00,1.5970
4211.00,1.6010
4210.00,1.6044
4209.00,1.6073
4208.00,1.6099
4207.00,1.6123
4206.00,1.6145
4205.00,1.6164
4204.00,1.6177
4203.00,1.6183
4202.00,1.6184
4201.00,1.6180
4200.00,1.6174
4199.00,1.6167
4198.00,1.6154
4197.00,1.6136
4196.00,1.6111
4195.00,1.6082
4194.00,1.6050
4193.00,1.6016
4192.00,1.5977
4191.00,1.5933
4190.00,1.5884
4189.00,1.5829
4188.00,1.5769
4187.00,1.5703
4186.00,1.5631
4185.00,1.5555
4184.00,1.5475
4183.00,1.5391
4182.00,1.5304
4181.00,1.5211
4180.00,1.5113
4179.00,1.5009
4178.00,1.4900
4177.00,1.4784
4176.00,1.4662
4175.00,1.4533
4174.00,1.4400
4173.00,1.4261
4172.00,1.4117
4171.00,1.3967
4170.00,1.3811
4169.00,1.3648
4168.00,1.3480
4167.00,1.3305
4166.00,1.3124
4165.00,1.2937
4164.00,1.2743
4163.00,1.2544
4162.00,1.2340
4161.00,1.2132
4160.00,1.1920
4159.00,1.1703
4158.00,1.1481
4157.00,1.1256
4156.00,1.1030
4155.00,1.0803
4154.00,1.0578
4153.00,1.0354
4152.00,1.0133
4151.00,0.9915
4150.00,0.9701
4149.00,0.9492
4148.00,0.9288
4147.00,0.9092
4146.00,0.8904
4145.00,0.8726
4144.00,0.8559
4143.00,0.8403
4142.00,0.8261
4141.00,0.8132
4140.00,0.8019
4139.00,0.7921
4138.00,0.7840
4137.00,0.7775
4136.00,0.7728
4135.00,0.7698
4134.00,0.7686
4133.00,0.7692
4132.00,0.7715
4131.00,0.7756
4130.00,0.7814
4129.00,0.7887
4128.00,0.7977
4127.00,0.8080
4126.00,0.8198
4125.00,0.8328
4124.00,0.8470
4123.00,0.8622
4122.00,0.8783
4121.00,0.8952
4120.00,0.9129
4119.00,0.9312
4118.00,0.9500
4117.00,0.9694
4116.00,0.9892
4115.00,1.0093
4114.00,1.0298
4113.00,1.0504
4112.00,1.0712
4111.00,1.0921
4110.00,1.1131
4109.00,1.1340
4108.00,1.1549
4107.00,1.1756
4106.00,1.1962
4105.00,1.2167
4104.00,1.2370
4103.00,1.2570
4102.00,1.2766
4101.00,1.2959
4100.00,1.3148
4099.00,1.3332
4098.00,1.3513
4097.00,1.3689
4096.00,1.3860
4095.00,1.4027
4094.00,1.4191
4093.00,1.4351
4092.00,1.4507
4091.00,1.4659
4090.00,1.4805
4089.00,1.4947
4088.00,1.5082
4087.00,1.5211
4086.00,1.5333
4085.00,1.5450
4084.00,1.5562
4083.00,1.5669
4082.00,1.5772
4081.00,1.5869
4080.00,1.5961
4079.00,1.6047
4078.00,1.6129
4077.00,1.6207
4076.00,1.6280
4075.00,1.6348
4074.00,1.6409
4073.00,1.6465
4072.00,1.6515
4071.00,1.6559
4070.00,1.6600
4069.00,1.6638
4068.00,1.6674
4067.00,1.6705
4066.00,1.6731
4065.00,1.6751
4064.00,1.6766
4063.00,1.6780
4062.00,1.6790
4061.00,1.6796
4060.00,1.6796
4059.00,1.6792
4058.00,1.6782
4057.00,1.6767
4056.00,1.6747
4055.00,1.6720
4054.00,1.6689
4053.00,1.6657
4052.00,1.6623
4051.00,1.6588
4050.00,1.6546
4049.00,1.6498
4048.00,1.6442
4047.00,1.6382
4046.00,1.6320
4045.00,1.6254
4044.00,1.6183
4043.00,1.6105
4042.00,1.6020
4041.00,1.5930
4040.00,1.5836
4039.00,1.5740
4038.00,1.5641
4037.00,1.5539
4036.00,1.5433
4035.00,1.5323
4034.00,1.5210
4033.00,1.5094
4032.00,1.4973
4031.00,1.4844
4030.00,1.4708
4029.00,1.4565
4028.00,1.4416
4027.00,1.4262
4026.00,1.4103
4025.00,1.3936
4024.00,1.3761
4023.00,1.3576
4022.00,1.3382
4021.00,1.3179
4020.00,1.2969
4019.00,1.2752
4018.00,1.2531
4017.00,1.2304
4016.00,1.2072
4015.00,1.1837
4014.00,1.1598
4013.00,1.1356
4012.00,1.1114
4011.00,1.0872
4010.00,1.0631
4009.00,1.0392
4008.00,1.0156
4007.00,0.9926
4006.00,0.9702
4005.00,0.9488
4004.00,0.9283
4003.00,0.9090
4002.00,0.8909
4001.00,0.8741
4000.00,0.8587
3999.00,0.8448
3998.00,0.8325
3997.00,0.8220
3996.00,0.8134
3995.00,0.8068
3994.00,0.8022
3993.00,0.7996
3992.00,0.7991
3991.00,0.8007
3990.00,0.8045
3989.00,0.8102
3988.00,0.8178
3987.00,0.8271
3986.00,0.8381
3985.00,0.8506
3984.00,0.8647
3983.00,0.8801
3982.00,0.8966
3981.00,0.9140
3980.00,0.9321
3979.00,0.9507
3978.00,0.9698
3977.00,0.9892
3976.00,1.0089
3975.00,1.0286
3974.00,1.0484
3973.00,1.0681
3972.00,1.0877
3971.00,1.1073
3970.00,1.1270
3969.00,1.1468
3968.00,1.1668
3967.00,1.1868
3966.00,1.2069
3965.00,1.2268
3964.00,1.2467
3963.00,1.2666
3962.00,1.2866
3961.00,1.3066
3960.00,1.3264
3959.00,1.3460
3958.00,1.3653
3957.00,1.3843
3956.00,1.4030
3955.00,1.4212
3954.00,1.4389
3953.00,1.4561
3952.00,1.4729
3951.00,1.4894
3950.00,1.5056
3949.00,1.5214
3948.00,1.5366
3947.00,1.5512
3946.00,1.5650
3945.00,1.5781
3944.00,1.5906
3943.00,1.6028
3942.00,1.6146
3941.00,1.6258
3940.00,1.6363
3939.00,1.6461
3938.00,1.6553
3937.00,1.6640
3936.00,1.6720
3935.00,1.6794
3934.00,1.6866
3933.00,1.6939
3932.00,1.7013
3931.00,1.7084
3930.00,1.7146
3929.00,1.7196
3928.00,1.7234
3927.00,1.7264
3926.00,1.7291
3925.00,1.7318
3924.00,1.7345
3923.00,1.7369
3922.00,1.7388
3921.00,1.7403
3920.00,1.7419
3919.00,1.7433
3918.00,1.7440
3917.00,1.7438
3916.00,1.7430
3915.00,1.7417
3914.00,1.7398
3913.00,1.7373
3912.00,1.7344
3911.00,1.7312
3910.00,1.7277
3909.00,1.7239
3908.00,1.7200
3907.00,1.7156
3906.00,1.7107
3905.00,1.7053
3904.00,1.6997
3903.00,1.6939
3902.00,1.6877
3901.00,1.6807
3900.00,1.6730
3899.00,1.6647
3898.00,1.6557
3897.00,1.6456
3896.00,1.6344
3895.00,1.6225
3894.00,1.6099
3893.00,1.5965
3892.00,1.5825
3891.00,1.5682
3890.00,1.5539
3889.00,1.5398
3888.00,1.5253
3887.00,1.5099
3886.00,1.4932
3885.00,1.4753
3884.00,1.4566
3883.00,1.4374
3882.00,1.4174
3881.00,1.3966
3880.00,1.3747
3879.00,1.3519
3878.00,1.3287
3877.00,1.3055
3876.00,1.2822
3875.00,1.2582
3874.00,1.2334
3873.00,1.2081
3872.00,1.1825
3871.00,1.1562
3870.00,1.1290
3869.00,1.1019
3868.00,1.0757
3867.00,1.0504
3866.00,1.0257
3865.00,1.0016
3864.00,0.9777
3863.00,0.9538
3862.00,0.9304
3861.00,0.9084
3860.00,0.8886
3859.00,0.8711
3858.00,0.8560
3857.00,0.8432
3856.00,0.8329
3855.00,0.8243
3854.00,0.8167
3853.00,0.8098
3852.00,0.8044
3851.00,0.8011
3850.00,0.7996
3849.00,0.8003
3848.00,0.8035
3847.00,0.8083
3846.00,0.8149
3845.00,0.8241
3844.00,0.8360
3843.00,0.8503
3842.00,0.8660
3841.00,0.8826
3840.00,0.9005
3839.00,0.9202
3838.00,0.9420
3837.00,0.9653
3836.00,0.9889
3835.00,1.0119
3834.00,1.0347
3833.00,1.0576
3832.00,1.0811
3831.00,1.1050
3830.00,1.1286
3829.00,1.1518
3828.00,1.1748
3827.00,1.1980
3826.00,1.2215
3825.00,1.2443
3824.00,1.2658
3823.00,1.2868
3822.00,1.3092
3821.00,1.3344
3820.00,1.3609
3819.00,1.3855
3818.00,1.4072
3817.00,1.4276
3816.00,1.4492
3815.00,1.4717
3814.00,1.4929
3813.00,1.5121
3812.00,1.5297
3811.00,1.5465
3810.00,1.5619
3809.00,1.5760
3808.00,1.5898
3807.00,1.6050
3806.00,1.6213
3805.00,1.6371
3804.00,1.6507
3803.00,1.6628
3802.00,1.6752
3801.00,1.6882
3800.00,1.7007
3799.00,1.7115
3798.00,1.7208
3797.00,1.7299
3796.00,1.7388
3795.00,1.7469
3794.00,1.7540
3793.00,1.7607
3792.00,1.7673
3791.00,1.7735
3790.00,1.7791
3789.00,1.7839
3788.00,1.7882
3787.00,1.7922
3786.00,1.7959
3785.00,1.7990
3784.00,1.8015
3783.00,1.8035
3782.00,1.8052
3781.00,1.8069
3780.00,1.8083
3779.00,1.8093
3778.00,1.8097
3777.00,1.8094
3776.00,1.8085
3775.00,1.8075
3774.00,1.8066
3773.00,1.8052
3772.00,1.8028
3771.00,1.7996
3770.00,1.7961
3769.00,1.7922
3768.00,1.7878
3767.00,1.7830
3766.00,1.7780
3765.00,1.7730
3764.00,1.7670
3763.00,1.7599
3762.00,1.7519
3761.00,1.7435
3760.00,1.7349
3759.00,1.7256
3758.00,1.7156
3757.00,1.7051
3756.00,1.6945
3755.00,1.6841
3754.00,1.6736
3753.00,1.6624
3752.00,1.6500
3751.00,1.6361
3750.00,1.6207
3749.00,1.6046
3748.00,1.5887
3747.00,1.5731
3746.00,1.5568
3745.00,1.5385
3744.00,1.5181
3743.00,1.4971
3742.00,1.4768
3741.00,1.4566
3740.00,1.4358
3739.00,1.4137
3738.00,1.3894
3737.00,1.3632
3736.00,1.3361
3735.00,1.3091
3734.00,1.2821
3733.00,1.2543
3732.00,1.2254
3731.00,1.1963
3730.00,1.1679
3729.00,1.1399
3728.00,1.1122
3727.00,1.0845
3726.00,1.0572
3725.00,1.0304
3724.00,1.0046
3723.00,0.9801
3722.00,0.9569
3721.00,0.9350
3720.00,0.9145
3719.00,0.8959
3718.00,0.8796
3717.00,0.8658
3716.00,0.8545
3715.00,0.8459
3714.00,0.8402
3713.00,0.8381
3712.00,0.8391
3711.00,0.8428
3710.00,0.8485
3709.00,0.8559
3708.00,0.8652
3707.00,0.8772
3706.00,0.8915
3705.00,0.9077
3704.00,0.9256
3703.00,0.9454
3702.00,0.9675
3701.00,0.9914
3700.00,1.0162
3699.00,1.0412
3698.00,1.0664
3697.00,1.0920
3696.00,1.1183
3695.00,1.1446
3694.00,1.1707
3693.00,1.1966
3692.00,1.2228
3691.00,1.2497
3690.00,1.2775
3689.00,1.3071
3688.00,1.3382
3687.00,1.3692
3686.00,1.3981
3685.00,1.4242
3684.00,1.4480
3683.00,1.4703
3682.00,1.4916
3681.00,1.5125
3680.00,1.5335
3679.00,1.5541
3678.00,1.5738
3677.00,1.5932
3676.00,1.6137
3675.00,1.6362
3674.00,1.6588
3673.00,1.6788
3672.00,1.6958
3671.00,1.7119
3670.00,1.7281
3669.00,1.7435
3668.00,1.7574
3667.00,1.7699
3666.00,1.7817
3665.00,1.7932
3664.00,1.8039
3663.00,1.8135
3662.00,1.8224
3661.00,1.8313
3660.00,1.8400
3659.00,1.8483
3658.00,1.8562
3657.00,1.8641
3656.00,1.8723
3655.00,1.8802
3654.00,1.8871
3653.00,1.8928
3652.00,1.8982
3651.00,1.9039
3650.00,1.9099
3649.00,1.9157
3648.00,1.9208
3647.00,1.9248
3646.00,1.9279
3645.00,1.9306
3644.00,1.9328
3643.00,1.9342
3642.00,1.9348
3641.00,1.9350
3640.00,1.9352
3639.00,1.9356
3638.00,1.9359
3637.00,1.9362
3636.00,1.9361
3635.00,1.9358
3634.00,1.9358
3633.00,1.9361
3632.00,1.9360
3631.00,1.9350
3630.00,1.9333
3629.00,1.9315
3628.00,1.9298
3627.00,1.9277
3626.00,1.9245
3625.00,1.9204
3624.00,1.9155
3623.00,1.9095
3622.00,1.9024
3621.00,1.8951
3620.00,1.8883
3619.00,1.8821
3618.00,1.8761
3617.00,1.8698
3616.00,1.8627
3615.00,1.8548
3614.00,1.8458
3613.00,1.8358
3612.00,1.8255
3611.00,1.8153
3610.00,1.8054
3609.00,1.7956
3608.00,1.7850
3607.00,1.7734
3606.00,1.7608
3605.00,1.7474
3604.00,1.7334
3603.00,1.7187
3602.00,1.7033
3601.00,1.6873
3600.00,1.6708
3599.00,1.6538
3598.00,1.6366
3597.00,1.6191
3596.00,1.6012
3595.00,1.5828
3594.00,1.5638
3593.00,1.5443
3592.00,1.5246
3591.00,1.5047
3590.00,1.4847
3589.00,1.4643
3588.00,1.4431
3587.00,1.4213
3586.00,1.3994
3585.00,1.3776
3584.00,1.3561
3583.00,1.3350
3582.00,1.3143
3581.00,1.2938
3580.00,1.2740
3579.00,1.2553
3578.00,1.2380
3577.00,1.2220
3576.00,1.2073
3575.00,1.1940
3574.00,1.1823
3573.00,1.1722
3572.00,1.1638
3571.00,1.1573
3570.00,1.1529
3569.00,1.1504
3568.00,1.1500
3567.00,1.1513
3566.00,1.1540
3565.00,1.1577
3564.00,1.1624
3563.00,1.1685
3562.00,1.1762
3561.00,1.1854
3560.00,1.1959
3559.00,1.2078
3558.00,1.2210
3557.00,1.2352
3556.00,1.2503
3555.00,1.2661
3554.00,1.2825
3553.00,1.2995
3552.00,1.3172
3551.00,1.3350
3550.00,1.3529
3549.00,1.3707
3548.00,1.3887
3547.00,1.4071
3546.00,1.4259
3545.00,1.4447
3544.00,1.4633
3543.00,1.4813
3542.00,1.4987
3541.00,1.5156
3540.00,1.5321
3539.00,1.5486
3538.00,1.5651
3537.00,1.5819
3536.00,1.5987
3535.00,1.6151
3534.00,1.6309
3533.00,1.6461
3532.00,1.6611
3531.00,1.6763
3530.00,1.6915
3529.00,1.7064
3528.00,1.7208
3527.00,1.7346
3526.00,1.7478
3525.00,1.7607
3524.00,1.7737
3523.00,1.7865
3522.00,1.7990
3521.00,1.8112
3520.00,1.8229
3519.00,1.8342
3518.00,1.8449
3517.00,1.8552
3516.00,1.8653
3515.00,1.8751
3514.00,1.8845
3513.00,1.8936
3512.00,1.9023
3511.00,1.9106
3510.00,1.9184
3509.00,1.9256
3508.00,1.9324
3507.00,1.9389
3506.00,1.9452
3505.00,1.9514
3504.00,1.9571
3503.00,1.9621
3502.00,1.9663
3501.00,1.9699
3500.00,1.9732
3499.00,1.9761
3498.00,1.9784
3497.00,1.9800
3496.00,1.9814
3495.00,1.9830
3494.00,1.9844
3493.00,1.9853
3492.00,1.9854
3491.00,1.9847
3490.00,1.9839
3489.00,1.9832
3488.00,1.9824
3487.00,1.9813
3486.00,1.9794
3485.00,1.9768
3484.00,1.9735
3483.00,1.9698
3482.00,1.9656
3481.00,1.9613
3480.00,1.9569
3479.00,1.9521
3478.00,1.9468
3477.00,1.9406
3476.00,1.9337
3475.00,1.9261
3474.00,1.9181
3473.00,1.9101
3472.00,1.9022
3471.00,1.8944
3470.00,1.8863
3469.00,1.8775
3468.00,1.8676
3467.00,1.8564
3466.00,1.8443
3465.00,1.8314
3464.00,1.8181
3463.00,1.8043
3462.00,1.7901
3461.00,1.7754
3460.00,1.7602
3459.00,1.7444
3458.00,1.7280
3457.00,1.7108
3456.00,1.6928
3455.00,1.6739
3454.00,1.6543
3453.00,1.6340
3452.00,1.6129
3451.00,1.5912
3450.00,1.5688
3449.00,1.5457
3448.00,1.5218
3447.00,1.4972
3446.00,1.4719
3445.00,1.4462
3444.00,1.4204
3443.00,1.3944
3442.00,1.3684
3441.00,1.3421
3440.00,1.3159
3439.00,1.2900
3438.00,1.2647
3437.00,1.2401
3436.00,1.2164
3435.00,1.1937
3434.00,1.1719
3433.00,1.1515
3432.00,1.1325
3431.00,1.1152
3430.00,1.0997
3429.00,1.0863
3428.00,1.0749
3427.00,1.0658
3426.00,1.0590
3425.00,1.0545
3424.00,1.0524
3423.00,1.0527
3422.00,1.0554
3421.00,1.0605
3420.00,1.0678
3419.00,1.0773
3418.00,1.0886
3417.00,1.1019
3416.00,1.1169
3415.00,1.1336
3414.00,1.1516
3413.00,1.1708
3412.00,1.1910
3411.00,1.2121
3410.00,1.2340
3409.00,1.2566
3408.00,1.2797
3407.00,1.3031
3406.00,1.3266
3405.00,1.3501
3404.00,1.3736
3403.00,1.3970
3402.00,1.4204
3401.00,1.4436
3400.00,1.4666
3399.00,1.4893
3398.00,1.5118
3397.00,1.5338
3396.00,1.5555
3395.00,1.5769
3394.00,1.5981
3393.00,1.6192
3392.00,1.6402
3391.00,1.6607
3390.00,1.6805
3389.00,1.6996
3388.00,1.7182
3387.00,1.7361
3386.00,1.7535
3385.00,1.7705
3384.00,1.7872
3383.00,1.8035
3382.00,1.8193
3381.00,1.8344
3380.00,1.8491
3379.00,1.8634
3378.00,1.8770
3377.00,1.8898
3376.00,1.9016
3375.00,1.9125
3374.00,1.9229
3373.00,1.9331
3372.00,1.9432
3371.00,1.9529
3370.00,1.9619
3369.00,1.9701
3368.00,1.9778
3367.00,1.9855
3366.00,1.9931
3365.00,1.9999
3364.00,2.0055
3363.00,2.0100
3362.00,2.0140
3361.00,2.0182
3360.00,2.0226
3359.00,2.0269
3358.00,2.0307
3357.00,2.0339
3356.00,2.0364
3355.00,2.0384
3354.00,2.0399
3353.00,2.0412
3352.00,2.0424
3351.00,2.0433
3350.00,2.0432
3349.00,2.0418
3348.00,2.0394
3347.00,2.0373
3346.00,2.0358
3345.00,2.0347
3344.00,2.0327
3343.00,2.0296
3342.00,2.0256
3341.00,2.0214
3340.00,2.0169
3339.00,2.0120
3338.00,2.0065
3337.00,2.0009
3336.00,1.9952
3335.00,1.9890
3334.00,1.9820
3333.00,1.9740
3332.00,1.9655
3331.00,1.9566
3330.00,1.9475
3329.00,1.9381
3328.00,1.9280
3327.00,1.9171
3326.00,1.9053
3325.00,1.8931
3324.00,1.8805
3323.00,1.8677
3322.00,1.8546
3321.00,1.8409
3320.00,1.8263
3319.00,1.8107
3318.00,1.7940
3317.00,1.7765
3316.00,1.7584
3315.00,1.7397
3314.00,1.7204
3313.00,1.7003
3312.00,1.6791
3311.00,1.6569
3310.00,1.6339
3309.00,1.6103
3308.00,1.5861
3307.00,1.5614
3306.00,1.5361
3305.00,1.5104
3304.00,1.4842
3303.00,1.4577
3302.00,1.4310
3301.00,1.4042
3300.00,1.3774
3299.00,1.3507
3298.00,1.3244
3297.00,1.2986
3296.00,1.2736
3295.00,1.2496
3294.00,1.2266
3293.00,1.2049
3292.00,1.1845
3291.00,1.1657
3290.00,1.1486
3289.00,1.1334
3288.00,1.1203
3287.00,1.1092
3286.00,1.1003
3285.00,1.0938
3284.00,1.0898
3283.00,1.0883
3282.00,1.0892
3281.00,1.0926
3280.00,1.0984
3279.00,1.1065
3278.00,1.1167
3277.00,1.1290
3276.00,1.1432
3275.00,1.1591
3274.00,1.1765
3273.00,1.1954
3272.00,1.2154
3271.00,1.2366
3270.00,1.2587
3269.00,1.2817
3268.00,1.3053
3267.00,1.3295
3266.00,1.3543
3265.00,1.3793
3264.00,1.4046
3263.00,1.4299
3262.00,1.4551
3261.00,1.4803
3260.00,1.5055
3259.00,1.5306
3258.00,1.5555
3257.00,1.5799
3256.00,1.6039
3255.00,1.6276
3254.00,1.6508
3253.00,1.6735
3252.00,1.6959
3251.00,1.7178
3250.00,1.7390
3249.00,1.7596
3248.00,1.7794
3247.00,1.7986
3246.00,1.8172
3245.00,1.8353
3244.00,1.8530
3243.00,1.8702
3242.00,1.8868
3241.00,1.9026
3240.00,1.9176
3239.00,1.9318
3238.00,1.9452
3237.00,1.9579
3236.00,1.9697
3235.00,1.9809
3234.00,1.9917
3233.00,2.0024
3232.00,2.0127
3231.00,2.0226
3230.00,2.0318
3229.00,2.0405
3228.00,2.0486
3227.00,2.0560
3226.00,2.0629
3225.00,2.0694
3224.00,2.0757
3223.00,2.0818
3222.00,2.0874
3221.00,2.0925
3220.00,2.0971
3219.00,2.1015
3218.00,2.1056
3217.00,2.1092
3216.00,2.1121
3215.00,2.1142
3214.00,2.1155
3213.00,2.1163
3212.00,2.1168
3211.00,2.1169
3210.00,2.1168
3209.00,2.1166
3208.00,2.1166
3207.00,2.1166
3206.00,2.1161
3205.00,2.1153
3204.00,2.1141
3203.00,2.1126
3202.00,2.1108
3201.00,2.1085
3200.00,2.1051
3199.00,2.1004
3198.00,2.0945
3197.00,2.0878
3196.00,2.0808
3195.00,2.0737
3194.00,2.0664
3193.00,2.0586
3192.00,2.0502
3191.00,2.0408
3190.00,2.0305
3189.00,2.0195
3188.00,2.0079
3187.00,1.9963
3186.00,1.9843
3185.00,1.9718
3184.00,1.9585
3183.00,1.9446
3182.00,1.9302
3181.00,1.9152
3180.00,1.8995
3179.00,1.8826
3178.00,1.8649
3177.00,1.8465
3176.00,1.8278
3175.00,1.8090
3174.00,1.7902
3173.00,1.7718
3172.00,1.7547
3171.00,1.7398
3170.00,1.7283
3169.00,1.7213
3168.00,1.7195
3167.00,1.7228
3166.00,1.7296
3165.00,1.7368
3164.00,1.7405
3163.00,1.7367
3162.00,1.7233
3161.00,1.7002
3160.00,1.6695
3159.00,1.6337
3158.00,1.5951
3157.00,1.5557
3156.00,1.5166
3155.00,1.4788
3154.00,1.4429
3153.00,1.4090
3152.00,1.3775
3151.00,1.3484
3150.00,1.3218
3149.00,1.2977
3148.00,1.2761
3147.00,1.2571
3146.00,1.2406
3145.00,1.2268
3144.00,1.2157
3143.00,1.2074
3142.00,1.2019
3141.00,1.1993
3140.00,1.1997
3139.00,1.2030
3138.00,1.2090
3137.00,1.2174
3136.00,1.2282
3135.00,1.2413
3134.00,1.2564
3133.00,1.2735
3132.00,1.2923
3131.00,1.3123
3130.00,1.3335
3129.00,1.3558
3128.00,1.3789
3127.00,1.4027
3126.00,1.4271
3125.00,1.4519
3124.00,1.4770
3123.00,1.5025
3122.00,1.5282
3121.00,1.5540
3120.00,1.5798
3119.00,1.6055
3118.00,1.6309
3117.00,1.6560
3116.00,1.6808
3115.00,1.7050
3114.00,1.7284
3113.00,1.7513
3112.00,1.7736
3111.00,1.7957
3110.00,1.8174
3109.00,1.8386
3108.00,1.8591
3107.00,1.8788
3106.00,1.8977
3105.00,1.9160
3104.00,1.9337
3103.00,1.9510
3102.00,1.9677
3101.00,1.9838
3100.00,1.9993
3099.00,2.0143
3098.00,2.0287
3097.00,2.0426
3096.00,2.0557
3095.00,2.0677
3094.00,2.0787
3093.00,2.0891
3092.00,2.0993
3091.00,2.1091
3090.00,2.1185
3089.00,2.1273
3088.00,2.1357
3087.00,2.1436
3086.00,2.1511
3085.00,2.1581
3084.00,2.1648
3083.00,2.1711
3082.00,2.1768
3081.00,2.1820
3080.00,2.1865
3079.00,2.1905
3078.00,2.1942
3077.00,2.1982
3076.00,2.2026
3075.00,2.2071
3074.00,2.2103
3073.00,2.2117
3072.00,2.2118
3071.00,2.2120
3070.00,2.2131
3069.00,2.2145
3068.00,2.2150
3067.00,2.2141
3066.00,2.2118
3065.00,2.2088
3064.00,2.2056
3063.00,2.2024
3062.00,2.1991
3061.00,2.1956
3060.00,2.1919
3059.00,2.1881
3058.00,2.1841
3057.00,2.1796
3056.00,2.1743
3055.00,2.1686
3054.00,2.1625
3053.00,2.1558
3052.00,2.1477
3051.00,2.1385
3050.00,2.1286
3049.00,2.1188
3048.00,2.1090
3047.00,2.0988
3046.00,2.0880
3045.00,2.0767
3044.00,2.0650
3043.00,2.0528
3042.00,2.0399
3041.00,2.0264
3040.00,2.0123
3039.00,1.9977
3038.00,1.9825
3037.00,1.9666
3036.00,1.9503
3035.00,1.9338
3034.00,1.9173
3033.00,1.9004
3032.00,1.8830
3031.00,1.8651
3030.00,1.8469
3029.00,1.8286
3028.00,1.8105
3027.00,1.7926
3026.00,1.7753
3025.00,1.7586
3024.00,1.7428
3023.00,1.7278
3022.00,1.7138
3021.00,1.7010
3020.00,1.6898
3019.00,1.6803
3018.00,1.6729
3017.00,1.6676
3016.00,1.6646
3015.00,1.6640
3014.00,1.6656
3013.00,1.6693
3012.00,1.6749
3011.00,1.6824
3010.00,1.6913
3009.00,1.7015
3008.00,1.7122
3007.00,1.7229
3006.00,1.7331
3005.00,1.7423
3004.00,1.7503
3003.00,1.7565
3002.00,1.7604
3001.00,1.7617
3000.00,1.7606
2999.00,1.7571
2998.00,1.7519
2997.00,1.7456
2996.00,1.7390
2995.00,1.7327
2994.00,1.7272
2993.00,1.7229
2992.00,1.7203
2991.00,1.7200
2990.00,1.7223
2989.00,1.7273
2988.00,1.7347
2987.00,1.7445
2986.00,1.7569
2985.00,1.7718
2984.00,1.7892
2983.00,1.8091
2982.00,1.8311
2981.00,1.8546
2980.00,1.8791
2979.00,1.9044
2978.00,1.9302
2977.00,1.9564
2976.00,1.9828
2975.00,2.0090
2974.00,2.0350
2973.00,2.0607
2972.00,2.0862
2971.00,2.1111
2970.00,2.1347
2969.00,2.1570
2968.00,2.1779
2967.00,2.1977
2966.00,2.2170
2965.00,2.2358
2964.00,2.2539
2963.00,2.2707
2962.00,2.2861
2961.00,2.3008
2960.00,2.3157
2959.00,2.3310
2958.00,2.3463
2957.00,2.3617
2956.00,2.3772
2955.00,2.3933
2954.00,2.4101
2953.00,2.4273
2952.00,2.4443
2951.00,2.4604
2950.00,2.4753
2949.00,2.4896
2948.00,2.5040
2947.00,2.5180
2946.00,2.5298
2945.00,2.5374
2944.00,2.5398
2943.00,2.5362
2942.00,2.5261
2941.00,2.5106
2940.00,2.4923
2939.00,2.4743
2938.00,2.4577
2937.00,2.4421
2936.00,2.4267
2935.00,2.4119
2934.00,2.3983
2933.00,2.3868
2932.00,2.3778
2931.00,2.3714
2930.00,2.3672
2929.00,2.3636
2928.00,2.3596
2927.00,2.3552
2926.00,2.3521
2925.00,2.3511
2924.00,2.3515
2923.00,2.3517
2922.00,2.3508
2921.00,2.3496
2920.00,2.3494
2919.00,2.3502
2918.00,2.3514
2917.00,2.3516
2916.00,2.3506
2915.00,2.3492
2914.00,2.3481
2913.00,2.3474
2912.00,2.3471
2911.00,2.3471
2910.00,2.3473
2909.00,2.3475
2908.00,2.3468
2907.00,2.3446
2906.00,2.3410
2905.00,2.3369
2904.00,2.3332
2903.00,2.3302
2902.00,2.3275
2901.00,2.3242
2900.00,2.3197
2899.00,2.3137
2898.00,2.3064
2897.00,2.2980
2896.00,2.2886
2895.00,2.2788
2894.00,2.2690
2893.00,2.2593
2892.00,2.2495
2891.00,2.2393
2890.00,2.2285
2889.00,2.2170
2888.00,2.2048
2887.00,2.1919
2886.00,2.1785
2885.00,2.1647
2884.00,2.1506
2883.00,2.1362
2882.00,2.1216
2881.00,2.1070
2880.00,2.0932
2879.00,2.0806
2878.00,2.0693
2877.00,2.0593
2876.00,2.0505
2875.00,2.0431
2874.00,2.0372
2873.00,2.0329
2872.00,2.0299
2871.00,2.0275
2870.00,2.0253
2869.00,2.0221
2868.00,2.0170
2867.00,2.0095
2866.00,1.9997
2865.00,1.9877
2864.00,1.9739
2863.00,1.9578
2862.00,1.9392
2861.00,1.9176
2860.00,1.8927
2859.00,1.8647
2858.00,1.8334
2857.00,1.7991
2856.00,1.7624
2855.00,1.7239
2854.00,1.6846
2853.00,1.6450
2852.00,1.6055
2851.00,1.5666
2850.00,1.5289
2849.00,1.4932
2848.00,1.4599
2847.00,1.4297
2846.00,1.4028
2845.00,1.3798
2844.00,1.3606
2843.00,1.3456
2842.00,1.3347
2841.00,1.3280
2840.00,1.3252
2839.00,1.3263
2838.00,1.3310
2837.00,1.3392
2836.00,1.3506
2835.00,1.3648
2834.00,1.3815
2833.00,1.4004
2832.00,1.4214
2831.00,1.4442
2830.00,1.4683
2829.00,1.4937
2828.00,1.5201
2827.00,1.5473
2826.00,1.5753
2825.00,1.6039
2824.00,1.6329
2823.00,1.6621
2822.00,1.6915
2821.00,1.7208
2820.00,1.7501
2819.00,1.7792
2818.00,1.8080
2817.00,1.8366
2816.00,1.8647
2815.00,1.8919
2814.00,1.9186
2813.00,1.9447
2812.00,1.9701
2811.00,1.9943
2810.00,2.0171
2809.00,2.0388
2808.00,2.0601
2807.00,2.0812
2806.00,2.1017
2805.00,2.1210
2804.00,2.1385
2803.00,2.1548
2802.00,2.1709
2801.00,2.1873
2800.00,2.2036
2799.00,2.2189
2798.00,2.2325
2797.00,2.2446
2796.00,2.2556
2795.00,2.2661
2794.00,2.2762
2793.00,2.2863
2792.00,2.2961
2791.00,2.3052
2790.00,2.3134
2789.00,2.3209
2788.00,2.3279
2787.00,2.3348
2786.00,2.3415
2785.00,2.3480
2784.00,2.3535
2783.00,2.3577
2782.00,2.3610
2781.00,2.3642
2780.00,2.3679
2779.00,2.3722
2778.00,2.3762
2777.00,2.3794
2776.00,2.3813
2775.00,2.3819
2774.00,2.3813
2773.00,2.3800
2772.00,2.3785
2771.00,2.3772
2770.00,2.3761
2769.00,2.3753
2768.00,2.3746
2767.00,2.3737
2766.00,2.3717
2765.00,2.3681
2764.00,2.3634
2763.00,2.3586
2762.00,2.3544
2761.00,2.3507
2760.00,2.3463
2759.00,2.3403
2758.00,2.3323
2757.00,2.3230
2756.00,2.3132
2755.00,2.3037
2754.00,2.2948
2753.00,2.2861
2752.00,2.2768
2751.00,2.2663
2750.00,2.2542
2749.00,2.2408
2748.00,2.2268
2747.00,2.2127
2746.00,2.1981
2745.00,2.1828
2744.00,2.1666
2743.00,2.1498
2742.00,2.1327
2741.00,2.1150
2740.00,2.0963
2739.00,2.0763
2738.00,2.0549
2737.00,2.0323
2736.00,2.0087
2735.00,1.9843
2734.00,1.9592
2733.00,1.9330
2732.00,1.9053
2731.00,1.8759
2730.00,1.8449
2729.00,1.8126
2728.00,1.7789
2727.00,1.7438
2726.00,1.7073
2725.00,1.6691
2724.00,1.6293
2723.00,1.5884
2722.00,1.5466
2721.00,1.5044
2720.00,1.4623
2719.00,1.4206
2718.00,1.3797
2717.00,1.3402
2716.00,1.3025
2715.00,1.2671
2714.00,1.2342
2713.00,1.2045
2712.00,1.1784
2711.00,1.1561
2710.00,1.1382
2709.00,1.1249
2708.00,1.1166
2707.00,1.1135
2706.00,1.1156
2705.00,1.1227
2704.00,1.1348
2703.00,1.1512
2702.00,1.1717
2701.00,1.1957
2700.00,1.2227
2699.00,1.2522
2698.00,1.2839
2697.00,1.3175
2696.00,1.3525
2695.00,1.3887
2694.00,1.4258
2693.00,1.4635
2692.00,1.5015
2691.00,1.5396
2690.00,1.5776
2689.00,1.6156
2688.00,1.6534
2687.00,1.6908
2686.00,1.7277
2685.00,1.7639
2684.00,1.7994
2683.00,1.8342
2682.00,1.8681
2681.00,1.9008
2680.00,1.9319
2679.00,1.9616
2678.00,1.9899
2677.00,2.0170
2676.00,2.0429
2675.00,2.0675
2674.00,2.0909
2673.00,2.1133
2672.00,2.1348
2671.00,2.1556
2670.00,2.1759
2669.00,2.1958
2668.00,2.2149
2667.00,2.2326
2666.00,2.2487
2665.00,2.2635
2664.00,2.2778
2663.00,2.2917
2662.00,2.3056
2661.00,2.3193
2660.00,2.3324
2659.00,2.3445
2658.00,2.3558
2657.00,2.3667
2656.00,2.3777
2655.00,2.3883
2654.00,2.3977
2653.00,2.4056
2652.00,2.4123
2651.00,2.4188
2650.00,2.4260
2649.00,2.4336
2648.00,2.4407
2647.00,2.4462
2646.00,2.4503
2645.00,2.4538
2644.00,2.4575
2643.00,2.4620
2642.00,2.4668
2641.00,2.4713
2640.00,2.4750
2639.00,2.4779
2638.00,2.4804
2637.00,2.4821
2636.00,2.4825
2635.00,2.4816
2634.00,2.4799
2633.00,2.4782
2632.00,2.4768
2631.00,2.4755
2630.00,2.4743
2629.00,2.4733
2628.00,2.4724
2627.00,2.4715
2626.00,2.4700
2625.00,2.4676
2624.00,2.4637
2623.00,2.4583
2622.00,2.4520
2621.00,2.4454
2620.00,2.4392
2619.00,2.4327
2618.00,2.4253
2617.00,2.4169
2616.00,2.4079
2615.00,2.3989
2614.00,2.3898
2613.00,2.3800
2612.00,2.3693
2611.00,2.3580
2610.00,2.3463
2609.00,2.3342
2608.00,2.3211
2607.00,2.3066
2606.00,2.2911
2605.00,2.2750
2604.00,2.2583
2603.00,2.2408
2602.00,2.2224
2601.00,2.2033
2600.00,2.1836
2599.00,2.1632
2598.00,2.1415
2597.00,2.1182
2596.00,2.0933
2595.00,2.0672
2594.00,2.0401
2593.00,2.0121
2592.00,1.9828
2591.00,1.9519
2590.00,1.9193
2589.00,1.8847
2588.00,1.8482
2587.00,1.8099
2586.00,1.7698
2585.00,1.7280
2584.00,1.6849
2583.00,1.6407
2582.00,1.5958
2581.00,1.5503
2580.00,1.5047
2579.00,1.4594
2578.00,1.4154
2577.00,1.3732
2576.00,1.3334
2575.00,1.2965
2574.00,1.2628
2573.00,1.2327
2572.00,1.2069
2571.00,1.1855
2570.00,1.1691
2569.00,1.1578
2568.00,1.1520
2567.00,1.1515
2566.00,1.1566
2565.00,1.1669
2564.00,1.1821
2563.00,1.2020
2562.00,1.2258
2561.00,1.2533
2560.00,1.2839
2559.00,1.3171
2558.00,1.3524
2557.00,1.3894
2556.00,1.4276
2555.00,1.4667
2554.00,1.5064
2553.00,1.5465
2552.00,1.5869
2551.00,1.6274
2550.00,1.6678
2549.00,1.7081
2548.00,1.7479
2547.00,1.7868
2546.00,1.8248
2545.00,1.8616
2544.00,1.8974
2543.00,1.9323
2542.00,1.9665
2541.00,1.9998
2540.00,2.0321
2539.00,2.0630
2538.00,2.0924
2537.00,2.1201
2536.00,2.1464
2535.00,2.1718
2534.00,2.1967
2533.00,2.2210
2532.00,2.2442
2531.00,2.2658
2530.00,2.2860
2529.00,2.3050
2528.00,2.3229
2527.00,2.3396
2526.00,2.3554
2525.00,2.3709
2524.00,2.3862
2523.00,2.4007
2522.00,2.4137
2521.00,2.4253
2520.00,2.4364
2519.00,2.4478
2518.00,2.4599
2517.00,2.4714
2516.00,2.4812
2515.00,2.4896
2514.00,2.4981
2513.00,2.5075
2512.00,2.5172
2511.00,2.5255
2510.00,2.5323
2509.00,2.5382
2508.00,2.5440
2507.00,2.5494
2506.00,2.5536
2505.00,2.5563
2504.00,2.5581
2503.00,2.5599
2502.00,2.5628
2501.00,2.5669
2500.00,2.5714
2499.00,2.5751
2498.00,2.5776
2497.00,2.5794
2496.00,2.5808
2495.00,2.5815
2494.00,2.5818
2493.00,2.5818
2492.00,2.5813
2491.00,2.5794
2490.00,2.5760
2489.00,2.5722
2488.00,2.5689
2487.00,2.5659
2486.00,2.5621
2485.00,2.5572
2484.00,2.5519
2483.00,2.5467
2482.00,2.5420
2481.00,2.5368
2480.00,2.5306
2479.00,2.5232
2478.00,2.5149
2477.00,2.5062
2476.00,2.4974
2475.00,2.4884
2474.00,2.4792
2473.00,2.4697
2472.00,2.4595
2471.00,2.4483
2470.00,2.4362
2469.00,2.4235
2468.00,2.4101
2467.00,2.3953
2466.00,2.3793
2465.00,2.3623
2464.00,2.3447
2463.00,2.3263
2462.00,2.3071
2461.00,2.2874
2460.00,2.2671
2459.00,2.2462
2458.00,2.2244
2457.00,2.2013
2456.00,2.1769
2455.00,2.1510
2454.00,2.1236
2453.00,2.0946
2452.00,2.0642
2451.00,2.0323
2450.00,1.9989
2449.00,1.9638
2448.00,1.9274
2447.00,1.8897
2446.00,1.8506
2445.00,1.8102
2444.00,1.7685
2443.00,1.7261
2442.00,1.6833
2441.00,1.6406
2440.00,1.5984
2439.00,1.5571
2438.00,1.5171
2437.00,1.4791
2436.00,1.4437
2435.00,1.4116
2434.00,1.3833
2433.00,1.3592
2432.00,1.3397
2431.00,1.3252
2430.00,1.3161
2429.00,1.3125
2428.00,1.3145
2427.00,1.3220
2426.00,1.3348
2425.00,1.3524
2424.00,1.3745
2423.00,1.4005
2422.00,1.4298
2421.00,1.4617
2420.00,1.4956
2419.00,1.5310
2418.00,1.5675
2417.00,1.6045
2416.00,1.6416
2415.00,1.6783
2414.00,1.7145
2413.00,1.7499
2412.00,1.7848
2411.00,1.8187
2410.00,1.8516
2409.00,1.8836
2408.00,1.9149
2407.00,1.9456
2406.00,1.9757
2405.00,2.0053
2404.00,2.0342
2403.00,2.0622
2402.00,2.0896
2401.00,2.1168
2400.00,2.1440
2399.00,2.1713
2398.00,2.1982
2397.00,2.2246
2396.00,2.2504
2395.00,2.2756
2394.00,2.2998
2393.00,2.3224
2392.00,2.3434
2391.00,2.3634
2390.00,2.3833
2389.00,2.4033
2388.00,2.4233
2387.00,2.4428
2386.00,2.4618
2385.00,2.4805
2384.00,2.4995
2383.00,2.5191
2382.00,2.5394
2381.00,2.5600
2380.00,2.5802
2379.00,2.5989
2378.00,2.6151
2377.00,2.6283
2376.00,2.6387
2375.00,2.6470
2374.00,2.6535
2373.00,2.6582
2372.00,2.6617
2371.00,2.6652
2370.00,2.6696
2369.00,2.6750
2368.00,2.6808
2367.00,2.6869
2366.00,2.6934
2365.00,2.6994
2364.00,2.7041
2363.00,2.7065
2362.00,2.7077
2361.00,2.7097
2360.00,2.7131
2359.00,2.7174
2358.00,2.7211
2357.00,2.7222
2356.00,2.7205
2355.00,2.7161
2354.00,2.7117
2353.00,2.7104
2352.00,2.7125
2351.00,2.7134
2350.00,2.7083
2349.00,2.6991
2348.00,2.6915
2347.00,2.6893
2346.00,2.6909
2345.00,2.6893
2344.00,2.6806
2343.00,2.6656
2342.00,2.6512
2341.00,2.6405
2340.00,2.6312
2339.00,2.6212
2338.00,2.6097
2337.00,2.5985
2336.00,2.5877
2335.00,2.5773
2334.00,2.5671
2333.00,2.5584
2332.00,2.5509
2331.00,2.5435
2330.00,2.5328
2329.00,2.5191
2328.00,2.5018
2327.00,2.4822
2326.00,2.4617
2325.00,2.4418
2324.00,2.4234
2323.00,2.4047
2322.00,2.3836
2321.00,2.3588
2320.00,2.3303
2319.00,2.2992
2318.00,2.2652
2317.00,2.2295
2316.00,2.1922
2315.00,2.1546
2314.00,2.1157
2313.00,2.0756
2312.00,2.0331
2311.00,1.9888
2310.00,1.9430
2309.00,1.8978
2308.00,1.8548
2307.00,1.8168
2306.00,1.7857
2305.00,1.7645
2304.00,1.7552
2303.00,1.7600
2302.00,1.7796
2301.00,1.8143
2300.00,1.8627
2299.00,1.9231
2298.00,1.9924
2297.00,2.0667
2296.00,2.1405
2295.00,2.2076
2294.00,2.2597
2293.00,2.2886
2292.00,2.2885
2291.00,2.2594
2290.00,2.2068
2289.00,2.1392
2288.00,2.0661
2287.00,1.9953
2286.00,1.9320
2285.00,1.8791
2284.00,1.8380
2283.00,1.8097
2282.00,1.7950
2281.00,1.7942
2280.00,1.8066
2279.00,1.8309
2278.00,1.8649
2277.00,1.9067
2276.00,1.9541
2275.00,2.0056
2274.00,2.0598
2273.00,2.1159
2272.00,2.1730
2271.00,2.2304
2270.00,2.2873
2269.00,2.3432
2268.00,2.3980
2267.00,2.4515
2266.00,2.5036
2265.00,2.5546
2264.00,2.6051
2263.00,2.6567
2262.00,2.7112
2261.00,2.7703
2260.00,2.8354
2259.00,2.9102
2258.00,3.0010
2257.00,3.1157
2256.00,3.2592
2255.00,3.4289
2254.00,3.5976
2253.00,3.6890
2252.00,3.6279
2251.00,3.4555
2250.00,3.2549
2249.00,3.0620
2248.00,2.8841
2247.00,2.7218
2246.00,2.5759
2245.00,2.4485
2244.00,2.3428
2243.00,2.2615
2242.00,2.2061
2241.00,2.1758
2240.00,2.1678
2239.00,2.1783
2238.00,2.2025
2237.00,2.2362
2236.00,2.2755
2235.00,2.3177
2234.00,2.3608
2233.00,2.4031
2232.00,2.4427
2231.00,2.4786
2230.00,2.5109
2229.00,2.5397
2228.00,2.5645
2227.00,2.5857
2226.00,2.6057
2225.00,2.6262
2224.00,2.6466
2223.00,2.6649
2222.00,2.6806
2221.00,2.6946
2220.00,2.7068
2219.00,2.7165
2218.00,2.7238
2217.00,2.7310
2216.00,2.7391
2215.00,2.7472
2214.00,2.7541
2213.00,2.7603
2212.00,2.7668
2211.00,2.7734
2210.00,2.7783
2209.00,2.7805
2208.00,2.7808
2207.00,2.7812
2206.00,2.7833
2205.00,2.7876
2204.00,2.7925
2203.00,2.7968
2202.00,2.8002
2201.00,2.8030
2200.00,2.8048
2199.00,2.8038
2198.00,2.7989
2197.00,2.7913
2196.00,2.7830
2195.00,2.7756
2194.00,2.7696
2193.00,2.7645
2192.00,2.7595
2191.00,2.7531
2190.00,2.7448
2189.00,2.7355
2188.00,2.7271
2187.00,2.7199
2186.00,2.7125
2185.00,2.7033
2184.00,2.6923
2183.00,2.6809
2182.00,2.6705
2181.00,2.6603
2180.00,2.6494
2179.00,2.6375
2178.00,2.6255
2177.00,2.6134
2176.00,2.5998
2175.00,2.5837
2174.00,2.5657
2173.00,2.5468
2172.00,2.5277
2171.00,2.5080
2170.00,2.4871
2169.00,2.4647
2168.00,2.4409
2167.00,2.4157
2166.00,2.3891
2165.00,2.3609
2164.00,2.3310
2163.00,2.2997
2162.00,2.2668
2161.00,2.2325
2160.00,2.1964
2159.00,2.1581
2158.00,2.1173
2157.00,2.0742
2156.00,2.0286
2155.00,1.9806
2154.00,1.9304
2153.00,1.8780
2152.00,1.8237
2151.00,1.7679
2150.00,1.7114
2149.00,1.6553
2148.00,1.6007
2147.00,1.5485
2146.00,1.4996
2145.00,1.4552
2144.00,1.4160
2143.00,1.3828
2142.00,1.3564
2141.00,1.3374
2140.00,1.3264
2139.00,1.3236
2138.00,1.3289
2137.00,1.3420
2136.00,1.3626
2135.00,1.3896
2134.00,1.4222
2133.00,1.4593
2132.00,1.5001
2131.00,1.5438
2130.00,1.5897
2129.00,1.6372
2128.00,1.6857
2127.00,1.7348
2126.00,1.7842
2125.00,1.8338
2124.00,1.8832
2123.00,1.9320
2122.00,1.9800
2121.00,2.0267
2120.00,2.0719
2119.00,2.1154
2118.00,2.1576
2117.00,2.1984
2116.00,2.2377
2115.00,2.2751
2114.00,2.3102
2113.00,2.3430
2112.00,2.3738
2111.00,2.4033
2110.00,2.4321
2109.00,2.4602
2108.00,2.4868
2107.00,2.5116
2106.00,2.5346
2105.00,2.5568
2104.00,2.5787
2103.00,2.6006
2102.00,2.6216
2101.00,2.6407
2100.00,2.6568
2099.00,2.6700
2098.00,2.6823
2097.00,2.6955
2096.00,2.7103
2095.00,2.7258
2094.00,2.7410
2093.00,2.7552
2092.00,2.7684
2091.00,2.7805
2090.00,2.7914
2089.00,2.8007
2088.00,2.8085
2087.00,2.8155
2086.00,2.8234
2085.00,2.8329
2084.00,2.8425
2083.00,2.8498
2082.00,2.8538
2081.00,2.8563
2080.00,2.8600
2079.00,2.8660
2078.00,2.8730
2077.00,2.8793
2076.00,2.8843
2075.00,2.8880
2074.00,2.8912
2073.00,2.8940
2072.00,2.8960
2071.00,2.8972
2070.00,2.8983
2069.00,2.8999
2068.00,2.9016
2067.00,2.9020
2066.00,2.8999
2065.00,2.8959
2064.00,2.8922
2063.00,2.8903
2062.00,2.8893
2061.00,2.8869
2060.00,2.8823
2059.00,2.8769
2058.00,2.8735
2057.00,2.8732
2056.00,2.8739
2055.00,2.8722
2054.00,2.8668
2053.00,2.8589
2052.00,2.8504
2051.00,2.8420
2050.00,2.8334
2049.00,2.8249
2048.00,2.8174
2047.00,2.8101
2046.00,2.8009
2045.00,2.7884
2044.00,2.7737
2043.00,2.7596
2042.00,2.7482
2041.00,2.7388
2040.00,2.7292
2039.00,2.7168
2038.00,2.7010
2037.00,2.6829
2036.00,2.6648
2035.00,2.6472
2034.00,2.6295
2033.00,2.6106
2032.00,2.5902
2031.00,2.5682
2030.00,2.5442
2029.00,2.5178
2028.00,2.4896
2027.00,2.4608
2026.00,2.4323
2025.00,2.4036
2024.00,2.3737
2023.00,2.3416
2022.00,2.3070
2021.00,2.2702
2020.00,2.2317
2019.00,2.1913
2018.00,2.1484
2017.00,2.1025
2016.00,2.0538
2015.00,2.0025
2014.00,1.9491
2013.00,1.8940
2012.00,1.8379
2011.00,1.7816
2010.00,1.7256
2009.00,1.6709
2008.00,1.6185
2007.00,1.5697
2006.00,1.5254
2005.00,1.4867
2004.00,1.4544
2003.00,1.4293
2002.00,1.4121
2001.00,1.4033
2000.00,1.4031
1999.00,1.4114
1998.00,1.4279
1997.00,1.4517
1996.00,1.4820
1995.00,1.5177
1994.00,1.5579
1993.00,1.6016
1992.00,1.6484
1991.00,1.6973
1990.00,1.7476
1989.00,1.7985
1988.00,1.8501
1987.00,1.9024
1986.00,1.9547
1985.00,2.0062
1984.00,2.0562
1983.00,2.1042
1982.00,2.1502
1981.00,2.1946
1980.00,2.2379
1979.00,2.2800
1978.00,2.3202
1977.00,2.3581
1976.00,2.3942
1975.00,2.4289
1974.00,2.4615
1973.00,2.4917
1972.00,2.5198
1971.00,2.5466
1970.00,2.5724
1969.00,2.5968
1968.00,2.6204
1967.00,2.6442
1966.00,2.6685
1965.00,2.6921
1964.00,2.7133
1963.00,2.7317
1962.00,2.7482
1961.00,2.7640
1960.00,2.7800
1959.00,2.7960
1958.00,2.8117
1957.00,2.8266
1956.00,2.8408
1955.00,2.8541
1954.00,2.8657
1953.00,2.8752
1952.00,2.8837
1951.00,2.8932
1950.00,2.9047
1949.00,2.9178
1948.00,2.9306
1947.00,2.9408
1946.00,2.9463
1945.00,2.9472
1944.00,2.9469
1943.00,2.9494
1942.00,2.9563
1941.00,2.9654
1940.00,2.9735
1939.00,2.9794
1938.00,2.9835
1937.00,2.9868
1936.00,2.9899
1935.00,2.9931
1934.00,2.9962
1933.00,2.9989
1932.00,3.0011
1931.00,3.0027
1930.00,3.0038
1929.00,3.0046
1928.00,3.0053
1927.00,3.0055
1926.00,3.0035
1925.00,2.9982
1924.00,2.9911
1923.00,2.9859
1922.00,2.9855
1921.00,2.9891
1920.00,2.9938
1919.00,2.9966
1918.00,2.9949
1917.00,2.9882
1916.00,2.9785
1915.00,2.9696
1914.00,2.9639
1913.00,2.9608
1912.00,2.9575
1911.00,2.9515
1910.00,2.9419
1909.00,2.9301
1908.00,2.9177
1907.00,2.9055
1906.00,2.8930
1905.00,2.8806
1904.00,2.8698
1903.00,2.8611
1902.00,2.8527
1901.00,2.8416
1900.00,2.8269
1899.00,2.8105
1898.00,2.7936
1897.00,2.7761
1896.00,2.7569
1895.00,2.7357
1894.00,2.7129
1893.00,2.6890
1892.00,2.6647
1891.00,2.6403
1890.00,2.6157
1889.00,2.5905
1888.00,2.5644
1887.00,2.5375
1886.00,2.5093
1885.00,2.4792
1884.00,2.4467
1883.00,2.4115
1882.00,2.3738
1881.00,2.3337
1880.00,2.2915
1879.00,2.2474
1878.00,2.2013
1877.00,2.1533
1876.00,2.1034
1875.00,2.0513
1874.00,1.9975
1873.00,1.9428
1872.00,1.8877
1871.00,1.8316
1870.00,1.7741
1869.00,1.7167
1868.00,1.6629
1867.00,1.6155
1866.00,1.5757
1865.00,1.5447
1864.00,1.5234
1863.00,1.5121
1862.00,1.5099
1861.00,1.5163
1860.00,1.5313
1859.00,1.5545
1858.00,1.5851
1857.00,1.6224
1856.00,1.6653
1855.00,1.7124
1854.00,1.7624
1853.00,1.8148
1852.00,1.8688
1851.00,1.9234
1850.00,1.9776
1849.00,2.0311
1848.00,2.0839
1847.00,2.1345
1846.00,2.1827
1845.00,2.2297
1844.00,2.2779
1843.00,2.3264
1842.00,2.3718
1841.00,2.4130
1840.00,2.4521
1839.00,2.4916
1838.00,2.5305
1837.00,2.5665
1836.00,2.5987
1835.00,2.6281
1834.00,2.6568
1833.00,2.6852
1832.00,2.7121
1831.00,2.7362
1830.00,2.7577
1829.00,2.7783
1828.00,2.7982
1827.00,2.8163
1826.00,2.8330
1825.00,2.8501
1824.00,2.8678
1823.00,2.8841
1822.00,2.8987
1821.00,2.9130
1820.00,2.9283
1819.00,2.9433
1818.00,2.9565
1817.00,2.9681
1816.00,2.9792
1815.00,2.9906
1814.00,3.0020
1813.00,3.0126
1812.00,3.0230
1811.00,3.0347
1810.00,3.0481
1809.00,3.0604
1808.00,3.0681
1807.00,3.0717
1806.00,3.0761
1805.00,3.0852
1804.00,3.0980
1803.00,3.1099
1802.00,3.1171
1801.00,3.1187
1800.00,3.1170
1799.00,3.1142
1798.00,3.1111
1797.00,3.1090
1796.00,3.1093
1795.00,3.1129
1794.00,3.1177
1793.00,3.1193
1792.00,3.1152
1791.00,3.1081
1790.00,3.1021
1789.00,3.0984
1788.00,3.0961
1787.00,3.0949
1786.00,3.0952
1785.00,3.0960
1784.00,3.0946
1783.00,3.0892
1782.00,3.0811
1781.00,3.0736
1780.00,3.0689
1779.00,3.0661
1778.00,3.0623
1777.00,3.0566
1776.00,3.0493
1775.00,3.0410
1774.00,3.0311
1773.00,3.0194
1772.00,3.0067
1771.00,2.9936
1770.00,2.9783
1769.00,2.9603
1768.00,2.9429
1767.00,2.9302
1766.00,2.9211
1765.00,2.9103
1764.00,2.8943
1763.00,2.8744
1762.00,2.8535
1761.00,2.8323
1760.00,2.8091
1759.00,2.7828
1758.00,2.7543
1757.00,2.7245
1756.00,2.6942
1755.00,2.6652
1754.00,2.6369
1753.00,2.6077
1752.00,2.5760
1751.00,2.5408
1750.00,2.5027
1749.00,2.4636
1748.00,2.4259
1747.00,2.3923
1746.00,2.3635
1745.00,2.3381
1744.00,2.3151
1743.00,2.2947
1742.00,2.2775
1741.00,2.2632
1740.00,2.2513
1739.00,2.2432
1738.00,2.2401
1737.00,2.2404
1736.00,2.2431
1735.00,2.2510
1734.00,2.2678
1733.00,2.2935
1732.00,2.3243
1731.00,2.3589
1730.00,2.4023
1729.00,2.4575
1728.00,2.5210
1727.00,2.5879
1726.00,2.6557
1725.00,2.7248
1724.00,2.7962
1723.00,2.8699
1722.00,2.9447
1721.00,3.0170
1720.00,3.0842
1719.00,3.1505
1718.00,3.2228
1717.00,3.3013
1716.00,3.3769
1715.00,3.4463
1714.00,3.5182
1713.00,3.5990
1712.00,3.6865
1711.00,3.7733
1710.00,3.8400
1709.00,3.8553
1708.00,3.8220
1707.00,3.7764
1706.00,3.7274
1705.00,3.6553
1704.00,3.5603
1703.00,3.4572
1702.00,3.3379
1701.00,3.1821
1700.00,3.0088
1699.00,2.8586
1698.00,2.7375
1697.00,2.6280
1696.00,2.5230
1695.00,2.4327
1694.00,2.3661
1693.00,2.3206
1692.00,2.2936
1691.00,2.2869
1690.00,2.2993
1689.00,2.3251
1688.00,2.3575
1687.00,2.3930
1686.00,2.4331
1685.00,2.4825
1684.00,2.5410
1683.00,2.5992
1682.00,2.6446
1681.00,2.6773
1680.00,2.7115
1679.00,2.7533
1678.00,2.7963
1677.00,2.8343
1676.00,2.8664
1675.00,2.8946
1674.00,2.9195
1673.00,2.9401
1672.00,2.9576
1671.00,2.9740
1670.00,2.9912
1669.00,3.0106
1668.00,3.0330
1667.00,3.0568
1666.00,3.0789
1665.00,3.0969
1664.00,3.1104
1663.00,3.1216
1662.00,3.1328
1661.00,3.1436
1660.00,3.1535
1659.00,3.1650
1658.00,3.1798
1657.00,3.1955
1656.00,3.2069
1655.00,3.2118
1654.00,3.2132
1653.00,3.2152
1652.00,3.2186
1651.00,3.2188
1650.00,3.2150
1649.00,3.2144
1648.00,3.2207
1647.00,3.2357
1646.00,3.2583
1645.00,3.2769
1644.00,3.2820
1643.00,3.2792
1642.00,3.2775
1641.00,3.2774
1640.00,3.2752
1639.00,3.2677
1638.00,3.2534
1637.00,3.2346
1636.00,3.2179
1635.00,3.2122
1634.00,3.2179
1633.00,3.2261
1632.00,3.2302
1631.00,3.2307
1630.00,3.2289
1629.00,3.2244
1628.00,3.2170
1627.00,3.2083
1626.00,3.2009
1625.00,3.1956
1624.00,3.1920
1623.00,3.1889
1622.00,3.1840
1621.00,3.1757
1620.00,3.1654
1619.00,3.1579
1618.00,3.1544
1617.00,3.1498
1616.00,3.1374
1615.00,3.1174
1614.00,3.0954
1613.00,3.0770
1612.00,3.0633
1611.00,3.0518
1610.00,3.0379
1609.00,3.0182
1608.00,2.9929
1607.00,2.9659
1606.00,2.9402
1605.00,2.9162
1604.00,2.8928
1603.00,2.8685
1602.00,2.8418
1601.00,2.8121
1600.00,2.7816
1599.00,2.7531
1598.00,2.7254
1597.00,2.6943
1596.00,2.6570
1595.00,2.6159
1594.00,2.5747
1593.00,2.5341
1592.00,2.4926
1591.00,2.4494
1590.00,2.4043
1589.00,2.3570
1588.00,2.3081
1587.00,2.2598
1586.00,2.2142
1585.00,2.1722
1584.00,2.1344
1583.00,2.1022
1582.00,2.0770
1581.00,2.0599
1580.00,2.0501
1579.00,2.0457
1578.00,2.0458
1577.00,2.0518
1576.00,2.0653
1575.00,2.0850
1574.00,2.1072
1573.00,2.1301
1572.00,2.1573
1571.00,2.1925
1570.00,2.2364
1569.00,2.2857
1568.00,2.3339
1567.00,2.3771
1566.00,2.4181
1565.00,2.4625
1564.00,2.5104
1563.00,2.5563
1562.00,2.5954
1561.00,2.6280
1560.00,2.6594
1559.00,2.6933
1558.00,2.7304
1557.00,2.7661
1556.00,2.7946
1555.00,2.8250
1554.00,2.8622
1553.00,2.9012
1552.00,2.9378
1551.00,2.9682
1550.00,2.9953
1549.00,3.0228
1548.00,3.0501
1547.00,3.0744
1546.00,3.0962
1545.00,3.1192
1544.00,3.1426
1543.00,3.1603
1542.00,3.1689
1541.00,3.1745
1540.00,3.1861
1539.00,3.2058
1538.00,3.2270
1537.00,3.2430
1536.00,3.2538
1535.00,3.2591
1534.00,3.2591
1533.00,3.2590
1532.00,3.2646
1531.00,3.2772
1530.00,3.2962
1529.00,3.3165
1528.00,3.3280
1527.00,3.3277
1526.00,3.3255
1525.00,3.3323
1524.00,3.3462
1523.00,3.3565
1522.00,3.3602
1521.00,3.3665
1520.00,3.3795
1519.00,3.3915
1518.00,3.3994
1517.00,3.4103
1516.00,3.4252
1515.00,3.4330
1514.00,3.4256
1513.00,3.4116
1512.00,3.4039
1511.00,3.4022
1510.00,3.3958
1509.00,3.3784
1508.00,3.3584
1507.00,3.3518
1506.00,3.3637
1505.00,3.3786
1504.00,3.3815
1503.00,3.3812
1502.00,3.3893
1501.00,3.4050
1500.00,3.4178
1499.00,3.4144
1498.00,3.3942
1497.00,3.3724
1496.00,3.3636
1495.00,3.3660
1494.00,3.3671
1493.00,3.3582
1492.00,3.3397
1491.00,3.3174
1490.00,3.2995
1489.00,3.2902
1488.00,3.2875
1487.00,3.2886
1486.00,3.2931
1485.00,3.2990
1484.00,3.3017
1483.00,3.2984
1482.00,3.2892
1481.00,3.2759
1480.00,3.2595
1479.00,3.2415
1478.00,3.2250
1477.00,3.2112
1476.00,3.1966
1475.00,3.1777
1474.00,3.1576
1473.00,3.1432
1472.00,3.1371
1471.00,3.1353
1470.00,3.1350
1469.00,3.1388
1468.00,3.1483
1467.00,3.1597
1466.00,3.1690
1465.00,3.1752
1464.00,3.1803
1463.00,3.1860
1462.00,3.1955
1461.00,3.2124
1460.00,3.2369
1459.00,3.2668
1458.00,3.3014
1457.00,3.3431
1456.00,3.3912
1455.00,3.4427
1454.00,3.5003
1453.00,3.5621
1452.00,3.6083
1451.00,3.6222
1450.00,3.6122
1449.00,3.5979
1448.00,3.5894
1447.00,3.5864
1446.00,3.5874
1445.00,3.5920
1444.00,3.5946
1443.00,3.5855
1442.00,3.5648
1441.00,3.5439
1440.00,3.5307
1439.00,3.5240
1438.00,3.5213
1437.00,3.5226
1436.00,3.5215
1435.00,3.5059
1434.00,3.4764
1433.00,3.4502
1432.00,3.4420
1431.00,3.4530
1430.00,3.4712
1429.00,3.4803
1428.00,3.4744
1427.00,3.4630
1426.00,3.4574
1425.00,3.4578
1424.00,3.4563
1423.00,3.4474
1422.00,3.4382
1421.00,3.4407
1420.00,3.4581
1419.00,3.4765
1418.00,3.4742
1417.00,3.4494
1416.00,3.4205
1415.00,3.3995
1414.00,3.3861
1413.00,3.3753
1412.00,3.3634
1411.00,3.3509
1410.00,3.3393
1409.00,3.3280
1408.00,3.3153
1407.00,3.3003
1406.00,3.2831
1405.00,3.2657
1404.00,3.2537
1403.00,3.2525
1402.00,3.2616
1401.00,3.2734
1400.00,3.2791
1399.00,3.2794
1398.00,3.2830
1397.00,3.2954
1396.00,3.3117
1395.00,3.3225
1394.00,3.3266
1393.00,3.3316
1392.00,3.3445
1391.00,3.3664
1390.00,3.3968
1389.00,3.4351
1388.00,3.4778
1387.00,3.5142
1386.00,3.5339
1385.00,3.5407
1384.00,3.5501
1383.00,3.5735
1382.00,3.6145
1381.00,3.6692
1380.00,3.7316
1379.00,3.7982
1378.00,3.8612
1377.00,3.9055
1376.00,3.9113
1375.00,3.8678
1374.00,3.7882
1373.00,3.6984
1372.00,3.6143
1371.00,3.5393
1370.00,3.4762
1369.00,3.4309
1368.00,3.4091
1367.00,3.4110
1366.00,3.4297
1365.00,3.4534
1364.00,3.4725
1363.00,3.4841
1362.00,3.4908
1361.00,3.4940
1360.00,3.4935
1359.00,3.4923
1358.00,3.4982
1357.00,3.5155
1356.00,3.5360
1355.00,3.5427
1354.00,3.5340
1353.00,3.5264
1352.00,3.5282
1351.00,3.5347
1350.00,3.5433
1349.00,3.5588
1348.00,3.5815
1347.00,3.6054
1346.00,3.6263
1345.00,3.6381
1344.00,3.6358
1343.00,3.6271
1342.00,3.6200
1341.00,3.6098
1340.00,3.5891
1339.00,3.5618
1338.00,3.5408
1337.00,3.5372
1336.00,3.5525
1335.00,3.5774
1334.00,3.5984
1333.00,3.6082
1332.00,3.6069
1331.00,3.5979
1330.00,3.5843
1329.00,3.5702
1328.00,3.5609
1327.00,3.5580
1326.00,3.5553
1325.00,3.5454
1324.00,3.5293
1323.00,3.5161
1322.00,3.5122
1321.00,3.5145
1320.00,3.5152
1319.00,3.5103
1318.00,3.5023
1317.00,3.4928
1316.00,3.4796
1315.00,3.4623
1314.00,3.4462
1313.00,3.4377
1312.00,3.4382
1311.00,3.4421
1310.00,3.4409
1309.00,3.4294
1308.00,3.4090
1307.00,3.3855
1306.00,3.3663
1305.00,3.3552
1304.00,3.3477
1303.00,3.3339
1302.00,3.3074
1301.00,3.2721
1300.00,3.2363
1299.00,3.2046
1298.00,3.1750
1297.00,3.1415
1296.00,3.1020
1295.00,3.0602
1294.00,3.0197
1293.00,2.9796
1292.00,2.9374
1291.00,2.8928
1290.00,2.8470
1289.00,2.7987
1288.00,2.7449
1287.00,2.6855
1286.00,2.6246
1285.00,2.5665
1284.00,2.5135
1283.00,2.4669
1282.00,2.4283
1281.00,2.3998
1280.00,2.3825
1279.00,2.3759
1278.00,2.3786
1277.00,2.3880
1276.00,2.4012
1275.00,2.4155
1274.00,2.4301
1273.00,2.4460
1272.00,2.4653
1271.00,2.4899
1270.00,2.5202
1269.00,2.5557
1268.00,2.5954
1267.00,2.6381
1266.00,2.6831
1265.00,2.7297
1264.00,2.7770
1263.00,2.8242
1262.00,2.8714
1261.00,2.9195
1260.00,2.9685
1259.00,3.0170
1258.00,3.0630
1257.00,3.1064
1256.00,3.1471
1255.00,3.1831
1254.00,3.2116
1253.00,3.2347
1252.00,3.2595
1251.00,3.2914
1250.00,3.3296
1249.00,3.3687
1248.00,3.4048
1247.00,3.4377
1246.00,3.4695
1245.00,3.4990
1244.00,3.5246
1243.00,3.5502
1242.00,3.5800
1241.00,3.6103
1240.00,3.6316
1239.00,3.6405
1238.00,3.6449
1237.00,3.6497
1236.00,3.6505
1235.00,3.6468
1234.00,3.6455
1233.00,3.6494
1232.00,3.6538
1231.00,3.6555
1230.00,3.6608
1229.00,3.6803
1228.00,3.7124
1227.00,3.7377
1226.00,3.7394
1225.00,3.7269
1224.00,3.7211
1223.00,3.7227
1222.00,3.7129
1221.00,3.6883
1220.00,3.6640
1219.00,3.6505
1218.00,3.6485
1217.00,3.6483
1216.00,3.6377
1215.00,3.6159
1214.00,3.5942
1213.00,3.5847
1212.00,3.5930
1211.00,3.6172
1210.00,3.6535
1209.00,3.6982
1208.00,3.7453
1207.00,3.7876
1206.00,3.8170
1205.00,3.8294
1204.00,3.8230
1203.00,3.7963
1202.00,3.7665
1201.00,3.7612
1200.00,3.7912
1199.00,3.8439
1198.00,3.8840
1197.00,3.8763
1196.00,3.8306
1195.00,3.7860
1194.00,3.7660
1193.00,3.7704
1192.00,3.7814
1191.00,3.7710
1190.00,3.7356
1189.00,3.7104
1188.00,3.7177
1187.00,3.7486
1186.00,3.7737
1185.00,3.7678
1184.00,3.7302
1183.00,3.6819
1182.00,3.6484
1181.00,3.6377
1180.00,3.6405
1179.00,3.6454
1178.00,3.6463
1177.00,3.6393
1176.00,3.6223
1175.00,3.6006
1174.00,3.5808
1173.00,3.5640
1172.00,3.5440
1171.00,3.5137
1170.00,3.4765
1169.00,3.4432
1168.00,3.4205
1167.00,3.4129
1166.00,3.4225
1165.00,3.4387
1164.00,3.4344
1163.00,3.3957
1162.00,3.3400
1161.00,3.2885
1160.00,3.2502
1159.00,3.2240
1158.00,3.2016
1157.00,3.1731
1156.00,3.1357
1155.00,3.0942
1154.00,3.0521
1153.00,3.0060
1152.00,2.9511
1151.00,2.8900
1150.00,2.8299
1149.00,2.7756
1148.00,2.7273
1147.00,2.6846
1146.00,2.6490
1145.00,2.6219
1144.00,2.6032
1143.00,2.5932
1142.00,2.5935
1141.00,2.6056
1140.00,2.6287
1139.00,2.6607
1138.00,2.7002
1137.00,2.7463
1136.00,2.7971
1135.00,2.8507
1134.00,2.9086
1133.00,2.9738
1132.00,3.0440
1131.00,3.1098
1130.00,3.1630
1129.00,3.2029
1128.00,3.2352
1127.00,3.2665
1126.00,3.3030
1125.00,3.3509
1124.00,3.4105
1123.00,3.4725
1122.00,3.5281
1121.00,3.5826
1120.00,3.6439
1119.00,3.6953
1118.00,3.6978
1117.00,3.6473
1116.00,3.5951
1115.00,3.5892
1114.00,3.6473
1113.00,3.7606
1112.00,3.8895
1111.00,3.9749
1110.00,4.0117
1109.00,4.0652
1108.00,4.1641
1107.00,4.2594
1106.00,4.2675
1105.00,4.2086
1104.00,4.1321
1103.00,4.0582
1102.00,4.0173
1101.00,4.0194
1100.00,4.0330
1099.00,4.0385
1098.00,4.0461
1097.00,4.0520
1096.00,4.0750
1095.00,4.1242
1094.00,4.1623
1093.00,4.1583
1092.00,4.1202
1091.00,4.1001
1090.00,4.1719
1089.00,4.3312
1088.00,4.2535
1087.00,4.1015
1086.00,4.0741
1085.00,4.1515
1084.00,4.2568
1083.00,4.2550
1082.00,4.1801
1081.00,4.1038
1080.00,4.0528
1079.00,4.0186
1078.00,3.9737
1077.00,3.9361
1076.00,3.9522
1075.00,4.0389
1074.00,4.1611
1073.00,4.2263
1072.00,4.1920
1071.00,4.1436
1070.00,4.1598
1069.00,4.2635
1068.00,4.4092
1067.00,4.4002
1066.00,4.1883
1065.00,3.9864
1064.00,3.8685
1063.00,3.8281
1062.00,3.8479
1061.00,3.9386
1060.00,4.1230
1059.00,4.2645
1058.00,4.1825
1057.00,4.0890
1056.00,4.0065
1055.00,3.9235
1054.00,3.8520
1053.00,3.8191
1052.00,3.8502
1051.00,3.9582
1050.00,4.1208
1049.00,4.2517
1048.00,4.2091
1047.00,4.0263
1046.00,3.8974
1045.00,3.8398
1044.00,3.8166
1043.00,3.7945
1042.00,3.7729
1041.00,3.7711
1040.00,3.7945
1039.00,3.8343
1038.00,3.8845
1037.00,3.9369
1036.00,3.9744
1035.00,3.9955
1034.00,4.0140
1033.00,4.0389
1032.00,4.0706
1031.00,4.0927
1030.00,4.0908
1029.00,4.0792
1028.00,4.0679
1027.00,4.0656
1026.00,4.1116
1025.00,4.2406
1024.00,4.3911
1023.00,4.3451
1022.00,4.1838
1021.00,4.0604
1020.00,3.9793
1019.00,3.9203
1018.00,3.8782
1017.00,3.8468
1016.00,3.8119
1015.00,3.7741
1014.00,3.7493
1013.00,3.7417
1012.00,3.7424
1011.00,3.7391
1010.00,3.7204
1009.00,3.6946
1008.00,3.6728
1007.00,3.6528
1006.00,3.6327
1005.00,3.6129
1004.00,3.5933
1003.00,3.5774
1002.00,3.5651
1001.00,3.5443
1000.00,3.5028
999.00,3.4430
998.00,3.3808
997.00,3.3315
996.00,3.2985
995.00,3.2779
994.00,3.2667
993.00,3.2640
992.00,3.2672
991.00,3.2732
990.00,3.2834
989.00,3.3028
988.00,3.3355
987.00,3.3828
986.00,3.4471
985.00,3.5326
984.00,3.6363
983.00,3.7382
982.00,3.8192
981.00,3.8720
980.00,3.8852
979.00,3.8842
978.00,3.8953
977.00,3.8949
976.00,3.8885
975.00,3.9397
974.00,4.1461
973.00,4.7129
972.00,4.8542
971.00,5.0154
970.00,4.4146
969.00,4.1789
968.00,4.1356
967.00,4.2004
966.00,4.3402
965.00,4.3973
964.00,4.3312
963.00,4.3249
962.00,4.3787
961.00,4.2468
960.00,4.0249
959.00,3.8985
958.00,3.8887
957.00,4.0003
956.00,4.2243
955.00,4.4271
954.00,4.2608
953.00,4.0391
952.00,3.9688
951.00,4.0471
950.00,4.1851
949.00,4.1648
948.00,4.1176
947.00,4.1446
946.00,4.2362
945.00,4.4291
944.00,4.8601
943.00,4.8698
942.00,4.4713
941.00,4.2456
940.00,4.1214
939.00,4.1224
938.00,4.2314
937.00,4.3036
936.00,4.2467
935.00,4.2062
934.00,4.2573
933.00,4.4150
932.00,4.6638
931.00,4.8634
930.00,4.4402
929.00,4.1859
928.00,4.0830
927.00,4.0479
926.00,4.0498
925.00,4.1013
924.00,4.1968
923.00,4.3030
922.00,4.4356
921.00,4.5683
920.00,4.5336
919.00,4.4323
918.00,4.2120
917.00,4.0365
916.00,3.9984
915.00,4.0984
914.00,4.4002
913.00,4.9492
912.00,4.5816
911.00,4.5834
910.00,4.5094
909.00,4.4979
908.00,4.6673
907.00,4.4873
906.00,4.3456
905.00,4.3057
904.00,4.2775
903.00,4.1930
902.00,4.0712
901.00,4.0145
900.00,4.0534
899.00,4.1439
898.00,4.1701
897.00,4.0977
896.00,4.0245
895.00,3.9625
894.00,3.8956
893.00,3.8504
892.00,3.8594
891.00,3.9306
890.00,4.0615
889.00,4.2171
888.00,4.2765
887.00,4.2363
886.00,4.1605
885.00,4.1015
884.00,4.1681
883.00,4.5422
882.00,4.4647
881.00,4.1035
880.00,4.0554
879.00,4.1372
878.00,4.2076
877.00,4.2984
876.00,4.4681
875.00,4.4381
874.00,4.2054
873.00,4.0428
872.00,3.9903
871.00,4.1389
870.00,4.6113
869.00,4.2657
868.00,4.1731
867.00,4.3069
866.00,4.3016
865.00,4.1940
864.00,4.0944
863.00,3.9611
862.00,3.8309
861.00,3.7666
860.00,3.7974
859.00,3.9591
858.00,4.1178
857.00,3.9270
856.00,3.7549
855.00,3.6685
854.00,3.6454
853.00,3.6943
852.00,3.8290
851.00,4.0609
850.00,4.2509
849.00,4.1824
848.00,4.0942
847.00,4.0520
846.00,4.0272
845.00,4.0090
844.00,3.9998
843.00,4.0021
842.00,4.0175
841.00,4.0599
840.00,4.1396
839.00,4.2865
838.00,4.4875
837.00,4.6645
836.00,4.5249
835.00,4.1689
834.00,4.0086
833.00,4.0165
832.00,4.1234
831.00,4.1213
830.00,4.0564
829.00,4.2276
828.00,4.6170
827.00,4.2004
826.00,4.0332
825.00,4.0747
824.00,4.3173
823.00,5.0063
822.00,5.0821
821.00,4.3862
820.00,3.9898
819.00,3.8610
818.00,3.9220
817.00,4.1369
816.00,4.5188
815.00,4.7825
814.00,4.2421
813.00,3.9512
812.00,3.8285
811.00,3.8177
810.00,3.8851
809.00,3.9397
808.00,3.9134
807.00,3.8548
806.00,3.8237
805.00,3.8436
804.00,3.9240
803.00,4.1212
802.00,4.2763
801.00,4.0455
800.00,3.9540
799.00,4.0531
798.00,4.4024
797.00,4.6138
796.00,4.1618
795.00,3.9904
794.00,4.0567
793.00,4.4654
792.00,4.3327
791.00,4.0078
790.00,4.0054
789.00,4.2154
788.00,4.3784
787.00,4.3346
786.00,4.6121
785.00,4.6484
784.00,4.1747
783.00,4.0246
782.00,3.9885
781.00,3.9346
780.00,3.8614
779.00,3.8552
778.00,3.9368
777.00,4.0403
776.00,4.1095
775.00,4.1791
774.00,4.3278
773.00,4.3709
772.00,4.1765
771.00,4.0949
770.00,4.1293
769.00,4.2614
768.00,4.6611
767.00,4.6172
766.00,4.1883
765.00,4.0928
764.00,4.1580
763.00,4.2619
762.00,4.3196
761.00,4.3742
760.00,4.4934
759.00,4.4435
758.00,4.1950
757.00,3.9905
756.00,3.8174
755.00,3.7002
754.00,3.6658
753.00,3.6893
752.00,3.7050
751.00,3.6739
750.00,3.6556
749.00,3.7120
748.00,3.8619
747.00,4.1228
746.00,4.4917
745.00,4.7352
744.00,4.5348
743.00,4.1886
742.00,4.0141
741.00,3.9690
740.00,3.9509
739.00,3.8941
738.00,3.8350
737.00,3.8345
736.00,3.9096
735.00,4.0239
734.00,4.0862
733.00,4.1155
732.00,4.1468
731.00,4.1122
730.00,4.0469
729.00,4.0301
728.00,4.0871
727.00,4.1094
726.00,4.0387
725.00,4.0460
724.00,4.2692
723.00,4.5221
722.00,4.1922
721.00,3.9428
720.00,3.8054
719.00,3.7709
718.00,3.8674
717.00,4.0970
716.00,4.2935
715.00,4.1667
714.00,4.0015
713.00,3.8826
712.00,3.7966
711.00,3.7373
710.00,3.6861
709.00,3.6235
708.00,3.5742
707.00,3.5749
706.00,3.6358
705.00,3.7600
704.00,3.9579
703.00,4.1449
702.00,4.1387
701.00,4.1111
700.00,4.1501
