Created as New Dataset,Sample 051 By Administrator Date Wednesday, November 24 2021
cm-1,A
7502.00,0.6531
7501.00,0.6628
7500.00,0.6732
7499.00,0.6836
7498.00,0.6933
7497.00,0.7024
7496.00,0.7113
7495.00,0.7196
7494.00,0.7270
7493.00,0.7337
7492.00,0.7403
7491.00,0.7478
7490.00,0.7565
7489.00,0.7657
7488.00,0.7744
7487.00,0.7814
7486.00,0.7870
7485.00,0.7920
7484.00,0.7972
7483.00,0.8026
7482.00,0.8082
7481.00,0.8141
7480.00,0.8206
7479.00,0.8274
7478.00,0.8342
7477.00,0.8403
7476.00,0.8453
7475.00,0.8494
7474.00,0.8528
7473.00,0.8559
7472.00,0.8588
7471.00,0.8615
7470.00,0.8640
7469.00,0.8663
7468.00,0.8684
7467.00,0.8701
7466.00,0.8714
7465.00,0.8720
7464.00,0.8719
7463.00,0.8714
7462.00,0.8707
7461.00,0.8695
7460.00,0.8678
7459.00,0.8654
7458.00,0.8629
7457.00,0.8607
7456.00,0.8586
7455.00,0.8562
7454.00,0.8535
7453.00,0.8507
7452.00,0.8477
7451.00,0.8444
7450.00,0.8404
7449.00,0.8357
7448.00,0.8305
7447.00,0.8249
7446.00,0.8193
7445.00,0.8135
7444.00,0.8072
7443.00,0.8003
7442.00,0.7933
7441.00,0.7863
7440.00,0.7792
7439.00,0.7714
7438.00,0.7630
7437.00,0.7545
7436.00,0.7462
7435.00,0.7382
7434.00,0.7302
7433.00,0.7224
7432.00,0.7146
7431.00,0.7071
7430.00,0.7000
7429.00,0.6937
7428.00,0.6881
7427.00,0.6829
7426.00,0.6781
7425.00,0.6733
7424.00,0.6682
7423.00,0.6625
7422.00,0.6566
7421.00,0.6506
7420.00,0.6445
7419.00,0.6378
7418.00,0.6307
7417.00,0.6237
7416.00,0.6175
7415.00,0.6118
7414.00,0.6066
7413.00,0.6017
7412.00,0.5974
7411.00,0.5933
7410.00,0.5894
7409.00,0.5858
7408.00,0.5827
7407.00,0.5800
7406.00,0.5778
7405.00,0.5757
7404.00,0.5735
7403.00,0.5711
7402.00,0.5690
7401.00,0.5673
7400.00,0.5658
7399.00,0.5645
7398.00,0.5634
7397.00,0.5630
7396.00,0.5632
7395.00,0.5640
7394.00,0.5651
7393.00,0.5666
7392.00,0.5683
7391.00,0.5703
7390.00,0.5726
7389.00,0.5755
7388.00,0.5792
7387.00,0.5834
7386.00,0.5879
7385.00,0.5928
7384.00,0.5981
7383.00,0.6039
7382.00,0.6101
7381.00,0.6166
7380.00,0.6237
7379.00,0.6311
7378.00,0.6386
7377.00,0.6458
7376.00,0.6529
7375.00,0.6604
7374.00,0.6682
7373.00,0.6760
7372.00,0.6833
7371.00,0.6904
7370.00,0.6979
7369.00,0.7062
7368.00,0.7152
7367.00,0.7243
7366.00,0.7334
7365.00,0.7422
7364.00,0.7509
7363.00,0.7596
7362.00,0.7686
7361.00,0.7776
7360.00,0.7863
7359.00,0.7945
7358.00,0.8025
7357.00,0.8111
7356.00,0.8203
7355.00,0.8298
7354.00,0.8394
7353.00,0.8490
7352.00,0.8586
7351.00,0.8679
7350.00,0.8769
7349.00,0.8853
7348.00,0.8932
7347.00,0.9001
7346.00,0.9062
7345.00,0.9122
7344.00,0.9186
7343.00,0.9257
7342.00,0.9332
7341.00,0.9409
7340.00,0.9483
7339.00,0.9550
7338.00,0.9610
7337.00,0.9667
7336.00,0.9723
7335.00,0.9774
7334.00,0.9819
7333.00,0.9860
7332.00,0.9903
7331.00,0.9950
7330.00,0.9996
7329.00,1.0036
7328.00,1.0068
7327.00,1.0096
7326.00,1.0121
7325.00,1.0147
7324.00,1.0172
7323.00,1.0195
7322.00,1.0214
7321.00,1.0230
7320.00,1.0244
7319.00,1.0254
7318.00,1.0256
7317.00,1.0250
7316.00,1.0239
7315.00,1.0229
7314.00,1.0222
7313.00,1.0216
7312.00,1.0205
7311.00,1.0185
7310.00,1.0160
7309.00,1.0132
7308.00,1.0100
7307.00,1.0061
7306.00,1.0013
7305.00,0.9963
7304.00,0.9919
7303.00,0.9882
7302.00,0.9846
7301.00,0.9805
7300.00,0.9757
7299.00,0.9706
7298.00,0.9653
7297.00,0.9598
7296.00,0.9536
7295.00,0.9467
7294.00,0.9393
7293.00,0.9316
7292.00,0.9238
7291.00,0.9159
7290.00,0.9078
7289.00,0.8997
7288.00,0.8914
7287.00,0.8831
7286.00,0.8749
7285.00,0.8667
7284.00,0.8587
7283.00,0.8506
7282.00,0.8424
7281.00,0.8341
7280.00,0.8256
7279.00,0.8170
7278.00,0.8085
7277.00,0.8002
7276.00,0.7921
7275.00,0.7840
7274.00,0.7761
7273.00,0.7686
7272.00,0.7613
7271.00,0.7539
7270.00,0.7466
7269.00,0.7397
7268.00,0.7334
7267.00,0.7273
7266.00,0.7212
7265.00,0.7152
7264.00,0.7096
7263.00,0.7047
7262.00,0.7002
7261.00,0.6958
7260.00,0.6916
7259.00,0.6878
7258.00,0.6848
7257.00,0.6825
7256.00,0.6805
7255.00,0.6787
7254.00,0.6774
7253.00,0.6769
7252.00,0.6769
7251.00,0.6773
7250.00,0.6780
7249.00,0.6793
7248.00,0.6813
7247.00,0.6838
7246.00,0.6869
7245.00,0.6905
7244.00,0.6947
7243.00,0.6993
7242.00,0.7039
7241.00,0.7087
7240.00,0.7136
7239.00,0.7186
7238.00,0.7236
7237.00,0.7290
7236.00,0.7349
7235.00,0.7416
7234.00,0.7488
7233.00,0.7561
7232.00,0.7633
7231.00,0.7706
7230.00,0.7781
7229.00,0.7859
7228.00,0.7938
7227.00,0.8017
7226.00,0.8095
7225.00,0.8177
7224.00,0.8262
7223.00,0.8349
7222.00,0.8433
7221.00,0.8513
7220.00,0.8592
7219.00,0.8675
7218.00,0.8763
7217.00,0.8850
7216.00,0.8934
7215.00,0.9015
7214.00,0.9095
7213.00,0.9175
7212.00,0.9254
7211.00,0.9331
7210.00,0.9407
7209.00,0.9484
7208.00,0.9560
7207.00,0.9634
7206.00,0.9704
7205.00,0.9772
7204.00,0.9837
7203.00,0.9897
7202.00,0.9956
7201.00,1.0015
7200.00,1.0076
7199.00,1.0138
7198.00,1.0201
7197.00,1.0260
7196.00,1.0311
7195.00,1.0356
7194.00,1.0398
7193.00,1.0441
7192.00,1.0484
7191.00,1.0524
7190.00,1.0561
7189.00,1.0598
7188.00,1.0632
7187.00,1.0660
7186.00,1.0681
7185.00,1.0698
7184.00,1.0712
7183.00,1.0721
7182.00,1.0724
7181.00,1.0729
7180.00,1.0741
7179.00,1.0753
7178.00,1.0757
7177.00,1.0752
7176.00,1.0742
7175.00,1.0735
7174.00,1.0726
7173.00,1.0708
7172.00,1.0679
7171.00,1.0644
7170.00,1.0610
7169.00,1.0576
7168.00,1.0536
7167.00,1.0490
7166.00,1.0440
7165.00,1.0391
7164.00,1.0345
7163.00,1.0299
7162.00,1.0253
7161.00,1.0206
7160.00,1.0155
7159.00,1.0099
7158.00,1.0038
7157.00,0.9974
7156.00,0.9906
7155.00,0.9833
7154.00,0.9755
7153.00,0.9675
7152.00,0.9596
7151.00,0.9519
7150.00,0.9444
7149.00,0.9369
7148.00,0.9294
7147.00,0.9218
7146.00,0.9141
7145.00,0.9061
7144.00,0.8976
7143.00,0.8889
7142.00,0.8803
7141.00,0.8720
7140.00,0.8638
7139.00,0.8555
7138.00,0.8473
7137.00,0.8394
7136.00,0.8317
7135.00,0.8242
7134.00,0.8167
7133.00,0.8093
7132.00,0.8016
7131.00,0.7936
7130.00,0.7858
7129.00,0.7784
7128.00,0.7715
7127.00,0.7646
7126.00,0.7581
7125.00,0.7523
7124.00,0.7470
7123.00,0.7419
7122.00,0.7367
7121.00,0.7317
7120.00,0.7272
7119.00,0.7232
7118.00,0.7196
7117.00,0.7163
7116.00,0.7134
7115.00,0.7110
7114.00,0.7092
7113.00,0.7081
7112.00,0.7073
7111.00,0.7069
7110.00,0.7069
7109.00,0.7076
7108.00,0.7090
7107.00,0.7107
7106.00,0.7127
7105.00,0.7151
7104.00,0.7180
7103.00,0.7212
7102.00,0.7246
7101.00,0.7281
7100.00,0.7320
7099.00,0.7364
7098.00,0.7415
7097.00,0.7473
7096.00,0.7535
7095.00,0.7602
7094.00,0.7673
7093.00,0.7746
7092.00,0.7817
7091.00,0.7887
7090.00,0.7956
7089.00,0.8028
7088.00,0.8104
7087.00,0.8180
7086.00,0.8257
7085.00,0.8334
7084.00,0.8413
7083.00,0.8495
7082.00,0.8582
7081.00,0.8671
7080.00,0.8761
7079.00,0.8852
7078.00,0.8943
7077.00,0.9034
7076.00,0.9123
7075.00,0.9207
7074.00,0.9286
7073.00,0.9364
7072.00,0.9445
7071.00,0.9530
7070.00,0.9620
7069.00,0.9711
7068.00,0.9799
7067.00,0.9883
7066.00,0.9962
7065.00,1.0037
7064.00,1.0107
7063.00,1.0173
7062.00,1.0238
7061.00,1.0305
7060.00,1.0376
7059.00,1.0449
7058.00,1.0522
7057.00,1.0590
7056.00,1.0652
7055.00,1.0707
7054.00,1.0762
7053.00,1.0820
7052.00,1.0881
7051.00,1.0940
7050.00,1.0997
7049.00,1.1048
7048.00,1.1091
7047.00,1.1125
7046.00,1.1152
7045.00,1.1176
7044.00,1.1200
7043.00,1.1227
7042.00,1.1258
7041.00,1.1291
7040.00,1.1321
7039.00,1.1340
7038.00,1.1350
7037.00,1.1354
7036.00,1.1358
7035.00,1.1360
7034.00,1.1361
7033.00,1.1360
7032.00,1.1359
7031.00,1.1356
7030.00,1.1347
7029.00,1.1330
7028.00,1.1307
7027.00,1.1281
7026.00,1.1255
7025.00,1.1226
7024.00,1.1191
7023.00,1.1154
7022.00,1.1115
7021.00,1.1077
7020.00,1.1037
7019.00,1.0992
7018.00,1.0942
7017.00,1.0889
7016.00,1.0833
7015.00,1.0771
7014.00,1.0704
7013.00,1.0635
7012.00,1.0565
7011.00,1.0494
7010.00,1.0423
7009.00,1.0353
7008.00,1.0282
7007.00,1.0207
7006.00,1.0128
7005.00,1.0044
7004.00,0.9956
7003.00,0.9862
7002.00,0.9766
7001.00,0.9669
7000.00,0.9574
6999.00,0.9481
6998.00,0.9390
6997.00,0.9301
6996.00,0.9213
6995.00,0.9121
6994.00,0.9028
6993.00,0.8934
6992.00,0.8843
6991.00,0.8753
6990.00,0.8666
6989.00,0.8582
6988.00,0.8503
6987.00,0.8425
6986.00,0.8346
6985.00,0.8265
6984.00,0.8186
6983.00,0.8111
6982.00,0.8039
6981.00,0.7970
6980.00,0.7905
6979.00,0.7846
6978.00,0.7794
6977.00,0.7747
6976.00,0.7705
6975.00,0.7666
6974.00,0.7631
6973.00,0.7601
6972.00,0.7576
6971.00,0.7555
6970.00,0.7539
6969.00,0.7528
6968.00,0.7523
6967.00,0.7523
6966.00,0.7528
6965.00,0.7538
6964.00,0.7551
6963.00,0.7569
6962.00,0.7591
6961.00,0.7616
6960.00,0.7647
6959.00,0.7683
6958.00,0.7726
6957.00,0.7773
6956.00,0.7824
6955.00,0.7877
6954.00,0.7935
6953.00,0.7995
6952.00,0.8058
6951.00,0.8122
6950.00,0.8188
6949.00,0.8257
6948.00,0.8327
6947.00,0.8401
6946.00,0.8479
6945.00,0.8558
6944.00,0.8636
6943.00,0.8716
6942.00,0.8800
6941.00,0.8889
6940.00,0.8978
6939.00,0.9065
6938.00,0.9150
6937.00,0.9237
6936.00,0.9323
6935.00,0.9405
6934.00,0.9484
6933.00,0.9564
6932.00,0.9645
6931.00,0.9729
6930.00,0.9814
6929.00,0.9900
6928.00,0.9987
6927.00,1.0073
6926.00,1.0158
6925.00,1.0241
6924.00,1.0321
6923.00,1.0398
6922.00,1.0470
6921.00,1.0539
6920.00,1.0604
6919.00,1.0666
6918.00,1.0727
6917.00,1.0788
6916.00,1.0850
6915.00,1.0910
6914.00,1.0970
6913.00,1.1029
6912.00,1.1084
6911.00,1.1133
6910.00,1.1177
6909.00,1.1219
6908.00,1.1260
6907.00,1.1295
6906.00,1.1324
6905.00,1.1347
6904.00,1.1371
6903.00,1.1395
6902.00,1.1418
6901.00,1.1439
6900.00,1.1458
6899.00,1.1475
6898.00,1.1491
6897.00,1.1503
6896.00,1.1509
6895.00,1.1511
6894.00,1.1511
6893.00,1.1508
6892.00,1.1500
6891.00,1.1486
6890.00,1.1467
6889.00,1.1445
6888.00,1.1418
6887.00,1.1386
6886.00,1.1353
6885.00,1.1320
6884.00,1.1288
6883.00,1.1252
6882.00,1.1211
6881.00,1.1163
6880.00,1.1112
6879.00,1.1059
6878.00,1.1003
6877.00,1.0945
6876.00,1.0885
6875.00,1.0824
6874.00,1.0761
6873.00,1.0694
6872.00,1.0622
6871.00,1.0545
6870.00,1.0464
6869.00,1.0381
6868.00,1.0295
6867.00,1.0207
6866.00,1.0118
6865.00,1.0028
6864.00,0.9937
6863.00,0.9844
6862.00,0.9752
6861.00,0.9661
6860.00,0.9570
6859.00,0.9477
6858.00,0.9383
6857.00,0.9289
6856.00,0.9196
6855.00,0.9102
6854.00,0.9007
6853.00,0.8913
6852.00,0.8820
6851.00,0.8730
6850.00,0.8643
6849.00,0.8560
6848.00,0.8480
6847.00,0.8400
6846.00,0.8320
6845.00,0.8241
6844.00,0.8165
6843.00,0.8092
6842.00,0.8023
6841.00,0.7959
6840.00,0.7900
6839.00,0.7844
6838.00,0.7792
6837.00,0.7743
6836.00,0.7694
6835.00,0.7647
6834.00,0.7603
6833.00,0.7565
6832.00,0.7534
6831.00,0.7508
6830.00,0.7488
6829.00,0.7476
6828.00,0.7467
6827.00,0.7461
6826.00,0.7457
6825.00,0.7457
6824.00,0.7463
6823.00,0.7473
6822.00,0.7489
6821.00,0.7511
6820.00,0.7538
6819.00,0.7572
6818.00,0.7611
6817.00,0.7653
6816.00,0.7698
6815.00,0.7747
6814.00,0.7799
6813.00,0.7853
6812.00,0.7908
6811.00,0.7965
6810.00,0.8025
6809.00,0.8092
6808.00,0.8163
6807.00,0.8237
6806.00,0.8315
6805.00,0.8398
6804.00,0.8482
6803.00,0.8564
6802.00,0.8645
6801.00,0.8725
6800.00,0.8805
6799.00,0.8888
6798.00,0.8974
6797.00,0.9065
6796.00,0.9159
6795.00,0.9252
6794.00,0.9346
6793.00,0.9439
6792.00,0.9530
6791.00,0.9618
6790.00,0.9706
6789.00,0.9795
6788.00,0.9886
6787.00,0.9975
6786.00,1.0062
6785.00,1.0147
6784.00,1.0232
6783.00,1.0313
6782.00,1.0392
6781.00,1.0470
6780.00,1.0550
6779.00,1.0628
6778.00,1.0704
6777.00,1.0779
6776.00,1.0853
6775.00,1.0924
6774.00,1.0992
6773.00,1.1062
6772.00,1.1133
6771.00,1.1202
6770.00,1.1266
6769.00,1.1325
6768.00,1.1380
6767.00,1.1432
6766.00,1.1478
6765.00,1.1521
6764.00,1.1563
6763.00,1.1604
6762.00,1.1642
6761.00,1.1676
6760.00,1.1707
6759.00,1.1737
6758.00,1.1766
6757.00,1.1792
6756.00,1.1815
6755.00,1.1837
6754.00,1.1854
6753.00,1.1867
6752.00,1.1874
6751.00,1.1878
6750.00,1.1878
6749.00,1.1874
6748.00,1.1866
6747.00,1.1854
6746.00,1.1840
6745.00,1.1826
6744.00,1.1811
6743.00,1.1792
6742.00,1.1767
6741.00,1.1735
6740.00,1.1698
6739.00,1.1657
6738.00,1.1613
6737.00,1.1565
6736.00,1.1514
6735.00,1.1460
6734.00,1.1408
6733.00,1.1355
6732.00,1.1299
6731.00,1.1240
6730.00,1.1177
6729.00,1.1109
6728.00,1.1037
6727.00,1.0962
6726.00,1.0883
6725.00,1.0801
6724.00,1.0716
6723.00,1.0629
6722.00,1.0543
6721.00,1.0456
6720.00,1.0365
6719.00,1.0271
6718.00,1.0174
6717.00,1.0077
6716.00,0.9980
6715.00,0.9882
6714.00,0.9785
6713.00,0.9688
6712.00,0.9589
6711.00,0.9487
6710.00,0.9386
6709.00,0.9286
6708.00,0.9187
6707.00,0.9088
6706.00,0.8990
6705.00,0.8896
6704.00,0.8806
6703.00,0.8716
6702.00,0.8627
6701.00,0.8540
6700.00,0.8458
6699.00,0.8380
6698.00,0.8305
6697.00,0.8233
6696.00,0.8165
6695.00,0.8100
6694.00,0.8040
6693.00,0.7982
6692.00,0.7929
6691.00,0.7880
6690.00,0.7837
6689.00,0.7799
6688.00,0.7767
6687.00,0.7739
6686.00,0.7718
6685.00,0.7703
6684.00,0.7695
6683.00,0.7692
6682.00,0.7696
6681.00,0.7705
6680.00,0.7719
6679.00,0.7738
6678.00,0.7761
6677.00,0.7788
6676.00,0.7819
6675.00,0.7853
6674.00,0.7892
6673.00,0.7937
6672.00,0.7987
6671.00,0.8041
6670.00,0.8098
6669.00,0.8159
6668.00,0.8223
6667.00,0.8291
6666.00,0.8362
6665.00,0.8435
6664.00,0.8509
6663.00,0.8587
6662.00,0.8667
6661.00,0.8749
6660.00,0.8832
6659.00,0.8916
6658.00,0.9002
6657.00,0.9090
6656.00,0.9181
6655.00,0.9271
6654.00,0.9362
6653.00,0.9452
6652.00,0.9541
6651.00,0.9629
6650.00,0.9716
6649.00,0.9803
6648.00,0.9891
6647.00,0.9980
6646.00,1.0069
6645.00,1.0158
6644.00,1.0246
6643.00,1.0333
6642.00,1.0418
6641.00,1.0500
6640.00,1.0578
6639.00,1.0651
6638.00,1.0723
6637.00,1.0796
6636.00,1.0869
6635.00,1.0942
6634.00,1.1016
6633.00,1.1091
6632.00,1.1163
6631.00,1.1231
6630.00,1.1292
6629.00,1.1347
6628.00,1.1399
6627.00,1.1449
6626.00,1.1497
6625.00,1.1541
6624.00,1.1583
6623.00,1.1623
6622.00,1.1661
6621.00,1.1697
6620.00,1.1730
6619.00,1.1761
6618.00,1.1788
6617.00,1.1811
6616.00,1.1826
6615.00,1.1836
6614.00,1.1844
6613.00,1.1849
6612.00,1.1851
6611.00,1.1851
6610.00,1.1850
6609.00,1.1848
6608.00,1.1841
6607.00,1.1828
6606.00,1.1810
6605.00,1.1789
6604.00,1.1763
6603.00,1.1730
6602.00,1.1695
6601.00,1.1659
6600.00,1.1624
6599.00,1.1584
6598.00,1.1540
6597.00,1.1494
6596.00,1.1446
6595.00,1.1394
6594.00,1.1336
6593.00,1.1273
6592.00,1.1210
6591.00,1.1148
6590.00,1.1083
6589.00,1.1013
6588.00,1.0935
6587.00,1.0852
6586.00,1.0767
6585.00,1.0682
6584.00,1.0596
6583.00,1.0509
6582.00,1.0421
6581.00,1.0334
6580.00,1.0246
6579.00,1.0155
6578.00,1.0059
6577.00,0.9960
6576.00,0.9860
6575.00,0.9761
6574.00,0.9664
6573.00,0.9568
6572.00,0.9473
6571.00,0.9376
6570.00,0.9278
6569.00,0.9180
6568.00,0.9081
6567.00,0.8981
6566.00,0.8882
6565.00,0.8786
6564.00,0.8694
6563.00,0.8606
6562.00,0.8521
6561.00,0.8438
6560.00,0.8356
6559.00,0.8277
6558.00,0.8200
6557.00,0.8126
6556.00,0.8056
6555.00,0.7989
6554.00,0.7925
6553.00,0.7864
6552.00,0.7806
6551.00,0.7753
6550.00,0.7705
6549.00,0.7663
6548.00,0.7625
6547.00,0.7593
6546.00,0.7566
6545.00,0.7543
6544.00,0.7526
6543.00,0.7512
6542.00,0.7504
6541.00,0.7503
6540.00,0.7509
6539.00,0.7519
6538.00,0.7534
6537.00,0.7553
6536.00,0.7577
6535.00,0.7607
6534.00,0.7642
6533.00,0.7681
6532.00,0.7724
6531.00,0.7772
6530.00,0.7824
6529.00,0.7882
6528.00,0.7942
6527.00,0.8006
6526.00,0.8074
6525.00,0.8148
6524.00,0.8224
6523.00,0.8301
6522.00,0.8380
6521.00,0.8460
6520.00,0.8543
6519.00,0.8628
6518.00,0.8716
6517.00,0.8806
6516.00,0.8895
6515.00,0.8984
6514.00,0.9075
6513.00,0.9169
6512.00,0.9264
6511.00,0.9358
6510.00,0.9453
6509.00,0.9549
6508.00,0.9646
6507.00,0.9742
6506.00,0.9837
6505.00,0.9929
6504.00,1.0020
6503.00,1.0109
6502.00,1.0199
6501.00,1.0288
6500.00,1.0375
6499.00,1.0459
6498.00,1.0542
6497.00,1.0627
6496.00,1.0712
6495.00,1.0797
6494.00,1.0880
6493.00,1.0961
6492.00,1.1040
6491.00,1.1116
6490.00,1.1188
6489.00,1.1257
6488.00,1.1322
6487.00,1.1385
6486.00,1.1447
6485.00,1.1509
6484.00,1.1568
6483.00,1.1622
6482.00,1.1673
6481.00,1.1723
6480.00,1.1769
6479.00,1.1810
6478.00,1.1848
6477.00,1.1886
6476.00,1.1924
6475.00,1.1957
6474.00,1.1984
6473.00,1.2006
6472.00,1.2024
6471.00,1.2037
6470.00,1.2047
6469.00,1.2054
6468.00,1.2062
6467.00,1.2068
6466.00,1.2073
6465.00,1.2072
6464.00,1.2064
6463.00,1.2050
6462.00,1.2032
6461.00,1.2011
6460.00,1.1987
6459.00,1.1959
6458.00,1.1930
6457.00,1.1899
6456.00,1.1864
6455.00,1.1825
6454.00,1.1780
6453.00,1.1734
6452.00,1.1685
6451.00,1.1633
6450.00,1.1577
6449.00,1.1517
6448.00,1.1454
6447.00,1.1386
6446.00,1.1315
6445.00,1.1240
6444.00,1.1164
6443.00,1.1085
6442.00,1.1003
6441.00,1.0918
6440.00,1.0830
6439.00,1.0740
6438.00,1.0649
6437.00,1.0556
6436.00,1.0459
6435.00,1.0358
6434.00,1.0255
6433.00,1.0152
6432.00,1.0049
6431.00,0.9946
6430.00,0.9841
6429.00,0.9737
6428.00,0.9632
6427.00,0.9525
6426.00,0.9416
6425.00,0.9306
6424.00,0.9198
6423.00,0.9093
6422.00,0.8990
6421.00,0.8889
6420.00,0.8790
6419.00,0.8692
6418.00,0.8595
6417.00,0.8502
6416.00,0.8411
6415.00,0.8325
6414.00,0.8243
6413.00,0.8166
6412.00,0.8093
6411.00,0.8022
6410.00,0.7956
6409.00,0.7893
6408.00,0.7834
6407.00,0.7779
6406.00,0.7732
6405.00,0.7690
6404.00,0.7655
6403.00,0.7625
6402.00,0.7600
6401.00,0.7583
6400.00,0.7571
6399.00,0.7565
6398.00,0.7564
6397.00,0.7570
6396.00,0.7583
6395.00,0.7601
6394.00,0.7622
6393.00,0.7649
6392.00,0.7680
6391.00,0.7716
6390.00,0.7756
6389.00,0.7801
6388.00,0.7853
6387.00,0.7910
6386.00,0.7971
6385.00,0.8037
6384.00,0.8105
6383.00,0.8177
6382.00,0.8251
6381.00,0.8328
6380.00,0.8407
6379.00,0.8488
6378.00,0.8571
6377.00,0.8657
6376.00,0.8746
6375.00,0.8836
6374.00,0.8927
6373.00,0.9022
6372.00,0.9118
6371.00,0.9214
6370.00,0.9309
6369.00,0.9404
6368.00,0.9499
6367.00,0.9593
6366.00,0.9686
6365.00,0.9777
6364.00,0.9868
6363.00,0.9959
6362.00,1.0048
6361.00,1.0138
6360.00,1.0227
6359.00,1.0317
6358.00,1.0408
6357.00,1.0498
6356.00,1.0587
6355.00,1.0671
6354.00,1.0753
6353.00,1.0833
6352.00,1.0911
6351.00,1.0986
6350.00,1.1060
6349.00,1.1133
6348.00,1.1204
6347.00,1.1271
6346.00,1.1336
6345.00,1.1399
6344.00,1.1459
6343.00,1.1513
6342.00,1.1561
6341.00,1.1606
6340.00,1.1647
6339.00,1.1686
6338.00,1.1723
6337.00,1.1764
6336.00,1.1808
6335.00,1.1851
6334.00,1.1888
6333.00,1.1918
6332.00,1.1942
6331.00,1.1961
6330.00,1.1977
6329.00,1.1988
6328.00,1.1997
6327.00,1.2005
6326.00,1.2009
6325.00,1.2009
6324.00,1.2004
6323.00,1.1996
6322.00,1.1984
6321.00,1.1968
6320.00,1.1948
6319.00,1.1922
6318.00,1.1890
6317.00,1.1853
6316.00,1.1812
6315.00,1.1767
6314.00,1.1719
6313.00,1.1668
6312.00,1.1613
6311.00,1.1556
6310.00,1.1497
6309.00,1.1435
6308.00,1.1372
6307.00,1.1307
6306.00,1.1238
6305.00,1.1165
6304.00,1.1088
6303.00,1.1006
6302.00,1.0923
6301.00,1.0836
6300.00,1.0745
6299.00,1.0649
6298.00,1.0550
6297.00,1.0450
6296.00,1.0348
6295.00,1.0246
6294.00,1.0144
6293.00,1.0041
6292.00,0.9936
6291.00,0.9830
6290.00,0.9723
6289.00,0.9615
6288.00,0.9509
6287.00,0.9405
6286.00,0.9302
6285.00,0.9199
6284.00,0.9095
6283.00,0.8988
6282.00,0.8882
6281.00,0.8776
6280.00,0.8671
6279.00,0.8570
6278.00,0.8474
6277.00,0.8381
6276.00,0.8290
6275.00,0.8201
6274.00,0.8114
6273.00,0.8030
6272.00,0.7949
6271.00,0.7871
6270.00,0.7797
6269.00,0.7728
6268.00,0.7664
6267.00,0.7605
6266.00,0.7549
6265.00,0.7498
6264.00,0.7453
6263.00,0.7414
6262.00,0.7380
6261.00,0.7352
6260.00,0.7329
6259.00,0.7311
6258.00,0.7300
6257.00,0.7295
6256.00,0.7296
6255.00,0.7303
6254.00,0.7316
6253.00,0.7336
6252.00,0.7361
6251.00,0.7391
6250.00,0.7426
6249.00,0.7467
6248.00,0.7514
6247.00,0.7565
6246.00,0.7621
6245.00,0.7682
6244.00,0.7747
6243.00,0.7814
6242.00,0.7884
6241.00,0.7957
6240.00,0.8036
6239.00,0.8118
6238.00,0.8202
6237.00,0.8288
6236.00,0.8377
6235.00,0.8467
6234.00,0.8558
6233.00,0.8649
6232.00,0.8743
6231.00,0.8840
6230.00,0.8941
6229.00,0.9044
6228.00,0.9146
6227.00,0.9248
6226.00,0.9349
6225.00,0.9448
6224.00,0.9546
6223.00,0.9645
6222.00,0.9744
6221.00,0.9844
6220.00,0.9941
6219.00,1.0035
6218.00,1.0128
6217.00,1.0222
6216.00,1.0315
6215.00,1.0406
6214.00,1.0496
6213.00,1.0584
6212.00,1.0672
6211.00,1.0760
6210.00,1.0846
6209.00,1.0932
6208.00,1.1017
6207.00,1.1101
6206.00,1.1181
6205.00,1.1254
6204.00,1.1319
6203.00,1.1380
6202.00,1.1438
6201.00,1.1496
6200.00,1.1552
6199.00,1.1609
6198.00,1.1667
6197.00,1.1719
6196.00,1.1764
6195.00,1.1802
6194.00,1.1840
6193.00,1.1879
6192.00,1.1915
6191.00,1.1947
6190.00,1.1977
6189.00,1.2004
6188.00,1.2027
6187.00,1.2042
6186.00,1.2050
6185.00,1.2054
6184.00,1.2056
6183.00,1.2056
6182.00,1.2053
6181.00,1.2049
6180.00,1.2042
6179.00,1.2031
6178.00,1.2015
6177.00,1.1997
6176.00,1.1977
6175.00,1.1952
6174.00,1.1923
6173.00,1.1888
6172.00,1.1848
6171.00,1.1804
6170.00,1.1756
6169.00,1.1704
6168.00,1.1649
6167.00,1.1592
6166.00,1.1534
6165.00,1.1475
6164.00,1.1412
6163.00,1.1345
6162.00,1.1273
6161.00,1.1197
6160.00,1.1115
6159.00,1.1028
6158.00,1.0939
6157.00,1.0850
6156.00,1.0761
6155.00,1.0668
6154.00,1.0573
6153.00,1.0475
6152.00,1.0374
6151.00,1.0270
6150.00,1.0163
6149.00,1.0054
6148.00,0.9943
6147.00,0.9829
6146.00,0.9713
6145.00,0.9597
6144.00,0.9481
6143.00,0.9365
6142.00,0.9251
6141.00,0.9140
6140.00,0.9028
6139.00,0.8916
6138.00,0.8804
6137.00,0.8693
6136.00,0.8584
6135.00,0.8477
6134.00,0.8371
6133.00,0.8268
6132.00,0.8168
6131.00,0.8071
6130.00,0.7979
6129.00,0.7892
6128.00,0.7810
6127.00,0.7733
6126.00,0.7661
6125.00,0.7593
6124.00,0.7530
6123.00,0.7472
6122.00,0.7419
6121.00,0.7374
6120.00,0.7334
6119.00,0.7301
6118.00,0.7274
6117.00,0.7254
6116.00,0.7240
6115.00,0.7231
6114.00,0.7228
6113.00,0.7230
6112.00,0.7240
6111.00,0.7257
6110.00,0.7281
6109.00,0.7312
6108.00,0.7350
6107.00,0.7393
6106.00,0.7439
6105.00,0.7490
6104.00,0.7545
6103.00,0.7605
6102.00,0.7670
6101.00,0.7740
6100.00,0.7814
6099.00,0.7891
6098.00,0.7972
6097.00,0.8055
6096.00,0.8142
6095.00,0.8230
6094.00,0.8321
6093.00,0.8415
6092.00,0.8512
6091.00,0.8610
6090.00,0.8708
6089.00,0.8806
6088.00,0.8904
6087.00,0.9003
6086.00,0.9103
6085.00,0.9204
6084.00,0.9306
6083.00,0.9407
6082.00,0.9509
6081.00,0.9611
6080.00,0.9712
6079.00,0.9812
6078.00,0.9911
6077.00,1.0009
6076.00,1.0108
6075.00,1.0205
6074.00,1.0300
6073.00,1.0391
6072.00,1.0480
6071.00,1.0566
6070.00,1.0650
6069.00,1.0732
6068.00,1.0811
6067.00,1.0888
6066.00,1.0963
6065.00,1.1038
6064.00,1.1112
6063.00,1.1184
6062.00,1.1256
6061.00,1.1325
6060.00,1.1390
6059.00,1.1452
6058.00,1.1509
6057.00,1.1562
6056.00,1.1610
6055.00,1.1653
6054.00,1.1693
6053.00,1.1733
6052.00,1.1771
6051.00,1.1806
6050.00,1.1837
6049.00,1.1863
6048.00,1.1884
6047.00,1.1898
6046.00,1.1907
6045.00,1.1915
6044.00,1.1923
6043.00,1.1932
6042.00,1.1941
6041.00,1.1946
6040.00,1.1944
6039.00,1.1935
6038.00,1.1921
6037.00,1.1903
6036.00,1.1883
6035.00,1.1860
6034.00,1.1834
6033.00,1.1806
6032.00,1.1775
6031.00,1.1740
6030.00,1.1701
6029.00,1.1659
6028.00,1.1615
6027.00,1.1566
6026.00,1.1513
6025.00,1.1456
6024.00,1.1395
6023.00,1.1332
6022.00,1.1265
6021.00,1.1195
6020.00,1.1122
6019.00,1.1047
6018.00,1.0968
6017.00,1.0887
6016.00,1.0804
6015.00,1.0718
6014.00,1.0628
6013.00,1.0533
6012.00,1.0435
6011.00,1.0335
6010.00,1.0232
6009.00,1.0129
6008.00,1.0023
6007.00,0.9916
6006.00,0.9807
6005.00,0.9696
6004.00,0.9580
6003.00,0.9462
6002.00,0.9344
6001.00,0.9227
6000.00,0.9111
5999.00,0.8995
5998.00,0.8880
5997.00,0.8768
5996.00,0.8657
5995.00,0.8546
5994.00,0.8435
5993.00,0.8327
5992.00,0.8221
5991.00,0.8117
5990.00,0.8015
5989.00,0.7918
5988.00,0.7824
5987.00,0.7735
5986.00,0.7650
5985.00,0.7570
5984.00,0.7495
5983.00,0.7425
5982.00,0.7360
5981.00,0.7302
5980.00,0.7250
5979.00,0.7204
5978.00,0.7164
5977.00,0.7130
5976.00,0.7105
5975.00,0.7086
5974.00,0.7076
5973.00,0.7072
5972.00,0.7076
5971.00,0.7086
5970.00,0.7104
5969.00,0.7129
5968.00,0.7161
5967.00,0.7199
5966.00,0.7243
5965.00,0.7295
5964.00,0.7352
5963.00,0.7414
5962.00,0.7481
5961.00,0.7553
5960.00,0.7632
5959.00,0.7715
5958.00,0.7802
5957.00,0.7892
5956.00,0.7984
5955.00,0.8076
5954.00,0.8169
5953.00,0.8261
5952.00,0.8352
5951.00,0.8443
5950.00,0.8534
5949.00,0.8627
5948.00,0.8719
5947.00,0.8810
5946.00,0.8901
5945.00,0.8994
5944.00,0.9088
5943.00,0.9185
5942.00,0.9283
5941.00,0.9384
5940.00,0.9486
5939.00,0.9587
5938.00,0.9687
5937.00,0.9787
5936.00,0.9887
5935.00,0.9986
5934.00,1.0085
5933.00,1.0183
5932.00,1.0280
5931.00,1.0376
5930.00,1.0471
5929.00,1.0565
5928.00,1.0658
5927.00,1.0749
5926.00,1.0837
5925.00,1.0922
5924.00,1.1003
5923.00,1.1082
5922.00,1.1159
5921.00,1.1236
5920.00,1.1311
5919.00,1.1383
5918.00,1.1454
5917.00,1.1522
5916.00,1.1585
5915.00,1.1644
5914.00,1.1698
5913.00,1.1750
5912.00,1.1798
5911.00,1.1842
5910.00,1.1884
5909.00,1.1922
5908.00,1.1958
5907.00,1.1989
5906.00,1.2016
5905.00,1.2041
5904.00,1.2064
5903.00,1.2083
5902.00,1.2098
5901.00,1.2108
5900.00,1.2114
5899.00,1.2116
5898.00,1.2115
5897.00,1.2112
5896.00,1.2107
5895.00,1.2098
5894.00,1.2083
5893.00,1.2062
5892.00,1.2036
5891.00,1.2005
5890.00,1.1971
5889.00,1.1933
5888.00,1.1893
5887.00,1.1850
5886.00,1.1806
5885.00,1.1756
5884.00,1.1702
5883.00,1.1643
5882.00,1.1582
5881.00,1.1520
5880.00,1.1453
5879.00,1.1381
5878.00,1.1305
5877.00,1.1224
5876.00,1.1140
5875.00,1.1052
5874.00,1.0963
5873.00,1.0874
5872.00,1.0782
5871.00,1.0687
5870.00,1.0587
5869.00,1.0482
5868.00,1.0372
5867.00,1.0259
5866.00,1.0144
5865.00,1.0029
5864.00,0.9913
5863.00,0.9795
5862.00,0.9675
5861.00,0.9557
5860.00,0.9439
5859.00,0.9321
5858.00,0.9203
5857.00,0.9084
5856.00,0.8964
5855.00,0.8843
5854.00,0.8722
5853.00,0.8604
5852.00,0.8489
5851.00,0.8378
5850.00,0.8270
5849.00,0.8166
5848.00,0.8065
5847.00,0.7968
5846.00,0.7875
5845.00,0.7787
5844.00,0.7704
5843.00,0.7627
5842.00,0.7555
5841.00,0.7489
5840.00,0.7428
5839.00,0.7371
5838.00,0.7321
5837.00,0.7277
5836.00,0.7239
5835.00,0.7207
5834.00,0.7181
5833.00,0.7163
5832.00,0.7150
5831.00,0.7142
5830.00,0.7140
5829.00,0.7143
5828.00,0.7151
5827.00,0.7164
5826.00,0.7184
5825.00,0.7211
5824.00,0.7244
5823.00,0.7285
5822.00,0.7331
5821.00,0.7382
5820.00,0.7437
5819.00,0.7495
5818.00,0.7557
5817.00,0.7625
5816.00,0.7698
5815.00,0.7777
5814.00,0.7861
5813.00,0.7951
5812.00,0.8042
5811.00,0.8133
5810.00,0.8226
5809.00,0.8322
5808.00,0.8420
5807.00,0.8520
5806.00,0.8623
5805.00,0.8730
5804.00,0.8838
5803.00,0.8946
5802.00,0.9052
5801.00,0.9157
5800.00,0.9261
5799.00,0.9365
5798.00,0.9469
5797.00,0.9576
5796.00,0.9684
5795.00,0.9793
5794.00,0.9902
5793.00,1.0010
5792.00,1.0114
5791.00,1.0213
5790.00,1.0309
5789.00,1.0403
5788.00,1.0497
5787.00,1.0593
5786.00,1.0689
5785.00,1.0785
5784.00,1.0878
5783.00,1.0969
5782.00,1.1056
5781.00,1.1138
5780.00,1.1217
5779.00,1.1292
5778.00,1.1365
5777.00,1.1437
5776.00,1.1506
5775.00,1.1573
5774.00,1.1637
5773.00,1.1699
5772.00,1.1757
5771.00,1.1810
5770.00,1.1859
5769.00,1.1904
5768.00,1.1946
5767.00,1.1985
5766.00,1.2020
5765.00,1.2051
5764.00,1.2078
5763.00,1.2101
5762.00,1.2122
5761.00,1.2142
5760.00,1.2159
5759.00,1.2174
5758.00,1.2185
5757.00,1.2191
5756.00,1.2189
5755.00,1.2181
5754.00,1.2169
5753.00,1.2157
5752.00,1.2142
5751.00,1.2124
5750.00,1.2104
5749.00,1.2079
5748.00,1.2050
5747.00,1.2015
5746.00,1.1976
5745.00,1.1936
5744.00,1.1891
5743.00,1.1840
5742.00,1.1786
5741.00,1.1728
5740.00,1.1669
5739.00,1.1607
5738.00,1.1543
5737.00,1.1476
5736.00,1.1405
5735.00,1.1329
5734.00,1.1248
5733.00,1.1163
5732.00,1.1075
5731.00,1.0984
5730.00,1.0890
5729.00,1.0792
5728.00,1.0689
5727.00,1.0581
5726.00,1.0467
5725.00,1.0352
5724.00,1.0235
5723.00,1.0116
5722.00,0.9995
5721.00,0.9873
5720.00,0.9750
5719.00,0.9625
5718.00,0.9499
5717.00,0.9374
5716.00,0.9248
5715.00,0.9123
5714.00,0.8997
5713.00,0.8871
5712.00,0.8744
5711.00,0.8617
5710.00,0.8491
5709.00,0.8367
5708.00,0.8247
5707.00,0.8129
5706.00,0.8015
5705.00,0.7905
5704.00,0.7797
5703.00,0.7692
5702.00,0.7591
5701.00,0.7495
5700.00,0.7404
5699.00,0.7319
5698.00,0.7240
5697.00,0.7169
5696.00,0.7105
5695.00,0.7046
5694.00,0.6994
5693.00,0.6948
5692.00,0.6908
5691.00,0.6875
5690.00,0.6851
5689.00,0.6834
5688.00,0.6826
5687.00,0.6825
5686.00,0.6832
5685.00,0.6847
5684.00,0.6869
5683.00,0.6898
5682.00,0.6934
5681.00,0.6977
5680.00,0.7026
5679.00,0.7080
5678.00,0.7140
5677.00,0.7207
5676.00,0.7280
5675.00,0.7358
5674.00,0.7440
5673.00,0.7527
5672.00,0.7618
5671.00,0.7712
5670.00,0.7809
5669.00,0.7910
5668.00,0.8013
5667.00,0.8118
5666.00,0.8225
5665.00,0.8332
5664.00,0.8440
5663.00,0.8550
5662.00,0.8661
5661.00,0.8774
5660.00,0.8889
5659.00,0.9005
5658.00,0.9123
5657.00,0.9241
5656.00,0.9359
5655.00,0.9475
5654.00,0.9591
5653.00,0.9706
5652.00,0.9820
5651.00,0.9932
5650.00,1.0043
5649.00,1.0151
5648.00,1.0257
5647.00,1.0363
5646.00,1.0467
5645.00,1.0569
5644.00,1.0669
5643.00,1.0768
5642.00,1.0867
5641.00,1.0966
5640.00,1.1062
5639.00,1.1153
5638.00,1.1241
5637.00,1.1325
5636.00,1.1404
5635.00,1.1479
5634.00,1.1552
5633.00,1.1626
5632.00,1.1698
5631.00,1.1767
5630.00,1.1831
5629.00,1.1891
5628.00,1.1946
5627.00,1.1996
5626.00,1.2043
5625.00,1.2087
5624.00,1.2128
5623.00,1.2166
5622.00,1.2197
5621.00,1.2224
5620.00,1.2245
5619.00,1.2262
5618.00,1.2277
5617.00,1.2291
5616.00,1.2306
5615.00,1.2318
5614.00,1.2327
5613.00,1.2332
5612.00,1.2330
5611.00,1.2321
5610.00,1.2306
5609.00,1.2288
5608.00,1.2266
5607.00,1.2242
5606.00,1.2215
5605.00,1.2186
5604.00,1.2151
5603.00,1.2108
5602.00,1.2060
5601.00,1.2009
5600.00,1.1955
5599.00,1.1899
5598.00,1.1841
5597.00,1.1780
5596.00,1.1713
5595.00,1.1642
5594.00,1.1565
5593.00,1.1486
5592.00,1.1404
5591.00,1.1319
5590.00,1.1229
5589.00,1.1135
5588.00,1.1037
5587.00,1.0935
5586.00,1.0831
5585.00,1.0727
5584.00,1.0621
5583.00,1.0511
5582.00,1.0397
5581.00,1.0277
5580.00,1.0153
5579.00,1.0024
5578.00,0.9894
5577.00,0.9764
5576.00,0.9634
5575.00,0.9502
5574.00,0.9368
5573.00,0.9233
5572.00,0.9099
5571.00,0.8965
5570.00,0.8832
5569.00,0.8701
5568.00,0.8572
5567.00,0.8443
5566.00,0.8316
5565.00,0.8192
5564.00,0.8071
5563.00,0.7955
5562.00,0.7842
5561.00,0.7733
5560.00,0.7630
5559.00,0.7531
5558.00,0.7438
5557.00,0.7351
5556.00,0.7270
5555.00,0.7196
5554.00,0.7127
5553.00,0.7066
5552.00,0.7013
5551.00,0.6966
5550.00,0.6928
5549.00,0.6898
5548.00,0.6875
5547.00,0.6860
5546.00,0.6854
5545.00,0.6857
5544.00,0.6869
5543.00,0.6888
5542.00,0.6915
5541.00,0.6949
5540.00,0.6990
5539.00,0.7036
5538.00,0.7089
5537.00,0.7150
5536.00,0.7218
5535.00,0.7293
5534.00,0.7373
5533.00,0.7459
5532.00,0.7550
5531.00,0.7645
5530.00,0.7742
5529.00,0.7842
5528.00,0.7945
5527.00,0.8052
5526.00,0.8163
5525.00,0.8276
5524.00,0.8393
5523.00,0.8511
5522.00,0.8630
5521.00,0.8749
5520.00,0.8868
5519.00,0.8988
5518.00,0.9109
5517.00,0.9231
5516.00,0.9353
5515.00,0.9475
5514.00,0.9597
5513.00,0.9720
5512.00,0.9841
5511.00,0.9961
5510.00,1.0081
5509.00,1.0200
5508.00,1.0318
5507.00,1.0432
5506.00,1.0544
5505.00,1.0655
5504.00,1.0763
5503.00,1.0869
5502.00,1.0972
5501.00,1.1074
5500.00,1.1174
5499.00,1.1272
5498.00,1.1367
5497.00,1.1458
5496.00,1.1545
5495.00,1.1628
5494.00,1.1707
5493.00,1.1783
5492.00,1.1856
5491.00,1.1926
5490.00,1.1994
5489.00,1.2060
5488.00,1.2123
5487.00,1.2181
5486.00,1.2235
5485.00,1.2285
5484.00,1.2331
5483.00,1.2372
5482.00,1.2410
5481.00,1.2446
5480.00,1.2479
5479.00,1.2506
5478.00,1.2529
5477.00,1.2547
5476.00,1.2563
5475.00,1.2575
5474.00,1.2583
5473.00,1.2588
5472.00,1.2589
5471.00,1.2586
5470.00,1.2578
5469.00,1.2564
5468.00,1.2545
5467.00,1.2520
5466.00,1.2493
5465.00,1.2464
5464.00,1.2432
5463.00,1.2397
5462.00,1.2357
5461.00,1.2314
5460.00,1.2265
5459.00,1.2210
5458.00,1.2151
5457.00,1.2093
5456.00,1.2034
5455.00,1.1972
5454.00,1.1903
5453.00,1.1830
5452.00,1.1752
5451.00,1.1670
5450.00,1.1581
5449.00,1.1489
5448.00,1.1393
5447.00,1.1294
5446.00,1.1189
5445.00,1.1079
5444.00,1.0965
5443.00,1.0849
5442.00,1.0729
5441.00,1.0608
5440.00,1.0483
5439.00,1.0356
5438.00,1.0226
5437.00,1.0095
5436.00,0.9963
5435.00,0.9829
5434.00,0.9692
5433.00,0.9553
5432.00,0.9413
5431.00,0.9273
5430.00,0.9130
5429.00,0.8985
5428.00,0.8840
5427.00,0.8696
5426.00,0.8557
5425.00,0.8421
5424.00,0.8288
5423.00,0.8157
5422.00,0.8029
5421.00,0.7907
5420.00,0.7790
5419.00,0.7678
5418.00,0.7571
5417.00,0.7468
5416.00,0.7369
5415.00,0.7276
5414.00,0.7188
5413.00,0.7106
5412.00,0.7031
5411.00,0.6964
5410.00,0.6908
5409.00,0.6862
5408.00,0.6824
5407.00,0.6796
5406.00,0.6777
5405.00,0.6769
5404.00,0.6768
5403.00,0.6776
5402.00,0.6791
5401.00,0.6815
5400.00,0.6846
5399.00,0.6886
5398.00,0.6933
5397.00,0.6987
5396.00,0.7048
5395.00,0.7116
5394.00,0.7190
5393.00,0.7269
5392.00,0.7352
5391.00,0.7440
5390.00,0.7533
5389.00,0.7631
5388.00,0.7734
5387.00,0.7843
5386.00,0.7958
5385.00,0.8076
5384.00,0.8197
5383.00,0.8319
5382.00,0.8441
5381.00,0.8563
5380.00,0.8685
5379.00,0.8809
5378.00,0.8937
5377.00,0.9066
5376.00,0.9197
5375.00,0.9328
5374.00,0.9458
5373.00,0.9589
5372.00,0.9719
5371.00,0.9848
5370.00,0.9978
5369.00,1.0107
5368.00,1.0234
5367.00,1.0358
5366.00,1.0481
5365.00,1.0602
5364.00,1.0721
5363.00,1.0837
5362.00,1.0951
5361.00,1.1061
5360.00,1.1169
5359.00,1.1276
5358.00,1.1380
5357.00,1.1483
5356.00,1.1582
5355.00,1.1678
5354.00,1.1772
5353.00,1.1862
5352.00,1.1947
5351.00,1.2030
5350.00,1.2108
5349.00,1.2182
5348.00,1.2251
5347.00,1.2316
5346.00,1.2379
5345.00,1.2439
5344.00,1.2496
5343.00,1.2549
5342.00,1.2599
5341.00,1.2646
5340.00,1.2689
5339.00,1.2726
5338.00,1.2758
5337.00,1.2784
5336.00,1.2807
5335.00,1.2826
5334.00,1.2844
5333.00,1.2858
5332.00,1.2867
5331.00,1.2872
5330.00,1.2874
5329.00,1.2875
5328.00,1.2871
5327.00,1.2863
5326.00,1.2849
5325.00,1.2831
5324.00,1.2811
5323.00,1.2787
5322.00,1.2760
5321.00,1.2727
5320.00,1.2688
5319.00,1.2644
5318.00,1.2597
5317.00,1.2547
5316.00,1.2494
5315.00,1.2438
5314.00,1.2376
5313.00,1.2309
5312.00,1.2238
5311.00,1.2162
5310.00,1.2083
5309.00,1.2002
5308.00,1.1917
5307.00,1.1828
5306.00,1.1734
5305.00,1.1636
5304.00,1.1533
5303.00,1.1425
5302.00,1.1313
5301.00,1.1197
5300.00,1.1078
5299.00,1.0955
5298.00,1.0830
5297.00,1.0703
5296.00,1.0574
5295.00,1.0443
5294.00,1.0308
5293.00,1.0170
5292.00,1.0031
5291.00,0.9888
5290.00,0.9744
5289.00,0.9597
5288.00,0.9451
5287.00,0.9305
5286.00,0.9160
5285.00,0.9017
5284.00,0.8876
5283.00,0.8737
5282.00,0.8601
5281.00,0.8467
5280.00,0.8336
5279.00,0.8208
5278.00,0.8084
5277.00,0.7965
5276.00,0.7852
5275.00,0.7745
5274.00,0.7643
5273.00,0.7548
5272.00,0.7460
5271.00,0.7381
5270.00,0.7310
5269.00,0.7247
5268.00,0.7190
5267.00,0.7141
5266.00,0.7101
5265.00,0.7069
5264.00,0.7046
5263.00,0.7031
5262.00,0.7026
5261.00,0.7029
5260.00,0.7042
5259.00,0.7064
5258.00,0.7096
5257.00,0.7138
5256.00,0.7188
5255.00,0.7246
5254.00,0.7310
5253.00,0.7378
5252.00,0.7451
5251.00,0.7530
5250.00,0.7615
5249.00,0.7708
5248.00,0.7806
5247.00,0.7907
5246.00,0.8011
5245.00,0.8119
5244.00,0.8231
5243.00,0.8347
5242.00,0.8467
5241.00,0.8591
5240.00,0.8717
5239.00,0.8844
5238.00,0.8972
5237.00,0.9101
5236.00,0.9229
5235.00,0.9359
5234.00,0.9489
5233.00,0.9620
5232.00,0.9752
5231.00,0.9884
5230.00,1.0014
5229.00,1.0143
5228.00,1.0272
5227.00,1.0401
5226.00,1.0529
5225.00,1.0657
5224.00,1.0783
5223.00,1.0909
5222.00,1.1031
5221.00,1.1151
5220.00,1.1267
5219.00,1.1381
5218.00,1.1492
5217.00,1.1601
5216.00,1.1707
5215.00,1.1811
5214.00,1.1911
5213.00,1.2006
5212.00,1.2098
5211.00,1.2185
5210.00,1.2269
5209.00,1.2350
5208.00,1.2429
5207.00,1.2506
5206.00,1.2582
5205.00,1.2654
5204.00,1.2721
5203.00,1.2783
5202.00,1.2840
5201.00,1.2895
5200.00,1.2947
5199.00,1.2995
5198.00,1.3039
5197.00,1.3076
5196.00,1.3105
5195.00,1.3129
5194.00,1.3150
5193.00,1.3170
5192.00,1.3188
5191.00,1.3202
5190.00,1.3209
5189.00,1.3211
5188.00,1.3209
5187.00,1.3201
5186.00,1.3190
5185.00,1.3174
5184.00,1.3155
5183.00,1.3132
5182.00,1.3108
5181.00,1.3082
5180.00,1.3052
5179.00,1.3017
5178.00,1.2976
5177.00,1.2929
5176.00,1.2878
5175.00,1.2825
5174.00,1.2769
5173.00,1.2709
5172.00,1.2645
5171.00,1.2576
5170.00,1.2502
5169.00,1.2424
5168.00,1.2342
5167.00,1.2255
5166.00,1.2164
5165.00,1.2069
5164.00,1.1970
5163.00,1.1868
5162.00,1.1763
5161.00,1.1652
5160.00,1.1536
5159.00,1.1415
5158.00,1.1289
5157.00,1.1160
5156.00,1.1028
5155.00,1.0891
5154.00,1.0751
5153.00,1.0608
5152.00,1.0462
5151.00,1.0314
5150.00,1.0164
5149.00,1.0013
5148.00,0.9860
5147.00,0.9705
5146.00,0.9549
5145.00,0.9393
5144.00,0.9237
5143.00,0.9082
5142.00,0.8928
5141.00,0.8776
5140.00,0.8625
5139.00,0.8477
5138.00,0.8333
5137.00,0.8194
5136.00,0.8060
5135.00,0.7931
5134.00,0.7807
5133.00,0.7690
5132.00,0.7579
5131.00,0.7474
5130.00,0.7377
5129.00,0.7289
5128.00,0.7209
5127.00,0.7137
5126.00,0.7075
5125.00,0.7023
5124.00,0.6979
5123.00,0.6944
5122.00,0.6919
5121.00,0.6904
5120.00,0.6899
5119.00,0.6904
5118.00,0.6918
5117.00,0.6942
5116.00,0.6976
5115.00,0.7018
5114.00,0.7069
5113.00,0.7129
5112.00,0.7196
5111.00,0.7270
5110.00,0.7352
5109.00,0.7442
5108.00,0.7537
5107.00,0.7638
5106.00,0.7744
5105.00,0.7856
5104.00,0.7972
5103.00,0.8093
5102.00,0.8218
5101.00,0.8348
5100.00,0.8481
5099.00,0.8616
5098.00,0.8755
5097.00,0.8895
5096.00,0.9036
5095.00,0.9177
5094.00,0.9318
5093.00,0.9460
5092.00,0.9602
5091.00,0.9745
5090.00,0.9889
5089.00,1.0032
5088.00,1.0173
5087.00,1.0313
5086.00,1.0450
5085.00,1.0586
5084.00,1.0720
5083.00,1.0855
5082.00,1.0989
5081.00,1.1122
5080.00,1.1252
5079.00,1.1378
5078.00,1.1502
5077.00,1.1624
5076.00,1.1741
5075.00,1.1856
5074.00,1.1967
5073.00,1.2076
5072.00,1.2181
5071.00,1.2283
5070.00,1.2383
5069.00,1.2481
5068.00,1.2574
5067.00,1.2660
5066.00,1.2741
5065.00,1.2816
5064.00,1.2887
5063.00,1.2954
5062.00,1.3020
5061.00,1.3086
5060.00,1.3150
5059.00,1.3208
5058.00,1.3259
5057.00,1.3304
5056.00,1.3343
5055.00,1.3378
5054.00,1.3411
5053.00,1.3442
5052.00,1.3471
5051.00,1.3495
5050.00,1.3512
5049.00,1.3526
5048.00,1.3535
5047.00,1.3541
5046.00,1.3545
5045.00,1.3545
5044.00,1.3541
5043.00,1.3531
5042.00,1.3516
5041.00,1.3495
5040.00,1.3470
5039.00,1.3441
5038.00,1.3410
5037.00,1.3375
5036.00,1.3337
5035.00,1.3296
5034.00,1.3250
5033.00,1.3200
5032.00,1.3144
5031.00,1.3082
5030.00,1.3015
5029.00,1.2946
5028.00,1.2874
5027.00,1.2799
5026.00,1.2720
5025.00,1.2636
5024.00,1.2546
5023.00,1.2450
5022.00,1.2347
5021.00,1.2240
5020.00,1.2130
5019.00,1.2016
5018.00,1.1899
5017.00,1.1779
5016.00,1.1654
5015.00,1.1525
5014.00,1.1390
5013.00,1.1252
5012.00,1.1111
5011.00,1.0967
5010.00,1.0821
5009.00,1.0672
5008.00,1.0520
5007.00,1.0363
5006.00,1.0204
5005.00,1.0043
5004.00,0.9882
5003.00,0.9722
5002.00,0.9562
5001.00,0.9401
5000.00,0.9241
4999.00,0.9083
4998.00,0.8927
4997.00,0.8773
4996.00,0.8622
4995.00,0.8475
4994.00,0.8332
4993.00,0.8193
4992.00,0.8059
4991.00,0.7931
4990.00,0.7810
4989.00,0.7696
4988.00,0.7589
4987.00,0.7490
4986.00,0.7399
4985.00,0.7318
4984.00,0.7246
4983.00,0.7184
4982.00,0.7132
4981.00,0.7091
4980.00,0.7061
4979.00,0.7041
4978.00,0.7033
4977.00,0.7036
4976.00,0.7049
4975.00,0.7073
4974.00,0.7106
4973.00,0.7150
4972.00,0.7203
4971.00,0.7266
4970.00,0.7337
4969.00,0.7417
4968.00,0.7504
4967.00,0.7599
4966.00,0.7701
4965.00,0.7809
4964.00,0.7923
4963.00,0.8043
4962.00,0.8167
4961.00,0.8295
4960.00,0.8427
4959.00,0.8562
4958.00,0.8700
4957.00,0.8842
4956.00,0.8986
4955.00,0.9131
4954.00,0.9278
4953.00,0.9426
4952.00,0.9575
4951.00,0.9724
4950.00,0.9874
4949.00,1.0024
4948.00,1.0173
4947.00,1.0321
4946.00,1.0468
4945.00,1.0615
4944.00,1.0760
4943.00,1.0904
4942.00,1.1045
4941.00,1.1183
4940.00,1.1319
4939.00,1.1452
4938.00,1.1584
4937.00,1.1714
4936.00,1.1842
4935.00,1.1968
4934.00,1.2090
4933.00,1.2209
4932.00,1.2325
4931.00,1.2435
4930.00,1.2540
4929.00,1.2642
4928.00,1.2741
4927.00,1.2836
4926.00,1.2928
4925.00,1.3016
4924.00,1.3100
4923.00,1.3177
4922.00,1.3251
4921.00,1.3321
4920.00,1.3387
4919.00,1.3449
4918.00,1.3505
4917.00,1.3557
4916.00,1.3607
4915.00,1.3653
4914.00,1.3695
4913.00,1.3732
4912.00,1.3764
4911.00,1.3791
4910.00,1.3816
4909.00,1.3839
4908.00,1.3859
4907.00,1.3872
4906.00,1.3880
4905.00,1.3882
4904.00,1.3879
4903.00,1.3872
4902.00,1.3861
4901.00,1.3846
4900.00,1.3828
4899.00,1.3806
4898.00,1.3781
4897.00,1.3752
4896.00,1.3717
4895.00,1.3678
4894.00,1.3634
4893.00,1.3588
4892.00,1.3540
4891.00,1.3487
4890.00,1.3430
4889.00,1.3367
4888.00,1.3298
4887.00,1.3223
4886.00,1.3144
4885.00,1.3061
4884.00,1.2974
4883.00,1.2881
4882.00,1.2784
4881.00,1.2682
4880.00,1.2577
4879.00,1.2467
4878.00,1.2353
4877.00,1.2235
4876.00,1.2112
4875.00,1.1985
4874.00,1.1852
4873.00,1.1715
4872.00,1.1573
4871.00,1.1428
4870.00,1.1278
4869.00,1.1125
4868.00,1.0969
4867.00,1.0809
4866.00,1.0647
4865.00,1.0482
4864.00,1.0315
4863.00,1.0146
4862.00,0.9976
4861.00,0.9805
4860.00,0.9632
4859.00,0.9460
4858.00,0.9291
4857.00,0.9124
4856.00,0.8959
4855.00,0.8797
4854.00,0.8638
4853.00,0.8482
4852.00,0.8330
4851.00,0.8183
4850.00,0.8044
4849.00,0.7912
4848.00,0.7787
4847.00,0.7670
4846.00,0.7561
4845.00,0.7461
4844.00,0.7369
4843.00,0.7287
4842.00,0.7215
4841.00,0.7154
4840.00,0.7105
4839.00,0.7066
4838.00,0.7040
4837.00,0.7025
4836.00,0.7021
4835.00,0.7029
4834.00,0.7049
4833.00,0.7080
4832.00,0.7122
4831.00,0.7174
4830.00,0.7236
4829.00,0.7307
4828.00,0.7387
4827.00,0.7477
4826.00,0.7575
4825.00,0.7680
4824.00,0.7793
4823.00,0.7911
4822.00,0.8034
4821.00,0.8163
4820.00,0.8296
4819.00,0.8434
4818.00,0.8576
4817.00,0.8722
4816.00,0.8871
4815.00,0.9023
4814.00,0.9177
4813.00,0.9332
4812.00,0.9488
4811.00,0.9644
4810.00,0.9801
4809.00,0.9958
4808.00,1.0115
4807.00,1.0273
4806.00,1.0432
4805.00,1.0590
4804.00,1.0747
4803.00,1.0903
4802.00,1.1056
4801.00,1.1206
4800.00,1.1354
4799.00,1.1500
4798.00,1.1643
4797.00,1.1784
4796.00,1.1923
4795.00,1.2059
4794.00,1.2192
4793.00,1.2323
4792.00,1.2449
4791.00,1.2571
4790.00,1.2688
4789.00,1.2801
4788.00,1.2911
4787.00,1.3017
4786.00,1.3118
4785.00,1.3215
4784.00,1.3308
4783.00,1.3399
4782.00,1.3486
4781.00,1.3570
4780.00,1.3648
4779.00,1.3721
4778.00,1.3788
4777.00,1.3849
4776.00,1.3906
4775.00,1.3959
4774.00,1.4008
4773.00,1.4056
4772.00,1.4101
4771.00,1.4143
4770.00,1.4181
4769.00,1.4213
4768.00,1.4238
4767.00,1.4255
4766.00,1.4268
4765.00,1.4278
4764.00,1.4285
4763.00,1.4290
4762.00,1.4293
4761.00,1.4292
4760.00,1.4286
4759.00,1.4274
4758.00,1.4257
4757.00,1.4235
4756.00,1.4207
4755.00,1.4176
4754.00,1.4141
4753.00,1.4103
4752.00,1.4062
4751.00,1.4016
4750.00,1.3967
4749.00,1.3913
4748.00,1.3854
4747.00,1.3791
4746.00,1.3723
4745.00,1.3649
4744.00,1.3570
4743.00,1.3486
4742.00,1.3400
4741.00,1.3309
4740.00,1.3214
4739.00,1.3111
4738.00,1.3003
4737.00,1.2890
4736.00,1.2773
4735.00,1.2655
4734.00,1.2534
4733.00,1.2408
4732.00,1.2275
4731.00,1.2134
4730.00,1.1987
4729.00,1.1835
4728.00,1.1677
4727.00,1.1516
4726.00,1.1353
4725.00,1.1188
4724.00,1.1019
4723.00,1.0846
4722.00,1.0670
4721.00,1.0491
4720.00,1.0311
4719.00,1.0130
4718.00,0.9949
4717.00,0.9768
4716.00,0.9586
4715.00,0.9405
4714.00,0.9226
4713.00,0.9051
4712.00,0.8879
4711.00,0.8712
4710.00,0.8550
4709.00,0.8393
4708.00,0.8241
4707.00,0.8095
4706.00,0.7958
4705.00,0.7830
4704.00,0.7711
4703.00,0.7603
4702.00,0.7504
4701.00,0.7417
4700.00,0.7341
4699.00,0.7277
4698.00,0.7225
4697.00,0.7185
4696.00,0.7158
4695.00,0.7143
4694.00,0.7142
4693.00,0.7153
4692.00,0.7178
4691.00,0.7214
4690.00,0.7262
4689.00,0.7320
4688.00,0.7389
4687.00,0.7469
4686.00,0.7558
4685.00,0.7657
4684.00,0.7766
4683.00,0.7883
4682.00,0.8006
4681.00,0.8136
4680.00,0.8270
4679.00,0.8410
4678.00,0.8554
4677.00,0.8703
4676.00,0.8855
4675.00,0.9010
4674.00,0.9167
4673.00,0.9326
4672.00,0.9487
4671.00,0.9650
4670.00,0.9814
4669.00,0.9980
4668.00,1.0146
4667.00,1.0311
4666.00,1.0476
4665.00,1.0640
4664.00,1.0805
4663.00,1.0969
4662.00,1.1133
4661.00,1.1296
4660.00,1.1456
4659.00,1.1613
4658.00,1.1767
4657.00,1.1917
4656.00,1.2064
4655.00,1.2207
4654.00,1.2347
4653.00,1.2485
4652.00,1.2619
4651.00,1.2749
4650.00,1.2876
4649.00,1.3000
4648.00,1.3120
4647.00,1.3236
4646.00,1.3349
4645.00,1.3459
4644.00,1.3563
4643.00,1.3662
4642.00,1.3756
4641.00,1.3844
4640.00,1.3926
4639.00,1.4005
4638.00,1.4079
4637.00,1.4149
4636.00,1.4214
4635.00,1.4272
4634.00,1.4327
4633.00,1.4378
4632.00,1.4427
4631.00,1.4473
4630.00,1.4515
4629.00,1.4552
4628.00,1.4583
4627.00,1.4609
4626.00,1.4629
4625.00,1.4646
4624.00,1.4659
4623.00,1.4668
4622.00,1.4672
4621.00,1.4672
4620.00,1.4667
4619.00,1.4658
4618.00,1.4643
4617.00,1.4623
4616.00,1.4598
4615.00,1.4570
4614.00,1.4538
4613.00,1.4504
4612.00,1.4467
4611.00,1.4425
4610.00,1.4379
4609.00,1.4328
4608.00,1.4272
4607.00,1.4212
4606.00,1.4148
4605.00,1.4082
4604.00,1.4012
4603.00,1.3939
4602.00,1.3865
4601.00,1.3788
4600.00,1.3708
4599.00,1.3622
4598.00,1.3529
4597.00,1.3428
4596.00,1.3321
4595.00,1.3208
4594.00,1.3091
4593.00,1.2970
4592.00,1.2843
4591.00,1.2713
4590.00,1.2577
4589.00,1.2437
4588.00,1.2290
4587.00,1.2135
4586.00,1.1973
4585.00,1.1805
4584.00,1.1634
4583.00,1.1459
4582.00,1.1282
4581.00,1.1101
4580.00,1.0916
4579.00,1.0728
4578.00,1.0537
4577.00,1.0344
4576.00,1.0151
4575.00,0.9957
4574.00,0.9763
4573.00,0.9571
4572.00,0.9380
4571.00,0.9192
4570.00,0.9009
4569.00,0.8830
4568.00,0.8658
4567.00,0.8491
4566.00,0.8333
4565.00,0.8182
4564.00,0.8040
4563.00,0.7906
4562.00,0.7783
4561.00,0.7671
4560.00,0.7571
4559.00,0.7484
4558.00,0.7410
4557.00,0.7349
4556.00,0.7301
4555.00,0.7267
4554.00,0.7247
4553.00,0.7241
4552.00,0.7249
4551.00,0.7270
4550.00,0.7305
4549.00,0.7353
4548.00,0.7414
4547.00,0.7486
4546.00,0.7570
4545.00,0.7664
4544.00,0.7768
4543.00,0.7881
4542.00,0.8004
4541.00,0.8134
4540.00,0.8272
4539.00,0.8417
4538.00,0.8567
4537.00,0.8721
4536.00,0.8880
4535.00,0.9042
4534.00,0.9206
4533.00,0.9374
4532.00,0.9545
4531.00,0.9719
4530.00,0.9895
4529.00,1.0072
4528.00,1.0250
4527.00,1.0428
4526.00,1.0606
4525.00,1.0784
4524.00,1.0962
4523.00,1.1137
4522.00,1.1311
4521.00,1.1483
4520.00,1.1653
4519.00,1.1821
4518.00,1.1986
4517.00,1.2149
4516.00,1.2308
4515.00,1.2463
4514.00,1.2615
4513.00,1.2763
4512.00,1.2910
4511.00,1.3053
4510.00,1.3194
4509.00,1.3330
4508.00,1.3461
4507.00,1.3587
4506.00,1.3711
4505.00,1.3830
4504.00,1.3945
4503.00,1.4054
4502.00,1.4156
4501.00,1.4251
4500.00,1.4341
4499.00,1.4426
4498.00,1.4506
4497.00,1.4582
4496.00,1.4653
4495.00,1.4719
4494.00,1.4779
4493.00,1.4835
4492.00,1.4888
4491.00,1.4937
4490.00,1.4984
4489.00,1.5026
4488.00,1.5063
4487.00,1.5091
4486.00,1.5111
4485.00,1.5125
4484.00,1.5136
4483.00,1.5143
4482.00,1.5150
4481.00,1.5154
4480.00,1.5156
4479.00,1.5155
4478.00,1.5152
4477.00,1.5147
4476.00,1.5139
4475.00,1.5125
4474.00,1.5106
4473.00,1.5081
4472.00,1.5051
4471.00,1.5018
4470.00,1.4981
4469.00,1.4940
4468.00,1.4894
4467.00,1.4843
4466.00,1.4789
4465.00,1.4731
4464.00,1.4667
4463.00,1.4598
4462.00,1.4523
4461.00,1.4443
4460.00,1.4359
4459.00,1.4271
4458.00,1.4182
4457.00,1.4090
4456.00,1.3994
4455.00,1.3895
4454.00,1.3790
4453.00,1.3681
4452.00,1.3567
4451.00,1.3450
4450.00,1.3330
4449.00,1.3208
4448.00,1.3083
4447.00,1.2957
4446.00,1.2830
4445.00,1.2704
4444.00,1.2576
4443.00,1.2447
4442.00,1.2317
4441.00,1.2186
4440.00,1.2052
4439.00,1.1917
4438.00,1.1776
4437.00,1.1630
4436.00,1.1477
4435.00,1.1317
4434.00,1.1149
4433.00,1.0974
4432.00,1.0792
4431.00,1.0603
4430.00,1.0411
4429.00,1.0216
4428.00,1.0019
4427.00,0.9823
4426.00,0.9629
4425.00,0.9439
4424.00,0.9257
4423.00,0.9083
4422.00,0.8919
4421.00,0.8765
4420.00,0.8621
4419.00,0.8491
4418.00,0.8375
4417.00,0.8273
4416.00,0.8188
4415.00,0.8118
4414.00,0.8066
4413.00,0.8031
4412.00,0.8013
4411.00,0.8014
4410.00,0.8033
4409.00,0.8068
4408.00,0.8120
4407.00,0.8188
4406.00,0.8270
4405.00,0.8366
4404.00,0.8472
4403.00,0.8588
4402.00,0.8711
4401.00,0.8839
4400.00,0.8972
4399.00,0.9107
4398.00,0.9245
4397.00,0.9383
4396.00,0.9522
4395.00,0.9662
4394.00,0.9805
4393.00,0.9950
4392.00,1.0098
4391.00,1.0247
4390.00,1.0399
4389.00,1.0554
4388.00,1.0712
4387.00,1.0875
4386.00,1.1041
4385.00,1.1209
4384.00,1.1377
4383.00,1.1546
4382.00,1.1715
4381.00,1.1884
4380.00,1.2053
4379.00,1.2220
4378.00,1.2385
4377.00,1.2548
4376.00,1.2708
4375.00,1.2867
4374.00,1.3024
4373.00,1.3179
4372.00,1.3330
4371.00,1.3474
4370.00,1.3611
4369.00,1.3741
4368.00,1.3864
4367.00,1.3983
4366.00,1.4099
4365.00,1.4210
4364.00,1.4315
4363.00,1.4414
4362.00,1.4505
4361.00,1.4591
4360.00,1.4674
4359.00,1.4754
4358.00,1.4832
4357.00,1.4907
4356.00,1.4978
4355.00,1.5046
4354.00,1.5111
4353.00,1.5174
4352.00,1.5237
4351.00,1.5297
4350.00,1.5354
4349.00,1.5407
4348.00,1.5454
4347.00,1.5497
4346.00,1.5538
4345.00,1.5578
4344.00,1.5617
4343.00,1.5653
4342.00,1.5684
4341.00,1.5709
4340.00,1.5725
4339.00,1.5735
4338.00,1.5740
4337.00,1.5743
4336.00,1.5744
4335.00,1.5741
4334.00,1.5734
4333.00,1.5722
4332.00,1.5706
4331.00,1.5687
4330.00,1.5665
4329.00,1.5639
4328.00,1.5608
4327.00,1.5572
4326.00,1.5534
4325.00,1.5492
4324.00,1.5447
4323.00,1.5397
4322.00,1.5342
4321.00,1.5283
4320.00,1.5218
4319.00,1.5148
4318.00,1.5073
4317.00,1.4993
4316.00,1.4907
4315.00,1.4817
4314.00,1.4722
4313.00,1.4620
4312.00,1.4511
4311.00,1.4395
4310.00,1.4273
4309.00,1.4146
4308.00,1.4015
4307.00,1.3879
4306.00,1.3737
4305.00,1.3589
4304.00,1.3433
4303.00,1.3271
4302.00,1.3104
4301.00,1.2933
4300.00,1.2756
4299.00,1.2575
4298.00,1.2388
4297.00,1.2195
4296.00,1.1997
4295.00,1.1794
4294.00,1.1589
4293.00,1.1380
4292.00,1.1168
4291.00,1.0954
4290.00,1.0739
4289.00,1.0522
4288.00,1.0305
4287.00,1.0089
4286.00,0.9875
4285.00,0.9664
4284.00,0.9457
4283.00,0.9257
4282.00,0.9063
4281.00,0.8876
4280.00,0.8697
4279.00,0.8528
4278.00,0.8369
4277.00,0.8222
4276.00,0.8087
4275.00,0.7966
4274.00,0.7858
4273.00,0.7765
4272.00,0.7687
4271.00,0.7625
4270.00,0.7579
4269.00,0.7549
4268.00,0.7536
4267.00,0.7539
4266.00,0.7559
4265.00,0.7594
4264.00,0.7644
4263.00,0.7710
4262.00,0.7789
4261.00,0.7883
4260.00,0.7989
4259.00,0.8107
4258.00,0.8236
4257.00,0.8374
4256.00,0.8521
4255.00,0.8676
4254.00,0.8839
4253.00,0.9009
4252.00,0.9185
4251.00,0.9365
4250.00,0.9548
4249.00,0.9735
4248.00,0.9924
4247.00,1.0116
4246.00,1.0311
4245.00,1.0507
4244.00,1.0703
4243.00,1.0899
4242.00,1.1096
4241.00,1.1292
4240.00,1.1489
4239.00,1.1685
4238.00,1.1880
4237.00,1.2072
4236.00,1.2262
4235.00,1.2449
4234.00,1.2635
4233.00,1.2817
4232.00,1.2994
4231.00,1.3167
4230.00,1.3336
4229.00,1.3501
4228.00,1.3661
4227.00,1.3818
4226.00,1.3970
4225.00,1.4118
4224.00,1.4262
4223.00,1.4402
4222.00,1.4535
4221.00,1.4661
4220.00,1.4780
4219.00,1.4893
4218.00,1.5002
4217.00,1.5108
4216.00,1.5211
4215.00,1.5310
4214.00,1.5403
4213.00,1.5489
4212.00,1.5568
4211.00,1.5642
4210.00,1.5712
4209.00,1.5779
4208.00,1.5843
4207.00,1.5900
4206.00,1.5951
4205.00,1.5996
4204.00,1.6038
4203.00,1.6077
4202.00,1.6113
4201.00,1.6144
4200.00,1.6167
4199.00,1.6185
4198.00,1.6200
4197.00,1.6212
4196.00,1.6221
4195.00,1.6225
4194.00,1.6226
4193.00,1.6224
4192.00,1.6218
4191.00,1.6206
4190.00,1.6188
4189.00,1.6165
4188.00,1.6137
4187.00,1.6106
4186.00,1.6070
4185.00,1.6030
4184.00,1.5985
4183.00,1.5935
4182.00,1.5881
4181.00,1.5823
4180.00,1.5762
4179.00,1.5697
4178.00,1.5627
4177.00,1.5551
4176.00,1.5468
4175.00,1.5379
4174.00,1.5283
4173.00,1.5181
4172.00,1.5074
4171.00,1.4961
4170.00,1.4844
4169.00,1.4723
4168.00,1.4599
4167.00,1.4470
4166.00,1.4335
4165.00,1.4193
4164.00,1.4044
4163.00,1.3889
4162.00,1.3728
4161.00,1.3561
4160.00,1.3386
4159.00,1.3205
4158.00,1.3018
4157.00,1.2826
4156.00,1.2628
4155.00,1.2425
4154.00,1.2216
4153.00,1.2001
4152.00,1.1781
4151.00,1.1557
4150.00,1.1331
4149.00,1.1104
4148.00,1.0876
4147.00,1.0646
4146.00,1.0417
4145.00,1.0190
4144.00,0.9965
4143.00,0.9744
4142.00,0.9529
4141.00,0.9320
4140.00,0.9119
4139.00,0.8928
4138.00,0.8747
4137.00,0.8577
4136.00,0.8419
4135.00,0.8274
4134.00,0.8144
4133.00,0.8028
4132.00,0.7929
4131.00,0.7847
4130.00,0.7783
4129.00,0.7736
4128.00,0.7707
4127.00,0.7696
4126.00,0.7703
4125.00,0.7729
4124.00,0.7771
4123.00,0.7831
4122.00,0.7907
4121.00,0.7998
4120.00,0.8104
4119.00,0.8224
4118.00,0.8356
4117.00,0.8499
4116.00,0.8652
4115.00,0.8814
4114.00,0.8984
4113.00,0.9161
4112.00,0.9345
4111.00,0.9534
4110.00,0.9728
4109.00,0.9925
4108.00,1.0126
4107.00,1.0330
4106.00,1.0536
4105.00,1.0744
4104.00,1.0953
4103.00,1.1162
4102.00,1.1371
4101.00,1.1580
4100.00,1.1789
4099.00,1.1995
4098.00,1.2200
4097.00,1.2402
4096.00,1.2602
4095.00,1.2799
4094.00,1.2994
4093.00,1.3186
4092.00,1.3373
4091.00,1.3556
4090.00,1.3735
4089.00,1.3909
4088.00,1.4080
4087.00,1.4248
4086.00,1.4411
4085.00,1.4568
4084.00,1.4719
4083.00,1.4864
4082.00,1.5005
4081.00,1.5139
4080.00,1.5267
4079.00,1.5389
4078.00,1.5505
4077.00,1.5618
4076.00,1.5726
4075.00,1.5828
4074.00,1.5924
4073.00,1.6015
4072.00,1.6101
4071.00,1.6181
4070.00,1.6255
4069.00,1.6326
4068.00,1.6393
4067.00,1.6456
4066.00,1.6515
4065.00,1.6567
4064.00,1.6613
4063.00,1.6654
4062.00,1.6691
4061.00,1.6725
4060.00,1.6756
4059.00,1.6782
4058.00,1.6800
4057.00,1.6812
4056.00,1.6821
4055.00,1.6829
4054.00,1.6837
4053.00,1.6841
4052.00,1.6840
4051.00,1.6833
4050.00,1.6820
4049.00,1.6800
4048.00,1.6775
4047.00,1.6743
4046.00,1.6708
4045.00,1.6671
4044.00,1.6631
4043.00,1.6588
4042.00,1.6540
4041.00,1.6487
4040.00,1.6430
4039.00,1.6370
4038.00,1.6307
4037.00,1.6242
4036.00,1.6172
4035.00,1.6099
4034.00,1.6020
4033.00,1.5936
4032.00,1.5845
4031.00,1.5749
4030.00,1.5647
4029.00,1.5542
4028.00,1.5433
4027.00,1.5319
4026.00,1.5197
4025.00,1.5067
4024.00,1.4929
4023.00,1.4785
4022.00,1.4634
4021.00,1.4477
4020.00,1.4313
4019.00,1.4141
4018.00,1.3961
4017.00,1.3774
4016.00,1.3579
4015.00,1.3377
4014.00,1.3170
4013.00,1.2956
4012.00,1.2736
4011.00,1.2509
4010.00,1.2275
4009.00,1.2037
4008.00,1.1795
4007.00,1.1552
4006.00,1.1307
4005.00,1.1061
4004.00,1.0815
4003.00,1.0571
4002.00,1.0329
4001.00,1.0093
4000.00,0.9863
3999.00,0.9641
3998.00,0.9429
3997.00,0.9227
3996.00,0.9037
3995.00,0.8859
3994.00,0.8696
3993.00,0.8550
3992.00,0.8422
3991.00,0.8311
3990.00,0.8221
3989.00,0.8150
3988.00,0.8099
3987.00,0.8069
3986.00,0.8061
3985.00,0.8073
3984.00,0.8106
3983.00,0.8159
3982.00,0.8230
3981.00,0.8318
3980.00,0.8420
3979.00,0.8535
3978.00,0.8662
3977.00,0.8798
3976.00,0.8941
3975.00,0.9091
3974.00,0.9245
3973.00,0.9403
3972.00,0.9566
3971.00,0.9733
3970.00,0.9906
3969.00,1.0083
3968.00,1.0265
3967.00,1.0451
3966.00,1.0641
3965.00,1.0836
3964.00,1.1034
3963.00,1.1237
3962.00,1.1443
3961.00,1.1652
3960.00,1.1862
3959.00,1.2074
3958.00,1.2285
3957.00,1.2495
3956.00,1.2702
3955.00,1.2907
3954.00,1.3109
3953.00,1.3308
3952.00,1.3504
3951.00,1.3697
3950.00,1.3888
3949.00,1.4078
3948.00,1.4266
3947.00,1.4449
3946.00,1.4626
3945.00,1.4797
3944.00,1.4962
3943.00,1.5124
3942.00,1.5283
3941.00,1.5438
3940.00,1.5585
3939.00,1.5725
3938.00,1.5855
3937.00,1.5979
3936.00,1.6097
3935.00,1.6210
3934.00,1.6317
3933.00,1.6419
3932.00,1.6517
3931.00,1.6609
3930.00,1.6693
3929.00,1.6771
3928.00,1.6846
3927.00,1.6920
3926.00,1.6992
3925.00,1.7058
3924.00,1.7116
3923.00,1.7165
3922.00,1.7206
3921.00,1.7240
3920.00,1.7271
3919.00,1.7302
3918.00,1.7333
3917.00,1.7364
3916.00,1.7394
3915.00,1.7423
3914.00,1.7447
3913.00,1.7464
3912.00,1.7473
3911.00,1.7473
3910.00,1.7461
3909.00,1.7438
3908.00,1.7407
3907.00,1.7372
3906.00,1.7332
3905.00,1.7287
3904.00,1.7236
3903.00,1.7184
3902.00,1.7135
3901.00,1.7092
3900.00,1.7055
3899.00,1.7020
3898.00,1.6981
3897.00,1.6930
3896.00,1.6866
3895.00,1.6791
3894.00,1.6709
3893.00,1.6622
3892.00,1.6527
3891.00,1.6424
3890.00,1.6313
3889.00,1.6199
3888.00,1.6087
3887.00,1.5971
3886.00,1.5849
3885.00,1.5719
3884.00,1.5584
3883.00,1.5445
3882.00,1.5297
3881.00,1.5138
3880.00,1.4969
3879.00,1.4797
3878.00,1.4625
3877.00,1.4452
3876.00,1.4268
3875.00,1.4067
3874.00,1.3849
3873.00,1.3623
3872.00,1.3393
3871.00,1.3153
3870.00,1.2896
3869.00,1.2632
3868.00,1.2378
3867.00,1.2133
3866.00,1.1887
3865.00,1.1630
3864.00,1.1365
3863.00,1.1099
3862.00,1.0836
3861.00,1.0576
3860.00,1.0315
3859.00,1.0049
3858.00,0.9779
3857.00,0.9515
3856.00,0.9271
3855.00,0.9047
3854.00,0.8827
3853.00,0.8609
3852.00,0.8413
3851.00,0.8255
3850.00,0.8133
3849.00,0.8041
3848.00,0.7972
3847.00,0.7921
3846.00,0.7886
3845.00,0.7865
3844.00,0.7858
3843.00,0.7864
3842.00,0.7884
3841.00,0.7922
3840.00,0.7982
3839.00,0.8071
3838.00,0.8191
3837.00,0.8337
3836.00,0.8500
3835.00,0.8672
3834.00,0.8855
3833.00,0.9052
3832.00,0.9264
3831.00,0.9488
3830.00,0.9718
3829.00,0.9948
3828.00,1.0175
3827.00,1.0399
3826.00,1.0619
3825.00,1.0832
3824.00,1.1040
3823.00,1.1251
3822.00,1.1476
3821.00,1.1724
3820.00,1.1986
3819.00,1.2242
3818.00,1.2482
3817.00,1.2714
3816.00,1.2961
3815.00,1.3231
3814.00,1.3507
3813.00,1.3764
3812.00,1.3991
3811.00,1.4188
3810.00,1.4369
3809.00,1.4543
3808.00,1.4720
3807.00,1.4905
3806.00,1.5096
3805.00,1.5281
3804.00,1.5452
3803.00,1.5610
3802.00,1.5769
3801.00,1.5940
3800.00,1.6119
3799.00,1.6289
3798.00,1.6442
3797.00,1.6581
3796.00,1.6711
3795.00,1.6837
3794.00,1.6959
3793.00,1.7075
3792.00,1.7183
3791.00,1.7282
3790.00,1.7372
3789.00,1.7453
3788.00,1.7528
3787.00,1.7599
3786.00,1.7668
3785.00,1.7730
3784.00,1.7786
3783.00,1.7838
3782.00,1.7887
3781.00,1.7932
3780.00,1.7971
3779.00,1.8004
3778.00,1.8036
3777.00,1.8067
3776.00,1.8095
3775.00,1.8114
3774.00,1.8123
3773.00,1.8124
3772.00,1.8118
3771.00,1.8106
3770.00,1.8093
3769.00,1.8082
3768.00,1.8071
3767.00,1.8057
3766.00,1.8035
3765.00,1.8007
3764.00,1.7974
3763.00,1.7939
3762.00,1.7899
3761.00,1.7848
3760.00,1.7789
3759.00,1.7725
3758.00,1.7657
3757.00,1.7580
3756.00,1.7492
3755.00,1.7394
3754.00,1.7289
3753.00,1.7180
3752.00,1.7065
3751.00,1.6945
3750.00,1.6817
3749.00,1.6681
3748.00,1.6541
3747.00,1.6407
3746.00,1.6282
3745.00,1.6159
3744.00,1.6033
3743.00,1.5907
3742.00,1.5777
3741.00,1.5639
3740.00,1.5485
3739.00,1.5320
3738.00,1.5145
3737.00,1.4952
3736.00,1.4735
3735.00,1.4504
3734.00,1.4269
3733.00,1.4035
3732.00,1.3798
3731.00,1.3558
3730.00,1.3317
3729.00,1.3074
3728.00,1.2820
3727.00,1.2552
3726.00,1.2272
3725.00,1.1986
3724.00,1.1697
3723.00,1.1405
3722.00,1.1114
3721.00,1.0828
3720.00,1.0552
3719.00,1.0287
3718.00,1.0030
3717.00,0.9781
3716.00,0.9546
3715.00,0.9332
3714.00,0.9142
3713.00,0.8972
3712.00,0.8817
3711.00,0.8679
3710.00,0.8568
3709.00,0.8490
3708.00,0.8446
3707.00,0.8432
3706.00,0.8446
3705.00,0.8485
3704.00,0.8549
3703.00,0.8640
3702.00,0.8756
3701.00,0.8896
3700.00,0.9056
3699.00,0.9232
3698.00,0.9423
3697.00,0.9626
3696.00,0.9840
3695.00,1.0058
3694.00,1.0278
3693.00,1.0498
3692.00,1.0723
3691.00,1.0958
3690.00,1.1209
3689.00,1.1489
3688.00,1.1800
3687.00,1.2127
3686.00,1.2443
3685.00,1.2734
3684.00,1.3003
3683.00,1.3262
3682.00,1.3513
3681.00,1.3753
3680.00,1.3975
3679.00,1.4179
3678.00,1.4375
3677.00,1.4579
3676.00,1.4800
3675.00,1.5045
3674.00,1.5296
3673.00,1.5532
3672.00,1.5746
3671.00,1.5949
3670.00,1.6158
3669.00,1.6374
3668.00,1.6590
3667.00,1.6791
3666.00,1.6974
3665.00,1.7140
3664.00,1.7292
3663.00,1.7432
3662.00,1.7561
3661.00,1.7680
3660.00,1.7788
3659.00,1.7889
3658.00,1.7987
3657.00,1.8084
3656.00,1.8180
3655.00,1.8269
3654.00,1.8345
3653.00,1.8407
3652.00,1.8462
3651.00,1.8518
3650.00,1.8579
3649.00,1.8651
3648.00,1.8733
3647.00,1.8822
3646.00,1.8910
3645.00,1.8990
3644.00,1.9058
3643.00,1.9112
3642.00,1.9158
3641.00,1.9201
3640.00,1.9243
3639.00,1.9278
3638.00,1.9304
3637.00,1.9323
3636.00,1.9338
3635.00,1.9347
3634.00,1.9343
3633.00,1.9326
3632.00,1.9302
3631.00,1.9285
3630.00,1.9284
3629.00,1.9296
3628.00,1.9313
3627.00,1.9328
3626.00,1.9333
3625.00,1.9325
3624.00,1.9305
3623.00,1.9275
3622.00,1.9240
3621.00,1.9205
3620.00,1.9168
3619.00,1.9127
3618.00,1.9082
3617.00,1.9034
3616.00,1.8984
3615.00,1.8929
3614.00,1.8866
3613.00,1.8799
3612.00,1.8733
3611.00,1.8670
3610.00,1.8604
3609.00,1.8531
3608.00,1.8449
3607.00,1.8362
3606.00,1.8271
3605.00,1.8175
3604.00,1.8075
3603.00,1.7970
3602.00,1.7860
3601.00,1.7743
3600.00,1.7617
3599.00,1.7482
3598.00,1.7339
3597.00,1.7192
3596.00,1.7040
3595.00,1.6882
3594.00,1.6715
3593.00,1.6541
3592.00,1.6360
3591.00,1.6176
3590.00,1.5989
3589.00,1.5796
3588.00,1.5594
3587.00,1.5386
3586.00,1.5178
3585.00,1.4974
3584.00,1.4774
3583.00,1.4574
3582.00,1.4373
3581.00,1.4169
3580.00,1.3962
3579.00,1.3753
3578.00,1.3544
3577.00,1.3338
3576.00,1.3136
3575.00,1.2941
3574.00,1.2753
3573.00,1.2573
3572.00,1.2401
3571.00,1.2240
3570.00,1.2095
3569.00,1.1967
3568.00,1.1857
3567.00,1.1761
3566.00,1.1681
3565.00,1.1620
3564.00,1.1579
3563.00,1.1557
3562.00,1.1554
3561.00,1.1568
3560.00,1.1599
3559.00,1.1643
3558.00,1.1700
3557.00,1.1769
3556.00,1.1851
3555.00,1.1946
3554.00,1.2054
3553.00,1.2172
3552.00,1.2298
3551.00,1.2430
3550.00,1.2567
3549.00,1.2708
3548.00,1.2857
3547.00,1.3013
3546.00,1.3176
3545.00,1.3343
3544.00,1.3513
3543.00,1.3682
3542.00,1.3851
3541.00,1.4019
3540.00,1.4187
3539.00,1.4356
3538.00,1.4526
3537.00,1.4694
3536.00,1.4862
3535.00,1.5030
3534.00,1.5198
3533.00,1.5365
3532.00,1.5533
3531.00,1.5698
3530.00,1.5861
3529.00,1.6020
3528.00,1.6177
3527.00,1.6334
3526.00,1.6492
3525.00,1.6650
3524.00,1.6806
3523.00,1.6959
3522.00,1.7110
3521.00,1.7256
3520.00,1.7399
3519.00,1.7540
3518.00,1.7677
3517.00,1.7812
3516.00,1.7942
3515.00,1.8067
3514.00,1.8188
3513.00,1.8306
3512.00,1.8423
3511.00,1.8535
3510.00,1.8641
3509.00,1.8742
3508.00,1.8838
3507.00,1.8929
3506.00,1.9017
3505.00,1.9100
3504.00,1.9178
3503.00,1.9251
3502.00,1.9318
3501.00,1.9380
3500.00,1.9440
3499.00,1.9499
3498.00,1.9556
3497.00,1.9609
3496.00,1.9655
3495.00,1.9695
3494.00,1.9729
3493.00,1.9761
3492.00,1.9791
3491.00,1.9818
3490.00,1.9839
3489.00,1.9851
3488.00,1.9855
3487.00,1.9854
3486.00,1.9851
3485.00,1.9848
3484.00,1.9844
3483.00,1.9837
3482.00,1.9830
3481.00,1.9822
3480.00,1.9809
3479.00,1.9784
3478.00,1.9748
3477.00,1.9705
3476.00,1.9660
3475.00,1.9616
3474.00,1.9569
3473.00,1.9520
3472.00,1.9471
3471.00,1.9419
3470.00,1.9363
3469.00,1.9298
3468.00,1.9223
3467.00,1.9139
3466.00,1.9050
3465.00,1.8959
3464.00,1.8868
3463.00,1.8772
3462.00,1.8668
3461.00,1.8554
3460.00,1.8434
3459.00,1.8310
3458.00,1.8181
3457.00,1.8045
3456.00,1.7901
3455.00,1.7751
3454.00,1.7596
3453.00,1.7435
3452.00,1.7269
3451.00,1.7095
3450.00,1.6914
3449.00,1.6725
3448.00,1.6525
3447.00,1.6316
3446.00,1.6101
3445.00,1.5881
3444.00,1.5656
3443.00,1.5424
3442.00,1.5184
3441.00,1.4936
3440.00,1.4682
3439.00,1.4424
3438.00,1.4163
3437.00,1.3900
3436.00,1.3634
3435.00,1.3370
3434.00,1.3107
3433.00,1.2847
3432.00,1.2593
3431.00,1.2345
3430.00,1.2105
3429.00,1.1876
3428.00,1.1660
3427.00,1.1458
3426.00,1.1273
3425.00,1.1106
3424.00,1.0959
3423.00,1.0833
3422.00,1.0729
3421.00,1.0646
3420.00,1.0587
3419.00,1.0552
3418.00,1.0541
3417.00,1.0556
3416.00,1.0595
3415.00,1.0658
3414.00,1.0742
3413.00,1.0847
3412.00,1.0969
3411.00,1.1109
3410.00,1.1264
3409.00,1.1433
3408.00,1.1615
3407.00,1.1806
3406.00,1.2005
3405.00,1.2211
3404.00,1.2422
3403.00,1.2637
3402.00,1.2856
3401.00,1.3079
3400.00,1.3305
3399.00,1.3533
3398.00,1.3761
3397.00,1.3990
3396.00,1.4219
3395.00,1.4448
3394.00,1.4677
3393.00,1.4904
3392.00,1.5131
3391.00,1.5356
3390.00,1.5581
3389.00,1.5803
3388.00,1.6022
3387.00,1.6236
3386.00,1.6443
3385.00,1.6644
3384.00,1.6838
3383.00,1.7027
3382.00,1.7216
3381.00,1.7403
3380.00,1.7588
3379.00,1.7767
3378.00,1.7934
3377.00,1.8092
3376.00,1.8242
3375.00,1.8392
3374.00,1.8543
3373.00,1.8689
3372.00,1.8824
3371.00,1.8948
3370.00,1.9062
3369.00,1.9171
3368.00,1.9278
3367.00,1.9382
3366.00,1.9483
3365.00,1.9582
3364.00,1.9676
3363.00,1.9765
3362.00,1.9846
3361.00,1.9917
3360.00,1.9978
3359.00,2.0030
3358.00,2.0076
3357.00,2.0123
3356.00,2.0174
3355.00,2.0229
3354.00,2.0283
3353.00,2.0327
3352.00,2.0360
3351.00,2.0382
3350.00,2.0399
3349.00,2.0414
3348.00,2.0430
3347.00,2.0442
3346.00,2.0449
3345.00,2.0449
3344.00,2.0445
3343.00,2.0438
3342.00,2.0426
3341.00,2.0409
3340.00,2.0387
3339.00,2.0361
3338.00,2.0333
3337.00,2.0302
3336.00,2.0268
3335.00,2.0227
3334.00,2.0180
3333.00,2.0128
3332.00,2.0072
3331.00,2.0010
3330.00,1.9944
3329.00,1.9873
3328.00,1.9798
3327.00,1.9719
3326.00,1.9637
3325.00,1.9552
3324.00,1.9465
3323.00,1.9373
3322.00,1.9275
3321.00,1.9168
3320.00,1.9053
3319.00,1.8932
3318.00,1.8803
3317.00,1.8664
3316.00,1.8517
3315.00,1.8363
3314.00,1.8205
3313.00,1.8045
3312.00,1.7880
3311.00,1.7706
3310.00,1.7523
3309.00,1.7331
3308.00,1.7130
3307.00,1.6923
3306.00,1.6710
3305.00,1.6491
3304.00,1.6265
3303.00,1.6034
3302.00,1.5797
3301.00,1.5553
3300.00,1.5303
3299.00,1.5045
3298.00,1.4781
3297.00,1.4513
3296.00,1.4243
3295.00,1.3972
3294.00,1.3702
3293.00,1.3435
3292.00,1.3171
3291.00,1.2913
3290.00,1.2662
3289.00,1.2422
3288.00,1.2192
3287.00,1.1976
3286.00,1.1775
3285.00,1.1591
3284.00,1.1426
3283.00,1.1281
3282.00,1.1158
3281.00,1.1057
3280.00,1.0980
3279.00,1.0928
3278.00,1.0900
3277.00,1.0897
3276.00,1.0919
3275.00,1.0966
3274.00,1.1036
3273.00,1.1128
3272.00,1.1240
3271.00,1.1373
3270.00,1.1523
3269.00,1.1690
3268.00,1.1871
3267.00,1.2066
3266.00,1.2274
3265.00,1.2492
3264.00,1.2718
3263.00,1.2950
3262.00,1.3188
3261.00,1.3431
3260.00,1.3679
3259.00,1.3932
3258.00,1.4186
3257.00,1.4440
3256.00,1.4692
3255.00,1.4943
3254.00,1.5193
3253.00,1.5444
3252.00,1.5694
3251.00,1.5940
3250.00,1.6181
3249.00,1.6417
3248.00,1.6648
3247.00,1.6873
3246.00,1.7091
3245.00,1.7304
3244.00,1.7513
3243.00,1.7718
3242.00,1.7917
3241.00,1.8108
3240.00,1.8290
3239.00,1.8464
3238.00,1.8631
3237.00,1.8795
3236.00,1.8954
3235.00,1.9109
3234.00,1.9257
3233.00,1.9398
3232.00,1.9532
3231.00,1.9658
3230.00,1.9780
3229.00,1.9895
3228.00,2.0003
3227.00,2.0105
3226.00,2.0203
3225.00,2.0298
3224.00,2.0389
3223.00,2.0474
3222.00,2.0552
3221.00,2.0624
3220.00,2.0692
3219.00,2.0759
3218.00,2.0823
3217.00,2.0882
3216.00,2.0933
3215.00,2.0975
3214.00,2.1013
3213.00,2.1048
3212.00,2.1083
3211.00,2.1115
3210.00,2.1143
3209.00,2.1164
3208.00,2.1180
3207.00,2.1196
3206.00,2.1212
3205.00,2.1227
3204.00,2.1237
3203.00,2.1239
3202.00,2.1232
3201.00,2.1218
3200.00,2.1201
3199.00,2.1184
3198.00,2.1165
3197.00,2.1136
3196.00,2.1095
3195.00,2.1044
3194.00,2.0989
3193.00,2.0932
3192.00,2.0870
3191.00,2.0800
3190.00,2.0725
3189.00,2.0648
3188.00,2.0568
3187.00,2.0484
3186.00,2.0395
3185.00,2.0303
3184.00,2.0206
3183.00,2.0104
3182.00,1.9995
3181.00,1.9880
3180.00,1.9758
3179.00,1.9627
3178.00,1.9487
3177.00,1.9338
3176.00,1.9181
3175.00,1.9021
3174.00,1.8862
3173.00,1.8707
3172.00,1.8562
3171.00,1.8432
3170.00,1.8324
3169.00,1.8250
3168.00,1.8218
3167.00,1.8229
3166.00,1.8274
3165.00,1.8327
3164.00,1.8357
3163.00,1.8331
3162.00,1.8227
3161.00,1.8040
3160.00,1.7784
3159.00,1.7480
3158.00,1.7148
3157.00,1.6801
3156.00,1.6450
3155.00,1.6101
3154.00,1.5756
3153.00,1.5418
3152.00,1.5087
3151.00,1.4762
3150.00,1.4449
3149.00,1.4150
3148.00,1.3866
3147.00,1.3598
3146.00,1.3344
3145.00,1.3106
3144.00,1.2886
3143.00,1.2685
3142.00,1.2508
3141.00,1.2355
3140.00,1.2228
3139.00,1.2129
3138.00,1.2057
3137.00,1.2013
3136.00,1.1996
3135.00,1.2007
3134.00,1.2045
3133.00,1.2108
3132.00,1.2196
3131.00,1.2306
3130.00,1.2437
3129.00,1.2588
3128.00,1.2757
3127.00,1.2941
3126.00,1.3138
3125.00,1.3347
3124.00,1.3567
3123.00,1.3797
3122.00,1.4036
3121.00,1.4281
3120.00,1.4531
3119.00,1.4785
3118.00,1.5042
3117.00,1.5301
3116.00,1.5559
3115.00,1.5815
3114.00,1.6067
3113.00,1.6315
3112.00,1.6559
3111.00,1.6800
3110.00,1.7038
3109.00,1.7272
3108.00,1.7504
3107.00,1.7733
3106.00,1.7956
3105.00,1.8174
3104.00,1.8384
3103.00,1.8590
3102.00,1.8792
3101.00,1.8989
3100.00,1.9175
3099.00,1.9349
3098.00,1.9515
3097.00,1.9675
3096.00,1.9832
3095.00,1.9984
3094.00,2.0130
3093.00,2.0274
3092.00,2.0415
3091.00,2.0550
3090.00,2.0676
3089.00,2.0790
3088.00,2.0896
3087.00,2.0996
3086.00,2.1095
3085.00,2.1190
3084.00,2.1280
3083.00,2.1365
3082.00,2.1445
3081.00,2.1520
3080.00,2.1590
3079.00,2.1654
3078.00,2.1717
3077.00,2.1781
3076.00,2.1843
3075.00,2.1897
3074.00,2.1939
3073.00,2.1969
3072.00,2.1993
3071.00,2.2019
3070.00,2.2051
3069.00,2.2083
3068.00,2.2107
3067.00,2.2122
3066.00,2.2127
3065.00,2.2126
3064.00,2.2119
3063.00,2.2108
3062.00,2.2097
3061.00,2.2086
3060.00,2.2073
3059.00,2.2055
3058.00,2.2032
3057.00,2.2004
3056.00,2.1972
3055.00,2.1936
3054.00,2.1899
3053.00,2.1859
3052.00,2.1815
3051.00,2.1766
3050.00,2.1708
3049.00,2.1643
3048.00,2.1568
3047.00,2.1487
3046.00,2.1400
3045.00,2.1308
3044.00,2.1211
3043.00,2.1110
3042.00,2.1008
3041.00,2.0905
3040.00,2.0799
3039.00,2.0684
3038.00,2.0562
3037.00,2.0435
3036.00,2.0302
3035.00,2.0163
3034.00,2.0018
3033.00,1.9871
3032.00,1.9722
3031.00,1.9569
3030.00,1.9409
3029.00,1.9244
3028.00,1.9076
3027.00,1.8909
3026.00,1.8743
3025.00,1.8580
3024.00,1.8419
3023.00,1.8263
3022.00,1.8111
3021.00,1.7965
3020.00,1.7828
3019.00,1.7703
3018.00,1.7592
3017.00,1.7499
3016.00,1.7425
3015.00,1.7371
3014.00,1.7336
3013.00,1.7320
3012.00,1.7323
3011.00,1.7344
3010.00,1.7378
3009.00,1.7424
3008.00,1.7478
3007.00,1.7537
3006.00,1.7598
3005.00,1.7655
3004.00,1.7701
3003.00,1.7729
3002.00,1.7734
3001.00,1.7713
3000.00,1.7669
2999.00,1.7604
2998.00,1.7522
2997.00,1.7426
2996.00,1.7319
2995.00,1.7207
2994.00,1.7098
2993.00,1.7001
2992.00,1.6920
2991.00,1.6859
2990.00,1.6821
2989.00,1.6810
2988.00,1.6828
2987.00,1.6877
2986.00,1.6957
2985.00,1.7068
2984.00,1.7206
2983.00,1.7371
2982.00,1.7559
2981.00,1.7770
2980.00,1.8002
2979.00,1.8251
2978.00,1.8514
2977.00,1.8786
2976.00,1.9065
2975.00,1.9346
2974.00,1.9626
2973.00,1.9903
2972.00,2.0177
2971.00,2.0447
2970.00,2.0711
2969.00,2.0967
2968.00,2.1213
2967.00,2.1450
2966.00,2.1673
2965.00,2.1880
2964.00,2.2072
2963.00,2.2255
2962.00,2.2429
2961.00,2.2594
2960.00,2.2748
2959.00,2.2896
2958.00,2.3050
2957.00,2.3217
2956.00,2.3395
2955.00,2.3579
2954.00,2.3763
2953.00,2.3943
2952.00,2.4118
2951.00,2.4288
2950.00,2.4457
2949.00,2.4628
2948.00,2.4799
2947.00,2.4962
2946.00,2.5101
2945.00,2.5192
2944.00,2.5212
2943.00,2.5151
2942.00,2.5021
2941.00,2.4843
2940.00,2.4645
2939.00,2.4446
2938.00,2.4259
2937.00,2.4087
2936.00,2.3928
2935.00,2.3781
2934.00,2.3649
2933.00,2.3536
2932.00,2.3442
2931.00,2.3364
2930.00,2.3302
2929.00,2.3260
2928.00,2.3238
2927.00,2.3229
2926.00,2.3223
2925.00,2.3214
2924.00,2.3206
2923.00,2.3208
2922.00,2.3225
2921.00,2.3251
2920.00,2.3275
2919.00,2.3294
2918.00,2.3314
2917.00,2.3342
2916.00,2.3375
2915.00,2.3404
2914.00,2.3423
2913.00,2.3434
2912.00,2.3441
2911.00,2.3451
2910.00,2.3464
2909.00,2.3481
2908.00,2.3492
2907.00,2.3491
2906.00,2.3479
2905.00,2.3459
2904.00,2.3437
2903.00,2.3414
2902.00,2.3389
2901.00,2.3362
2900.00,2.3334
2899.00,2.3302
2898.00,2.3259
2897.00,2.3202
2896.00,2.3136
2895.00,2.3069
2894.00,2.3004
2893.00,2.2938
2892.00,2.2867
2891.00,2.2790
2890.00,2.2708
2889.00,2.2623
2888.00,2.2534
2887.00,2.2440
2886.00,2.2340
2885.00,2.2231
2884.00,2.2116
2883.00,2.1997
2882.00,2.1878
2881.00,2.1762
2880.00,2.1649
2879.00,2.1542
2878.00,2.1443
2877.00,2.1353
2876.00,2.1275
2875.00,2.1209
2874.00,2.1155
2873.00,2.1111
2872.00,2.1074
2871.00,2.1043
2870.00,2.1016
2869.00,2.0987
2868.00,2.0944
2867.00,2.0879
2866.00,2.0791
2865.00,2.0685
2864.00,2.0564
2863.00,2.0427
2862.00,2.0265
2861.00,2.0075
2860.00,1.9855
2859.00,1.9608
2858.00,1.9334
2857.00,1.9031
2856.00,1.8702
2855.00,1.8352
2854.00,1.7985
2853.00,1.7605
2852.00,1.7215
2851.00,1.6818
2850.00,1.6419
2849.00,1.6023
2848.00,1.5636
2847.00,1.5264
2846.00,1.4910
2845.00,1.4576
2844.00,1.4268
2843.00,1.3989
2842.00,1.3743
2841.00,1.3531
2840.00,1.3354
2839.00,1.3214
2838.00,1.3111
2837.00,1.3047
2836.00,1.3021
2835.00,1.3031
2834.00,1.3075
2833.00,1.3152
2832.00,1.3260
2831.00,1.3397
2830.00,1.3560
2829.00,1.3744
2828.00,1.3949
2827.00,1.4172
2826.00,1.4412
2825.00,1.4667
2824.00,1.4934
2823.00,1.5211
2822.00,1.5498
2821.00,1.5792
2820.00,1.6091
2819.00,1.6394
2818.00,1.6698
2817.00,1.7001
2816.00,1.7303
2815.00,1.7602
2814.00,1.7899
2813.00,1.8193
2812.00,1.8481
2811.00,1.8764
2810.00,1.9042
2809.00,1.9312
2808.00,1.9574
2807.00,1.9828
2806.00,2.0073
2805.00,2.0310
2804.00,2.0533
2803.00,2.0739
2802.00,2.0929
2801.00,2.1108
2800.00,2.1284
2799.00,2.1460
2798.00,2.1636
2797.00,2.1806
2796.00,2.1965
2795.00,2.2110
2794.00,2.2245
2793.00,2.2371
2792.00,2.2487
2791.00,2.2596
2790.00,2.2702
2789.00,2.2808
2788.00,2.2915
2787.00,2.3018
2786.00,2.3113
2785.00,2.3197
2784.00,2.3274
2783.00,2.3344
2782.00,2.3409
2781.00,2.3467
2780.00,2.3516
2779.00,2.3560
2778.00,2.3606
2777.00,2.3657
2776.00,2.3704
2775.00,2.3741
2774.00,2.3768
2773.00,2.3791
2772.00,2.3814
2771.00,2.3833
2770.00,2.3841
2769.00,2.3840
2768.00,2.3836
2767.00,2.3833
2766.00,2.3833
2765.00,2.3830
2764.00,2.3820
2763.00,2.3800
2762.00,2.3771
2761.00,2.3734
2760.00,2.3686
2759.00,2.3634
2758.00,2.3582
2757.00,2.3536
2756.00,2.3494
2755.00,2.3445
2754.00,2.3382
2753.00,2.3301
2752.00,2.3209
2751.00,2.3113
2750.00,2.3020
2749.00,2.2926
2748.00,2.2825
2747.00,2.2720
2746.00,2.2615
2745.00,2.2510
2744.00,2.2396
2743.00,2.2268
2742.00,2.2124
2741.00,2.1971
2740.00,2.1811
2739.00,2.1645
2738.00,2.1472
2737.00,2.1289
2736.00,2.1100
2735.00,2.0904
2734.00,2.0703
2733.00,2.0493
2732.00,2.0272
2731.00,2.0039
2730.00,1.9796
2729.00,1.9542
2728.00,1.9273
2727.00,1.8987
2726.00,1.8683
2725.00,1.8364
2724.00,1.8030
2723.00,1.7681
2722.00,1.7318
2721.00,1.6941
2720.00,1.6550
2719.00,1.6145
2718.00,1.5728
2717.00,1.5302
2716.00,1.4873
2715.00,1.4444
2714.00,1.4021
2713.00,1.3607
2712.00,1.3209
2711.00,1.2832
2710.00,1.2481
2709.00,1.2161
2708.00,1.1877
2707.00,1.1633
2706.00,1.1434
2705.00,1.1282
2704.00,1.1181
2703.00,1.1131
2702.00,1.1134
2701.00,1.1187
2700.00,1.1290
2699.00,1.1438
2698.00,1.1628
2697.00,1.1855
2696.00,1.2115
2695.00,1.2402
2694.00,1.2711
2693.00,1.3041
2692.00,1.3387
2691.00,1.3746
2690.00,1.4114
2689.00,1.4490
2688.00,1.4871
2687.00,1.5255
2686.00,1.5640
2685.00,1.6024
2684.00,1.6407
2683.00,1.6786
2682.00,1.7161
2681.00,1.7528
2680.00,1.7885
2679.00,1.8228
2678.00,1.8559
2677.00,1.8880
2676.00,1.9191
2675.00,1.9490
2674.00,1.9775
2673.00,2.0048
2672.00,2.0310
2671.00,2.0562
2670.00,2.0804
2669.00,2.1037
2668.00,2.1263
2667.00,2.1480
2666.00,2.1688
2665.00,2.1884
2664.00,2.2067
2663.00,2.2238
2662.00,2.2402
2661.00,2.2567
2660.00,2.2735
2659.00,2.2901
2658.00,2.3060
2657.00,2.3204
2656.00,2.3332
2655.00,2.3451
2654.00,2.3565
2653.00,2.3675
2652.00,2.3774
2651.00,2.3858
2650.00,2.3934
2649.00,2.4010
2648.00,2.4088
2647.00,2.4164
2646.00,2.4234
2645.00,2.4299
2644.00,2.4364
2643.00,2.4433
2642.00,2.4504
2641.00,2.4570
2640.00,2.4623
2639.00,2.4661
2638.00,2.4691
2637.00,2.4721
2636.00,2.4751
2635.00,2.4776
2634.00,2.4790
2633.00,2.4800
2632.00,2.4814
2631.00,2.4840
2630.00,2.4873
2629.00,2.4904
2628.00,2.4915
2627.00,2.4901
2626.00,2.4866
2625.00,2.4826
2624.00,2.4794
2623.00,2.4770
2622.00,2.4747
2621.00,2.4716
2620.00,2.4673
2619.00,2.4619
2618.00,2.4565
2617.00,2.4512
2616.00,2.4459
2615.00,2.4398
2614.00,2.4329
2613.00,2.4250
2612.00,2.4163
2611.00,2.4069
2610.00,2.3969
2609.00,2.3867
2608.00,2.3760
2607.00,2.3645
2606.00,2.3524
2605.00,2.3401
2604.00,2.3277
2603.00,2.3147
2602.00,2.3008
2601.00,2.2859
2600.00,2.2699
2599.00,2.2523
2598.00,2.2329
2597.00,2.2125
2596.00,2.1919
2595.00,2.1716
2594.00,2.1508
2593.00,2.1286
2592.00,2.1048
2591.00,2.0795
2590.00,2.0531
2589.00,2.0254
2588.00,1.9962
2587.00,1.9652
2586.00,1.9327
2585.00,1.8987
2584.00,1.8633
2583.00,1.8262
2582.00,1.7874
2581.00,1.7469
2580.00,1.7049
2579.00,1.6615
2578.00,1.6169
2577.00,1.5714
2576.00,1.5255
2575.00,1.4797
2574.00,1.4347
2573.00,1.3913
2572.00,1.3501
2571.00,1.3115
2570.00,1.2761
2569.00,1.2443
2568.00,1.2165
2567.00,1.1931
2566.00,1.1746
2565.00,1.1612
2564.00,1.1533
2563.00,1.1510
2562.00,1.1544
2561.00,1.1632
2560.00,1.1773
2559.00,1.1963
2558.00,1.2196
2557.00,1.2466
2556.00,1.2767
2555.00,1.3095
2554.00,1.3444
2553.00,1.3810
2552.00,1.4189
2551.00,1.4579
2550.00,1.4977
2549.00,1.5381
2548.00,1.5788
2547.00,1.6195
2546.00,1.6602
2545.00,1.7005
2544.00,1.7405
2543.00,1.7797
2542.00,1.8182
2541.00,1.8560
2540.00,1.8928
2539.00,1.9285
2538.00,1.9632
2537.00,1.9968
2536.00,2.0294
2535.00,2.0607
2534.00,2.0906
2533.00,2.1194
2532.00,2.1473
2531.00,2.1739
2530.00,2.1986
2529.00,2.2212
2528.00,2.2424
2527.00,2.2629
2526.00,2.2828
2525.00,2.3019
2524.00,2.3205
2523.00,2.3387
2522.00,2.3562
2521.00,2.3724
2520.00,2.3868
2519.00,2.3997
2518.00,2.4121
2517.00,2.4248
2516.00,2.4378
2515.00,2.4504
2514.00,2.4621
2513.00,2.4731
2512.00,2.4836
2511.00,2.4935
2510.00,2.5025
2509.00,2.5101
2508.00,2.5166
2507.00,2.5227
2506.00,2.5293
2505.00,2.5363
2504.00,2.5432
2503.00,2.5496
2502.00,2.5552
2501.00,2.5602
2500.00,2.5647
2499.00,2.5689
2498.00,2.5723
2497.00,2.5746
2496.00,2.5756
2495.00,2.5758
2494.00,2.5760
2493.00,2.5771
2492.00,2.5787
2491.00,2.5805
2490.00,2.5820
2489.00,2.5835
2488.00,2.5847
2487.00,2.5842
2486.00,2.5812
2485.00,2.5763
2484.00,2.5714
2483.00,2.5682
2482.00,2.5665
2481.00,2.5646
2480.00,2.5613
2479.00,2.5565
2478.00,2.5510
2477.00,2.5453
2476.00,2.5391
2475.00,2.5319
2474.00,2.5235
2473.00,2.5144
2472.00,2.5051
2471.00,2.4959
2470.00,2.4865
2469.00,2.4769
2468.00,2.4666
2467.00,2.4553
2466.00,2.4430
2465.00,2.4302
2464.00,2.4174
2463.00,2.4042
2462.00,2.3896
2461.00,2.3727
2460.00,2.3541
2459.00,2.3352
2458.00,2.3164
2457.00,2.2975
2456.00,2.2776
2455.00,2.2565
2454.00,2.2341
2453.00,2.2104
2452.00,2.1852
2451.00,2.1586
2450.00,2.1312
2449.00,2.1028
2448.00,2.0732
2447.00,2.0418
2446.00,2.0086
2445.00,1.9740
2444.00,1.9382
2443.00,1.9014
2442.00,1.8633
2441.00,1.8238
2440.00,1.7828
2439.00,1.7406
2438.00,1.6976
2437.00,1.6545
2436.00,1.6119
2435.00,1.5703
2434.00,1.5301
2433.00,1.4918
2432.00,1.4563
2431.00,1.4241
2430.00,1.3959
2429.00,1.3721
2428.00,1.3532
2427.00,1.3395
2426.00,1.3313
2425.00,1.3287
2424.00,1.3317
2423.00,1.3403
2422.00,1.3540
2421.00,1.3723
2420.00,1.3946
2419.00,1.4202
2418.00,1.4485
2417.00,1.4787
2416.00,1.5104
2415.00,1.5431
2414.00,1.5764
2413.00,1.6099
2412.00,1.6432
2411.00,1.6762
2410.00,1.7088
2409.00,1.7411
2408.00,1.7731
2407.00,1.8049
2406.00,1.8364
2405.00,1.8676
2404.00,1.8985
2403.00,1.9291
2402.00,1.9596
2401.00,1.9900
2400.00,2.0205
2399.00,2.0513
2398.00,2.0824
2397.00,2.1132
2396.00,2.1432
2395.00,2.1720
2394.00,2.1999
2393.00,2.2273
2392.00,2.2540
2391.00,2.2796
2390.00,2.3042
2389.00,2.3277
2388.00,2.3500
2387.00,2.3714
2386.00,2.3924
2385.00,2.4135
2384.00,2.4341
2383.00,2.4534
2382.00,2.4711
2381.00,2.4882
2380.00,2.5056
2379.00,2.5237
2378.00,2.5416
2377.00,2.5584
2376.00,2.5734
2375.00,2.5870
2374.00,2.5999
2373.00,2.6124
2372.00,2.6247
2371.00,2.6373
2370.00,2.6508
2369.00,2.6648
2368.00,2.6777
2367.00,2.6876
2366.00,2.6951
2365.00,2.7014
2364.00,2.7073
2363.00,2.7130
2362.00,2.7184
2361.00,2.7234
2360.00,2.7286
2359.00,2.7339
2358.00,2.7392
2357.00,2.7429
2356.00,2.7439
2355.00,2.7430
2354.00,2.7431
2353.00,2.7457
2352.00,2.7482
2351.00,2.7480
2350.00,2.7454
2349.00,2.7430
2348.00,2.7425
2347.00,2.7422
2346.00,2.7402
2345.00,2.7352
2344.00,2.7277
2343.00,2.7187
2342.00,2.7092
2341.00,2.7001
2340.00,2.6910
2339.00,2.6817
2338.00,2.6725
2337.00,2.6647
2336.00,2.6573
2335.00,2.6490
2334.00,2.6380
2333.00,2.6255
2332.00,2.6120
2331.00,2.5989
2330.00,2.5856
2329.00,2.5723
2328.00,2.5583
2327.00,2.5430
2326.00,2.5265
2325.00,2.5090
2324.00,2.4905
2323.00,2.4702
2322.00,2.4472
2321.00,2.4219
2320.00,2.3949
2319.00,2.3674
2318.00,2.3391
2317.00,2.3097
2316.00,2.2782
2315.00,2.2451
2314.00,2.2101
2313.00,2.1732
2312.00,2.1337
2311.00,2.0919
2310.00,2.0482
2309.00,2.0038
2308.00,1.9597
2307.00,1.9179
2306.00,1.8802
2305.00,1.8496
2304.00,1.8286
2303.00,1.8194
2302.00,1.8238
2301.00,1.8432
2300.00,1.8779
2299.00,1.9272
2298.00,1.9885
2297.00,2.0579
2296.00,2.1299
2295.00,2.1974
2294.00,2.2522
2293.00,2.2857
2292.00,2.2919
2291.00,2.2700
2290.00,2.2247
2289.00,2.1629
2288.00,2.0925
2287.00,2.0198
2286.00,1.9500
2285.00,1.8864
2284.00,1.8318
2283.00,1.7881
2282.00,1.7569
2281.00,1.7393
2280.00,1.7357
2279.00,1.7455
2278.00,1.7677
2277.00,1.8008
2276.00,1.8429
2275.00,1.8917
2274.00,1.9454
2273.00,2.0025
2272.00,2.0618
2271.00,2.1223
2270.00,2.1834
2269.00,2.2443
2268.00,2.3045
2267.00,2.3640
2266.00,2.4234
2265.00,2.4834
2264.00,2.5437
2263.00,2.6032
2262.00,2.6617
2261.00,2.7213
2260.00,2.7869
2259.00,2.8649
2258.00,2.9621
2257.00,3.0843
2256.00,3.2348
2255.00,3.4076
2254.00,3.5691
2253.00,3.6426
2252.00,3.5751
2251.00,3.4160
2250.00,3.2321
2249.00,3.0504
2248.00,2.8781
2247.00,2.7167
2246.00,2.5673
2245.00,2.4326
2244.00,2.3163
2243.00,2.2223
2242.00,2.1532
2241.00,2.1093
2240.00,2.0894
2239.00,2.0901
2238.00,2.1075
2237.00,2.1374
2236.00,2.1759
2235.00,2.2194
2234.00,2.2650
2233.00,2.3104
2232.00,2.3539
2231.00,2.3947
2230.00,2.4317
2229.00,2.4648
2228.00,2.4944
2227.00,2.5215
2226.00,2.5464
2225.00,2.5689
2224.00,2.5890
2223.00,2.6082
2222.00,2.6278
2221.00,2.6476
2220.00,2.6658
2219.00,2.6813
2218.00,2.6947
2217.00,2.7070
2216.00,2.7184
2215.00,2.7283
2214.00,2.7366
2213.00,2.7437
2212.00,2.7509
2211.00,2.7591
2210.00,2.7675
2209.00,2.7749
2208.00,2.7803
2207.00,2.7844
2206.00,2.7879
2205.00,2.7905
2204.00,2.7921
2203.00,2.7932
2202.00,2.7952
2201.00,2.7983
2200.00,2.8020
2199.00,2.8054
2198.00,2.8075
2197.00,2.8068
2196.00,2.8034
2195.00,2.7988
2194.00,2.7951
2193.00,2.7928
2192.00,2.7908
2191.00,2.7888
2190.00,2.7866
2189.00,2.7832
2188.00,2.7767
2187.00,2.7670
2186.00,2.7561
2185.00,2.7458
2184.00,2.7365
2183.00,2.7280
2182.00,2.7197
2181.00,2.7106
2180.00,2.6997
2179.00,2.6868
2178.00,2.6727
2177.00,2.6587
2176.00,2.6453
2175.00,2.6325
2174.00,2.6194
2173.00,2.6049
2172.00,2.5885
2171.00,2.5710
2170.00,2.5538
2169.00,2.5369
2168.00,2.5189
2167.00,2.4989
2166.00,2.4771
2165.00,2.4543
2164.00,2.4308
2163.00,2.4064
2162.00,2.3804
2161.00,2.3524
2160.00,2.3221
2159.00,2.2895
2158.00,2.2552
2157.00,2.2195
2156.00,2.1821
2155.00,2.1429
2154.00,2.1014
2153.00,2.0576
2152.00,2.0112
2151.00,1.9620
2150.00,1.9102
2149.00,1.8562
2148.00,1.8007
2147.00,1.7443
2146.00,1.6879
2145.00,1.6323
2144.00,1.5783
2143.00,1.5270
2142.00,1.4795
2141.00,1.4369
2140.00,1.4002
2139.00,1.3700
2138.00,1.3471
2137.00,1.3321
2136.00,1.3253
2135.00,1.3267
2134.00,1.3360
2133.00,1.3527
2132.00,1.3764
2131.00,1.4060
2130.00,1.4406
2129.00,1.4796
2128.00,1.5220
2127.00,1.5670
2126.00,1.6136
2125.00,1.6615
2124.00,1.7104
2123.00,1.7601
2122.00,1.8100
2121.00,1.8600
2120.00,1.9095
2119.00,1.9581
2118.00,2.0055
2117.00,2.0519
2116.00,2.0973
2115.00,2.1415
2114.00,2.1842
2113.00,2.2247
2112.00,2.2629
2111.00,2.2987
2110.00,2.3322
2109.00,2.3636
2108.00,2.3933
2107.00,2.4215
2106.00,2.4486
2105.00,2.4745
2104.00,2.4993
2103.00,2.5229
2102.00,2.5458
2101.00,2.5686
2100.00,2.5910
2099.00,2.6124
2098.00,2.6319
2097.00,2.6492
2096.00,2.6648
2095.00,2.6800
2094.00,2.6957
2093.00,2.7110
2092.00,2.7243
2091.00,2.7352
2090.00,2.7450
2089.00,2.7555
2088.00,2.7668
2087.00,2.7786
2086.00,2.7907
2085.00,2.8029
2084.00,2.8138
2083.00,2.8224
2082.00,2.8287
2081.00,2.8339
2080.00,2.8389
2079.00,2.8448
2078.00,2.8529
2077.00,2.8638
2076.00,2.8755
2075.00,2.8844
2074.00,2.8887
2073.00,2.8902
2072.00,2.8921
2071.00,2.8952
2070.00,2.8982
2069.00,2.9001
2068.00,2.9016
2067.00,2.9034
2066.00,2.9047
2065.00,2.9041
2064.00,2.9015
2063.00,2.8985
2062.00,2.8971
2061.00,2.8980
2060.00,2.9002
2059.00,2.9018
2058.00,2.9007
2057.00,2.8956
2056.00,2.8876
2055.00,2.8795
2054.00,2.8736
2053.00,2.8703
2052.00,2.8683
2051.00,2.8662
2050.00,2.8629
2049.00,2.8584
2048.00,2.8539
2047.00,2.8496
2046.00,2.8433
2045.00,2.8324
2044.00,2.8174
2043.00,2.8026
2042.00,2.7913
2041.00,2.7833
2040.00,2.7756
2039.00,2.7661
2038.00,2.7543
2037.00,2.7406
2036.00,2.7251
2035.00,2.7085
2034.00,2.6913
2033.00,2.6739
2032.00,2.6559
2031.00,2.6373
2030.00,2.6182
2029.00,2.5982
2028.00,2.5769
2027.00,2.5542
2026.00,2.5308
2025.00,2.5066
2024.00,2.4809
2023.00,2.4531
2022.00,2.4234
2021.00,2.3923
2020.00,2.3603
2019.00,2.3272
2018.00,2.2923
2017.00,2.2551
2016.00,2.2153
2015.00,2.1730
2014.00,2.1281
2013.00,2.0805
2012.00,2.0300
2011.00,1.9771
2010.00,1.9224
2009.00,1.8663
2008.00,1.8093
2007.00,1.7520
2006.00,1.6955
2005.00,1.6410
2004.00,1.5897
2003.00,1.5426
2002.00,1.5009
2001.00,1.4658
2000.00,1.4379
1999.00,1.4179
1998.00,1.4062
1997.00,1.4029
1996.00,1.4078
1995.00,1.4213
1994.00,1.4432
1993.00,1.4730
1992.00,1.5087
1991.00,1.5486
1990.00,1.5916
1989.00,1.6376
1988.00,1.6862
1987.00,1.7364
1986.00,1.7874
1985.00,1.8388
1984.00,1.8905
1983.00,1.9419
1982.00,1.9926
1981.00,2.0426
1980.00,2.0915
1979.00,2.1389
1978.00,2.1843
1977.00,2.2277
1976.00,2.2694
1975.00,2.3096
1974.00,2.3478
1973.00,2.3840
1972.00,2.4185
1971.00,2.4521
1970.00,2.4852
1969.00,2.5174
1968.00,2.5473
1967.00,2.5738
1966.00,2.5978
1965.00,2.6211
1964.00,2.6448
1963.00,2.6683
1962.00,2.6903
1961.00,2.7105
1960.00,2.7294
1959.00,2.7470
1958.00,2.7639
1957.00,2.7799
1956.00,2.7943
1955.00,2.8058
1954.00,2.8147
1953.00,2.8237
1952.00,2.8356
1951.00,2.8502
1950.00,2.8653
1949.00,2.8792
1948.00,2.8918
1947.00,2.9030
1946.00,2.9120
1945.00,2.9189
1944.00,2.9256
1943.00,2.9336
1942.00,2.9428
1941.00,2.9516
1940.00,2.9590
1939.00,2.9646
1938.00,2.9691
1937.00,2.9735
1936.00,2.9792
1935.00,2.9862
1934.00,2.9928
1933.00,2.9973
1932.00,3.0000
1931.00,3.0021
1930.00,3.0045
1929.00,3.0070
1928.00,3.0087
1927.00,3.0088
1926.00,3.0074
1925.00,3.0065
1924.00,3.0094
1923.00,3.0161
1922.00,3.0224
1921.00,3.0234
1920.00,3.0183
1919.00,3.0106
1918.00,3.0034
1917.00,2.9973
1916.00,2.9928
1915.00,2.9903
1914.00,2.9888
1913.00,2.9864
1912.00,2.9813
1911.00,2.9736
1910.00,2.9651
1909.00,2.9578
1908.00,2.9527
1907.00,2.9490
1906.00,2.9439
1905.00,2.9355
1904.00,2.9247
1903.00,2.9135
1902.00,2.9023
1901.00,2.8900
1900.00,2.8760
1899.00,2.8618
1898.00,2.8483
1897.00,2.8351
1896.00,2.8205
1895.00,2.8034
1894.00,2.7836
1893.00,2.7623
1892.00,2.7422
1891.00,2.7248
1890.00,2.7081
1889.00,2.6877
1888.00,2.6619
1887.00,2.6329
1886.00,2.6040
1885.00,2.5763
1884.00,2.5486
1883.00,2.5195
1882.00,2.4886
1881.00,2.4558
1880.00,2.4213
1879.00,2.3850
1878.00,2.3465
1877.00,2.3057
1876.00,2.2627
1875.00,2.2174
1874.00,2.1688
1873.00,2.1167
1872.00,2.0628
1871.00,2.0094
1870.00,1.9567
1869.00,1.9022
1868.00,1.8438
1867.00,1.7835
1866.00,1.7253
1865.00,1.6723
1864.00,1.6258
1863.00,1.5862
1862.00,1.5542
1861.00,1.5310
1860.00,1.5173
1859.00,1.5132
1858.00,1.5188
1857.00,1.5338
1856.00,1.5576
1855.00,1.5892
1854.00,1.6272
1853.00,1.6704
1852.00,1.7170
1851.00,1.7662
1850.00,1.8173
1849.00,1.8690
1848.00,1.9199
1847.00,1.9707
1846.00,2.0248
1845.00,2.0843
1844.00,2.1450
1843.00,2.2013
1842.00,2.2516
1841.00,2.2980
1840.00,2.3422
1839.00,2.3852
1838.00,2.4268
1837.00,2.4671
1836.00,2.5053
1835.00,2.5394
1834.00,2.5693
1833.00,2.5979
1832.00,2.6293
1831.00,2.6639
1830.00,2.6965
1829.00,2.7216
1828.00,2.7409
1827.00,2.7600
1826.00,2.7820
1825.00,2.8051
1824.00,2.8254
1823.00,2.8423
1822.00,2.8577
1821.00,2.8729
1820.00,2.8881
1819.00,2.9031
1818.00,2.9193
1817.00,2.9375
1816.00,2.9562
1815.00,2.9728
1814.00,2.9870
1813.00,3.0007
1812.00,3.0148
1811.00,3.0273
1810.00,3.0365
1809.00,3.0431
1808.00,3.0489
1807.00,3.0548
1806.00,3.0610
1805.00,3.0675
1804.00,3.0738
1803.00,3.0801
1802.00,3.0875
1801.00,3.0965
1800.00,3.1056
1799.00,3.1130
1798.00,3.1173
1797.00,3.1186
1796.00,3.1182
1795.00,3.1195
1794.00,3.1255
1793.00,3.1337
1792.00,3.1366
1791.00,3.1315
1790.00,3.1240
1789.00,3.1192
1788.00,3.1174
1787.00,3.1181
1786.00,3.1220
1785.00,3.1289
1784.00,3.1347
1783.00,3.1357
1782.00,3.1314
1781.00,3.1227
1780.00,3.1108
1779.00,3.0982
1778.00,3.0877
1777.00,3.0791
1776.00,3.0705
1775.00,3.0634
1774.00,3.0622
1773.00,3.0654
1772.00,3.0628
1771.00,3.0501
1770.00,3.0331
1769.00,3.0171
1768.00,3.0011
1767.00,2.9828
1766.00,2.9630
1765.00,2.9447
1764.00,2.9297
1763.00,2.9179
1762.00,2.9069
1761.00,2.8934
1760.00,2.8764
1759.00,2.8570
1758.00,2.8369
1757.00,2.8147
1756.00,2.7870
1755.00,2.7539
1754.00,2.7196
1753.00,2.6882
1752.00,2.6616
1751.00,2.6373
1750.00,2.6123
1749.00,2.5848
1748.00,2.5536
1747.00,2.5196
1746.00,2.4863
1745.00,2.4558
1744.00,2.4272
1743.00,2.3997
1742.00,2.3748
1741.00,2.3556
1740.00,2.3399
1739.00,2.3208
1738.00,2.2965
1737.00,2.2729
1736.00,2.2608
1735.00,2.2673
1734.00,2.2838
1733.00,2.3005
1732.00,2.3216
1731.00,2.3519
1730.00,2.3909
1729.00,2.4369
1728.00,2.4884
1727.00,2.5461
1726.00,2.6112
1725.00,2.6827
1724.00,2.7579
1723.00,2.8338
1722.00,2.9086
1721.00,2.9814
1720.00,3.0550
1719.00,3.1371
1718.00,3.2311
1717.00,3.3289
1716.00,3.4184
1715.00,3.4989
1714.00,3.5813
1713.00,3.6668
1712.00,3.7423
1711.00,3.8059
1710.00,3.8697
1709.00,3.9257
1708.00,3.9421
1707.00,3.9106
1706.00,3.8454
1705.00,3.7451
1704.00,3.6160
1703.00,3.4807
1702.00,3.3496
1701.00,3.2126
1700.00,3.0628
1699.00,2.9184
1698.00,2.7958
1697.00,2.6884
1696.00,2.5835
1695.00,2.4808
1694.00,2.3939
1693.00,2.3311
1692.00,2.2897
1691.00,2.2662
1690.00,2.2583
1689.00,2.2607
1688.00,2.2694
1687.00,2.2867
1686.00,2.3252
1685.00,2.3925
1684.00,2.4695
1683.00,2.5341
1682.00,2.5863
1681.00,2.6310
1680.00,2.6699
1679.00,2.7032
1678.00,2.7323
1677.00,2.7632
1676.00,2.8003
1675.00,2.8392
1674.00,2.8727
1673.00,2.8994
1672.00,2.9228
1671.00,2.9475
1670.00,2.9744
1669.00,2.9989
1668.00,3.0174
1667.00,3.0318
1666.00,3.0462
1665.00,3.0644
1664.00,3.0858
1663.00,3.1036
1662.00,3.1150
1661.00,3.1252
1660.00,3.1405
1659.00,3.1562
1658.00,3.1692
1657.00,3.1660
1656.00,3.1927
1655.00,3.2100
1654.00,3.2176
1653.00,3.2291
1652.00,3.2363
1651.00,3.2422
1650.00,3.2431
1649.00,3.2473
1648.00,3.2545
1647.00,3.2640
1646.00,3.2709
1645.00,3.2745
1644.00,3.2777
1643.00,3.2800
1642.00,3.2818
1641.00,3.2829
1640.00,3.2815
1639.00,3.2768
1638.00,3.2730
1637.00,3.2770
1636.00,3.2876
1635.00,3.2951
1634.00,3.2956
1633.00,3.2890
1632.00,3.2741
1631.00,3.2562
1630.00,3.2449
1629.00,3.2452
1628.00,3.2537
1627.00,3.2643
1626.00,3.2731
1625.00,3.2777
1624.00,3.2756
1623.00,3.2639
1622.00,3.2428
1621.00,3.2160
1620.00,3.1886
1619.00,3.1674
1618.00,3.1588
1617.00,3.1592
1616.00,3.1567
1615.00,3.1481
1614.00,3.1384
1613.00,3.1299
1612.00,3.1214
1611.00,3.1115
1610.00,3.0993
1609.00,3.0843
1608.00,3.0665
1607.00,3.0478
1606.00,3.0299
1605.00,3.0120
1604.00,2.9920
1603.00,2.9691
1602.00,2.9423
1601.00,2.9110
1600.00,2.8768
1599.00,2.8434
1598.00,2.8126
1597.00,2.7828
1596.00,2.7518
1595.00,2.7192
1594.00,2.6852
1593.00,2.6486
1592.00,2.6092
1591.00,2.5681
1590.00,2.5260
1589.00,2.4818
1588.00,2.4348
1587.00,2.3860
1586.00,2.3378
1585.00,2.2909
1584.00,2.2458
1583.00,2.2043
1582.00,2.1677
1581.00,2.1349
1580.00,2.1042
1579.00,2.0776
1578.00,2.0610
1577.00,2.0574
1576.00,2.0598
1575.00,2.0616
1574.00,2.0660
1573.00,2.0771
1572.00,2.0980
1571.00,2.1320
1570.00,2.1754
1569.00,2.2186
1568.00,2.2579
1567.00,2.2974
1566.00,2.3407
1565.00,2.3854
1564.00,2.4237
1563.00,2.4499
1562.00,2.4693
1561.00,2.5026
1560.00,2.5709
1559.00,2.6552
1558.00,2.7164
1557.00,2.7550
1556.00,2.7845
1555.00,2.8113
1554.00,2.8391
1553.00,2.8679
1552.00,2.8975
1551.00,2.9267
1550.00,2.9546
1549.00,2.9795
1548.00,3.0000
1547.00,3.0176
1546.00,3.0358
1545.00,3.0560
1544.00,3.0750
1543.00,3.0907
1542.00,3.1079
1541.00,3.1323
1540.00,3.1550
1539.00,3.1655
1538.00,3.1736
1537.00,3.1906
1536.00,3.2149
1535.00,3.2430
1534.00,3.2722
1533.00,3.2971
1532.00,3.3148
1531.00,3.3260
1530.00,3.3357
1529.00,3.3513
1528.00,3.3734
1527.00,3.3938
1526.00,3.4050
1525.00,3.4083
1524.00,3.4081
1523.00,3.4066
1522.00,3.4044
1521.00,3.4023
1520.00,3.4021
1519.00,3.4029
1518.00,3.4009
1517.00,3.3957
1516.00,3.3909
1515.00,3.3901
1514.00,3.3947
1513.00,3.4050
1512.00,3.4208
1511.00,3.4372
1510.00,3.4469
1509.00,3.4477
1508.00,3.4456
1507.00,3.4436
1506.00,3.4392
1505.00,3.4397
1504.00,3.4475
1503.00,3.4533
1502.00,3.4528
1501.00,3.4470
1500.00,3.4369
1499.00,3.4265
1498.00,3.4205
1497.00,3.4160
1496.00,3.4018
1495.00,3.3749
1494.00,3.3507
1493.00,3.3459
1492.00,3.3620
1491.00,3.3846
1490.00,3.3960
1489.00,3.3927
1488.00,3.3845
1487.00,3.3803
1486.00,3.3827
1485.00,3.3880
1484.00,3.3877
1483.00,3.3757
1482.00,3.3555
1481.00,3.3368
1480.00,3.3241
1479.00,3.3141
1478.00,3.3015
1477.00,3.2846
1476.00,3.2634
1475.00,3.2401
1474.00,3.2215
1473.00,3.2140
1472.00,3.2177
1471.00,3.2272
1470.00,3.2357
1469.00,3.2386
1468.00,3.2375
1467.00,3.2391
1466.00,3.2492
1465.00,3.2661
1464.00,3.2830
1463.00,3.2963
1462.00,3.3071
1461.00,3.3172
1460.00,3.3276
1459.00,3.3417
1458.00,3.3667
1457.00,3.4062
1456.00,3.4575
1455.00,3.5153
1454.00,3.5712
1453.00,3.6203
1452.00,3.6653
1451.00,3.7103
1450.00,3.7484
1449.00,3.7573
1448.00,3.7187
1447.00,3.6530
1446.00,3.5994
1445.00,3.5731
1444.00,3.5660
1443.00,3.5640
1442.00,3.5613
1441.00,3.5573
1440.00,3.5500
1439.00,3.5383
1438.00,3.5273
1437.00,3.5207
1436.00,3.5121
1435.00,3.4975
1434.00,3.4831
1433.00,3.4772
1432.00,3.4823
1431.00,3.4948
1430.00,3.5078
1429.00,3.5129
1428.00,3.5032
1427.00,3.4841
1426.00,3.4727
1425.00,3.4802
1424.00,3.4988
1423.00,3.5085
1422.00,3.5000
1421.00,3.4817
1420.00,3.4632
1419.00,3.4458
1418.00,3.4324
1417.00,3.4294
1416.00,3.4348
1415.00,3.4382
1414.00,3.4327
1413.00,3.4199
1412.00,3.4025
1411.00,3.3796
1410.00,3.3538
1409.00,3.3322
1408.00,3.3195
1407.00,3.3120
1406.00,3.3023
1405.00,3.2873
1404.00,3.2708
1403.00,3.2585
1402.00,3.2524
1401.00,3.2503
1400.00,3.2477
1399.00,3.2420
1398.00,3.2363
1397.00,3.2369
1396.00,3.2468
1395.00,3.2622
1394.00,3.2774
1393.00,3.2928
1392.00,3.3132
1391.00,3.3410
1390.00,3.3748
1389.00,3.4108
1388.00,3.4445
1387.00,3.4742
1386.00,3.5027
1385.00,3.5341
1384.00,3.5657
1383.00,3.5903
1382.00,3.6132
1381.00,3.6546
1380.00,3.7301
1379.00,3.8298
1378.00,3.9114
1377.00,3.9321
1376.00,3.9023
1375.00,3.8503
1374.00,3.7793
1373.00,3.6899
1372.00,3.5917
1371.00,3.5040
1370.00,3.4461
1369.00,3.4220
1368.00,3.4214
1367.00,3.4291
1366.00,3.4357
1365.00,3.4429
1364.00,3.4545
1363.00,3.4668
1362.00,3.4709
1361.00,3.4656
1360.00,3.4593
1359.00,3.4631
1358.00,3.4837
1357.00,3.5198
1356.00,3.5605
1355.00,3.5889
1354.00,3.5976
1353.00,3.5971
1352.00,3.5988
1351.00,3.6008
1350.00,3.5978
1349.00,3.5948
1348.00,3.6024
1347.00,3.6208
1346.00,3.6386
1345.00,3.6467
1344.00,3.6468
1343.00,3.6439
1342.00,3.6413
1341.00,3.6419
1340.00,3.6465
1339.00,3.6520
1338.00,3.6541
1337.00,3.6510
1336.00,3.6439
1335.00,3.6352
1334.00,3.6279
1333.00,3.6275
1332.00,3.6407
1331.00,3.6656
1330.00,3.6863
1329.00,3.6853
1328.00,3.6663
1327.00,3.6383
1326.00,3.6077
1325.00,3.5850
1324.00,3.5710
1323.00,3.5573
1322.00,3.5423
1321.00,3.5350
1320.00,3.5416
1319.00,3.5544
1318.00,3.5583
1317.00,3.5478
1316.00,3.5328
1315.00,3.5257
1314.00,3.5280
1313.00,3.5331
1312.00,3.5365
1311.00,3.5376
1310.00,3.5321
1309.00,3.5140
1308.00,3.4859
1307.00,3.4580
1306.00,3.4359
1305.00,3.4157
1304.00,3.3914
1303.00,3.3654
1302.00,3.3438
1301.00,3.3262
1300.00,3.3060
1299.00,3.2791
1298.00,3.2484
1297.00,3.2180
1296.00,3.1871
1295.00,3.1514
1294.00,3.1099
1293.00,3.0656
1292.00,3.0211
1291.00,2.9770
1290.00,2.9329
1289.00,2.8874
1288.00,2.8389
1287.00,2.7860
1286.00,2.7298
1285.00,2.6731
1284.00,2.6188
1283.00,2.5684
1282.00,2.5225
1281.00,2.4827
1280.00,2.4516
1279.00,2.4306
1278.00,2.4191
1277.00,2.4135
1276.00,2.4104
1275.00,2.4081
1274.00,2.4072
1273.00,2.4099
1272.00,2.4183
1271.00,2.4337
1270.00,2.4562
1269.00,2.4844
1268.00,2.5169
1267.00,2.5521
1266.00,2.5890
1265.00,2.6273
1264.00,2.6682
1263.00,2.7137
1262.00,2.7648
1261.00,2.8187
1260.00,2.8721
1259.00,2.9244
1258.00,2.9780
1257.00,3.0326
1256.00,3.0827
1255.00,3.1228
1254.00,3.1544
1253.00,3.1856
1252.00,3.2221
1251.00,3.2630
1250.00,3.3032
1249.00,3.3392
1248.00,3.3719
1247.00,3.4041
1246.00,3.4372
1245.00,3.4718
1244.00,3.5056
1243.00,3.5368
1242.00,3.5690
1241.00,3.5967
1240.00,3.6058
1239.00,3.5982
1238.00,3.5914
1237.00,3.5962
1236.00,3.6066
1235.00,3.6176
1234.00,3.6333
1233.00,3.6460
1232.00,3.6432
1231.00,3.6354
1230.00,3.6482
1229.00,3.6948
1228.00,3.7603
1227.00,3.8044
1226.00,3.8067
1225.00,3.7927
1224.00,3.7869
1223.00,3.7861
1222.00,3.7738
1221.00,3.7426
1220.00,3.7043
1219.00,3.6818
1218.00,3.6918
1217.00,3.7317
1216.00,3.7780
1215.00,3.8027
1214.00,3.8010
1213.00,3.7837
1212.00,3.7589
1211.00,3.7421
1210.00,3.7562
1209.00,3.8095
1208.00,3.8782
1207.00,3.9187
1206.00,3.9254
1205.00,3.9415
1204.00,3.9984
1203.00,4.0673
1202.00,4.0848
1201.00,4.0540
1200.00,4.0090
1199.00,3.9557
1198.00,3.9041
1197.00,3.8784
1196.00,3.8835
1195.00,3.8932
1194.00,3.8927
1193.00,3.9029
1192.00,3.9272
1191.00,3.9331
1190.00,3.9100
1189.00,3.8646
1188.00,3.8153
1187.00,3.7950
1186.00,3.8079
1185.00,3.8287
1184.00,3.8293
1183.00,3.8067
1182.00,3.7816
1181.00,3.7730
1180.00,3.7846
1179.00,3.8023
1178.00,3.8107
1177.00,3.8166
1176.00,3.8344
1175.00,3.8499
1174.00,3.8215
1173.00,3.7484
1172.00,3.6721
1171.00,3.6187
1170.00,3.5900
1169.00,3.5717
1168.00,3.5501
1167.00,3.5309
1166.00,3.5294
1165.00,3.5464
1164.00,3.5582
1163.00,3.5347
1162.00,3.4755
1161.00,3.4091
1160.00,3.3579
1159.00,3.3253
1158.00,3.3029
1157.00,3.2798
1156.00,3.2491
1155.00,3.2100
1154.00,3.1680
1153.00,3.1278
1152.00,3.0866
1151.00,3.0392
1150.00,2.9847
1149.00,2.9260
1148.00,2.8668
1147.00,2.8102
1146.00,2.7583
1145.00,2.7124
1144.00,2.6730
1143.00,2.6411
1142.00,2.6190
1141.00,2.6093
1140.00,2.6134
1139.00,2.6313
1138.00,2.6617
1137.00,2.7036
1136.00,2.7555
1135.00,2.8132
1134.00,2.8696
1133.00,2.9211
1132.00,2.9724
1131.00,3.0324
1130.00,3.1041
1129.00,3.1798
1128.00,3.2469
1127.00,3.2978
1126.00,3.3350
1125.00,3.3690
1124.00,3.4115
1123.00,3.4683
1122.00,3.5336
1121.00,3.5927
1120.00,3.6220
1119.00,3.6090
1118.00,3.5910
1117.00,3.6114
1116.00,3.6661
1115.00,3.7181
1114.00,3.7586
1113.00,3.7795
1112.00,3.7466
1111.00,3.6992
1110.00,3.6966
1109.00,3.7490
1108.00,3.8422
1107.00,3.9324
1106.00,3.9551
1105.00,3.9524
1104.00,3.9744
1103.00,3.9871
1102.00,4.0182
1101.00,4.1182
1100.00,4.1966
1099.00,4.0985
1098.00,3.9636
1097.00,3.9349
1096.00,4.0486
1095.00,4.2665
1094.00,4.3870
1093.00,4.3768
1092.00,4.4368
1091.00,4.5422
1090.00,4.3878
1089.00,4.1530
1088.00,4.0292
1087.00,3.9929
1086.00,4.0026
1085.00,4.0225
1084.00,4.0721
1083.00,4.0652
1082.00,3.9528
1081.00,3.9020
1080.00,3.9546
1079.00,4.0673
1078.00,4.1935
1077.00,4.3118
1076.00,4.4073
1075.00,4.3274
1074.00,4.2813
1073.00,4.2845
1072.00,4.4089
1071.00,5.0035
1070.00,4.5676
1069.00,4.2672
1068.00,4.2496
1067.00,4.4555
1066.00,5.0019
1065.00,4.5126
1064.00,4.2512
1063.00,4.1645
1062.00,4.1262
1061.00,4.1202
1060.00,4.1077
1059.00,4.0730
1058.00,3.9928
1057.00,3.9115
1056.00,3.8568
1055.00,3.8485
1054.00,3.9373
1053.00,4.1710
1052.00,4.2853
1051.00,4.2626
1050.00,4.3177
1049.00,4.2340
1048.00,4.1888
1047.00,4.2350
1046.00,4.2592
1045.00,4.1625
1044.00,4.0313
1043.00,3.9683
1042.00,3.9345
1041.00,3.9142
1040.00,3.9389
1039.00,4.0422
1038.00,4.1957
1037.00,4.3250
1036.00,4.5761
1035.00,4.8264
1034.00,4.5032
1033.00,4.3597
1032.00,4.2870
1031.00,4.3096
1030.00,4.6747
1029.00,4.4673
1028.00,4.0167
1027.00,3.8982
1026.00,3.9367
1025.00,4.1574
1024.00,4.6195
1023.00,4.5122
1022.00,4.3638
1021.00,4.5950
1020.00,5.2255
1019.00,4.9077
1018.00,4.8935
1017.00,4.9923
1016.00,4.6717
1015.00,4.5338
1014.00,4.4590
1013.00,4.4038
1012.00,4.2915
1011.00,4.1152
1010.00,3.9262
1009.00,3.7854
1008.00,3.7352
1007.00,3.7733
1006.00,3.9067
1005.00,4.1039
1004.00,4.4189
1003.00,4.7409
1002.00,4.2193
1001.00,3.8962
1000.00,3.7049
999.00,3.5773
998.00,3.5069
997.00,3.4668
996.00,3.4406
995.00,3.4138
994.00,3.3878
993.00,3.3665
992.00,3.3524
991.00,3.3436
990.00,3.3401
989.00,3.3447
988.00,3.3563
987.00,3.3707
986.00,3.3919
985.00,3.4365
984.00,3.5237
983.00,3.6567
982.00,3.7952
981.00,3.8807
980.00,3.9170
979.00,3.9269
978.00,3.9128
977.00,3.9042
976.00,3.9501
975.00,4.0809
974.00,4.2733
973.00,4.3416
972.00,4.3479
971.00,4.4167
970.00,4.6398
969.00,5.3748
968.00,4.7656
967.00,4.7106
966.00,5.0780
965.00,4.4932
964.00,4.2800
963.00,4.2793
962.00,4.4739
961.00,4.8313
960.00,4.5702
959.00,4.3001
958.00,4.1149
957.00,4.0054
956.00,4.0280
955.00,4.2120
954.00,4.6842
953.00,5.1360
952.00,4.5577
951.00,4.2481
950.00,4.0740
949.00,4.0059
948.00,3.9867
947.00,3.9427
946.00,3.9155
945.00,3.9505
944.00,4.0852
943.00,4.3710
942.00,4.6705
941.00,4.6914
940.00,4.7245
939.00,4.7383
938.00,4.9832
937.00,5.1718
936.00,4.6249
935.00,4.4611
934.00,4.4953
933.00,4.6055
932.00,4.6414
931.00,4.5570
930.00,4.5038
929.00,4.4795
928.00,4.4687
927.00,4.4659
926.00,4.3993
925.00,4.2618
924.00,4.1735
923.00,4.2162
922.00,4.3260
921.00,4.2237
920.00,4.0619
919.00,4.0093
918.00,4.0329
917.00,4.0696
916.00,4.1018
915.00,4.1922
914.00,4.4567
913.00,4.6652
912.00,4.4941
911.00,4.3927
910.00,4.1901
909.00,4.0366
908.00,4.0155
907.00,4.0739
906.00,4.2093
905.00,4.4416
904.00,4.6761
903.00,4.5376
902.00,4.2801
901.00,4.1652
900.00,4.2084
899.00,4.3733
898.00,4.4695
897.00,4.6868
896.00,5.2054
895.00,4.6752
894.00,4.5115
893.00,4.7222
892.00,4.6084
891.00,4.1986
890.00,4.0933
889.00,4.1601
888.00,4.3949
887.00,4.7602
886.00,4.3799
885.00,4.1330
884.00,4.0251
883.00,3.9955
882.00,4.0432
881.00,4.1117
880.00,4.1634
879.00,4.1590
878.00,4.1541
877.00,4.1621
876.00,4.0674
875.00,3.9384
874.00,3.8954
873.00,3.9420
872.00,4.0277
871.00,4.0798
870.00,4.1358
869.00,4.3341
868.00,4.7027
867.00,4.9284
866.00,4.5843
865.00,4.2084
864.00,4.0092
863.00,3.9328
862.00,3.9391
861.00,4.0691
860.00,4.2494
859.00,4.1264
858.00,4.0051
857.00,4.0747
856.00,4.3121
855.00,4.6328
854.00,4.5756
853.00,4.2690
852.00,4.0790
851.00,3.9949
850.00,3.9634
849.00,3.9662
848.00,4.0055
847.00,4.0758
846.00,4.0773
845.00,4.0473
844.00,4.1124
843.00,4.4041
842.00,4.8136
841.00,4.4263
840.00,4.1219
839.00,3.9211
838.00,3.8227
837.00,3.8927
836.00,4.2582
835.00,4.4221
834.00,4.0632
833.00,4.0600
832.00,4.2146
831.00,4.2167
830.00,4.1740
829.00,4.2792
828.00,4.5400
827.00,4.6170
826.00,4.3639
825.00,4.1190
824.00,4.0230
823.00,4.0323
822.00,4.1827
821.00,4.6666
820.00,4.7539
819.00,4.4835
818.00,4.4368
817.00,4.2972
816.00,4.1599
815.00,4.0483
814.00,3.9751
813.00,4.0367
812.00,4.4130
811.00,4.4660
810.00,4.1977
809.00,4.4375
808.00,4.3219
807.00,3.9455
806.00,3.8302
805.00,3.8148
804.00,3.8557
803.00,3.9487
802.00,4.0881
801.00,4.1954
800.00,4.1927
799.00,4.1975
798.00,4.2702
797.00,4.2777
796.00,4.0663
795.00,3.9045
794.00,3.8841
793.00,4.0003
792.00,4.2629
791.00,4.5156
790.00,4.4547
789.00,4.4035
788.00,4.4144
787.00,4.2937
786.00,4.1664
785.00,4.2747
784.00,4.7175
783.00,4.5635
782.00,4.1730
781.00,3.9597
780.00,3.8751
779.00,3.9052
778.00,3.9652
777.00,3.9759
776.00,3.9748
775.00,4.0157
774.00,4.0960
773.00,4.1695
772.00,4.2145
771.00,4.2512
770.00,4.3227
769.00,4.3114
768.00,4.1852
767.00,4.0962
766.00,4.3552
765.00,4.5824
764.00,4.0217
763.00,3.9363
762.00,4.1776
761.00,4.3672
760.00,4.0125
759.00,3.8805
758.00,3.9516
757.00,4.1901
756.00,4.3717
755.00,4.0542
754.00,3.9051
753.00,3.8794
752.00,3.8449
751.00,3.7786
750.00,3.7543
749.00,3.7764
748.00,3.7621
747.00,3.7040
746.00,3.6666
745.00,3.6755
744.00,3.7233
743.00,3.7953
742.00,3.8699
741.00,3.9109
740.00,3.9481
739.00,4.0305
738.00,4.1528
737.00,4.1362
736.00,4.2860
735.00,4.8127
734.00,4.2067
733.00,3.9855
732.00,4.0717
731.00,4.2783
730.00,4.1821
729.00,4.0347
728.00,4.1233
727.00,4.2561
726.00,4.4835
725.00,4.7205
724.00,4.0189
723.00,3.7617
722.00,3.7000
721.00,3.7380
720.00,3.8529
719.00,3.9421
718.00,3.9592
717.00,3.9057
716.00,3.8512
715.00,3.8463
714.00,3.8998
713.00,4.0602
712.00,4.4113
711.00,5.0985
710.00,5.4465
709.00,4.3101
708.00,3.9480
707.00,3.8268
706.00,3.8383
705.00,3.9609
704.00,4.1132
703.00,4.0802
702.00,4.0054
701.00,4.0007
700.00,3.9882
