Created as New Dataset,Sample 052 By Administrator Date Wednesday, November 24 2021
cm-1,A
7502.00,0.5690
7501.00,0.5773
7500.00,0.5857
7499.00,0.5943
7498.00,0.6029
7497.00,0.6116
7496.00,0.6206
7495.00,0.6298
7494.00,0.6390
7493.00,0.6478
7492.00,0.6563
7491.00,0.6649
7490.00,0.6742
7489.00,0.6841
7488.00,0.6938
7487.00,0.7027
7486.00,0.7113
7485.00,0.7201
7484.00,0.7291
7483.00,0.7376
7482.00,0.7448
7481.00,0.7510
7480.00,0.7577
7479.00,0.7657
7478.00,0.7748
7477.00,0.7836
7476.00,0.7914
7475.00,0.7984
7474.00,0.8056
7473.00,0.8134
7472.00,0.8208
7471.00,0.8267
7470.00,0.8310
7469.00,0.8351
7468.00,0.8396
7467.00,0.8443
7466.00,0.8487
7465.00,0.8526
7464.00,0.8562
7463.00,0.8602
7462.00,0.8644
7461.00,0.8681
7460.00,0.8707
7459.00,0.8722
7458.00,0.8729
7457.00,0.8736
7456.00,0.8742
7455.00,0.8745
7454.00,0.8745
7453.00,0.8749
7452.00,0.8760
7451.00,0.8772
7450.00,0.8777
7449.00,0.8771
7448.00,0.8757
7447.00,0.8735
7446.00,0.8708
7445.00,0.8676
7444.00,0.8640
7443.00,0.8601
7442.00,0.8559
7441.00,0.8519
7440.00,0.8485
7439.00,0.8450
7438.00,0.8408
7437.00,0.8355
7436.00,0.8294
7435.00,0.8228
7434.00,0.8157
7433.00,0.8081
7432.00,0.8003
7431.00,0.7928
7430.00,0.7861
7429.00,0.7803
7428.00,0.7755
7427.00,0.7715
7426.00,0.7677
7425.00,0.7634
7424.00,0.7580
7423.00,0.7516
7422.00,0.7445
7421.00,0.7370
7420.00,0.7292
7419.00,0.7207
7418.00,0.7117
7417.00,0.7026
7416.00,0.6942
7415.00,0.6865
7414.00,0.6793
7413.00,0.6719
7412.00,0.6645
7411.00,0.6574
7410.00,0.6511
7409.00,0.6455
7408.00,0.6405
7407.00,0.6356
7406.00,0.6310
7405.00,0.6269
7404.00,0.6231
7403.00,0.6196
7402.00,0.6160
7401.00,0.6121
7400.00,0.6079
7399.00,0.6034
7398.00,0.5991
7397.00,0.5951
7396.00,0.5916
7395.00,0.5884
7394.00,0.5856
7393.00,0.5830
7392.00,0.5808
7391.00,0.5790
7390.00,0.5775
7389.00,0.5764
7388.00,0.5754
7387.00,0.5747
7386.00,0.5742
7385.00,0.5744
7384.00,0.5753
7383.00,0.5766
7382.00,0.5781
7381.00,0.5799
7380.00,0.5823
7379.00,0.5853
7378.00,0.5888
7377.00,0.5925
7376.00,0.5962
7375.00,0.6001
7374.00,0.6044
7373.00,0.6090
7372.00,0.6136
7371.00,0.6183
7370.00,0.6235
7369.00,0.6295
7368.00,0.6359
7367.00,0.6426
7366.00,0.6495
7365.00,0.6569
7364.00,0.6649
7363.00,0.6732
7362.00,0.6818
7361.00,0.6903
7360.00,0.6988
7359.00,0.7071
7358.00,0.7156
7357.00,0.7242
7356.00,0.7329
7355.00,0.7416
7354.00,0.7505
7353.00,0.7595
7352.00,0.7687
7351.00,0.7780
7350.00,0.7871
7349.00,0.7961
7348.00,0.8046
7347.00,0.8129
7346.00,0.8213
7345.00,0.8299
7344.00,0.8385
7343.00,0.8471
7342.00,0.8559
7341.00,0.8652
7340.00,0.8745
7339.00,0.8833
7338.00,0.8913
7337.00,0.8987
7336.00,0.9056
7335.00,0.9122
7334.00,0.9188
7333.00,0.9258
7332.00,0.9333
7331.00,0.9407
7330.00,0.9475
7329.00,0.9542
7328.00,0.9609
7327.00,0.9675
7326.00,0.9733
7325.00,0.9785
7324.00,0.9835
7323.00,0.9889
7322.00,0.9943
7321.00,0.9993
7320.00,1.0038
7319.00,1.0079
7318.00,1.0115
7317.00,1.0146
7316.00,1.0170
7315.00,1.0190
7314.00,1.0205
7313.00,1.0219
7312.00,1.0230
7311.00,1.0236
7310.00,1.0238
7309.00,1.0238
7308.00,1.0241
7307.00,1.0249
7306.00,1.0254
7305.00,1.0249
7304.00,1.0235
7303.00,1.0217
7302.00,1.0203
7301.00,1.0191
7300.00,1.0180
7299.00,1.0164
7298.00,1.0142
7297.00,1.0117
7296.00,1.0090
7295.00,1.0062
7294.00,1.0028
7293.00,0.9984
7292.00,0.9931
7291.00,0.9876
7290.00,0.9821
7289.00,0.9766
7288.00,0.9709
7287.00,0.9650
7286.00,0.9587
7285.00,0.9521
7284.00,0.9452
7283.00,0.9383
7282.00,0.9314
7281.00,0.9243
7280.00,0.9165
7279.00,0.9081
7278.00,0.8995
7277.00,0.8914
7276.00,0.8839
7275.00,0.8766
7274.00,0.8694
7273.00,0.8621
7272.00,0.8547
7271.00,0.8472
7270.00,0.8395
7269.00,0.8313
7268.00,0.8224
7267.00,0.8131
7266.00,0.8039
7265.00,0.7953
7264.00,0.7870
7263.00,0.7790
7262.00,0.7710
7261.00,0.7632
7260.00,0.7558
7259.00,0.7489
7258.00,0.7422
7257.00,0.7358
7256.00,0.7295
7255.00,0.7236
7254.00,0.7182
7253.00,0.7132
7252.00,0.7085
7251.00,0.7039
7250.00,0.6998
7249.00,0.6963
7248.00,0.6935
7247.00,0.6910
7246.00,0.6889
7245.00,0.6872
7244.00,0.6859
7243.00,0.6848
7242.00,0.6838
7241.00,0.6831
7240.00,0.6828
7239.00,0.6831
7238.00,0.6837
7237.00,0.6849
7236.00,0.6868
7235.00,0.6893
7234.00,0.6925
7233.00,0.6965
7232.00,0.7009
7231.00,0.7057
7230.00,0.7105
7229.00,0.7155
7228.00,0.7207
7227.00,0.7264
7226.00,0.7324
7225.00,0.7387
7224.00,0.7450
7223.00,0.7515
7222.00,0.7585
7221.00,0.7660
7220.00,0.7740
7219.00,0.7821
7218.00,0.7900
7217.00,0.7979
7216.00,0.8060
7215.00,0.8143
7214.00,0.8227
7213.00,0.8312
7212.00,0.8395
7211.00,0.8475
7210.00,0.8554
7209.00,0.8634
7208.00,0.8714
7207.00,0.8795
7206.00,0.8876
7205.00,0.8956
7204.00,0.9035
7203.00,0.9114
7202.00,0.9197
7201.00,0.9282
7200.00,0.9369
7199.00,0.9450
7198.00,0.9524
7197.00,0.9596
7196.00,0.9669
7195.00,0.9745
7194.00,0.9818
7193.00,0.9886
7192.00,0.9950
7191.00,1.0013
7190.00,1.0075
7189.00,1.0135
7188.00,1.0191
7187.00,1.0242
7186.00,1.0287
7185.00,1.0330
7184.00,1.0376
7183.00,1.0425
7182.00,1.0475
7181.00,1.0521
7180.00,1.0561
7179.00,1.0597
7178.00,1.0629
7177.00,1.0659
7176.00,1.0687
7175.00,1.0710
7174.00,1.0728
7173.00,1.0744
7172.00,1.0760
7171.00,1.0776
7170.00,1.0787
7169.00,1.0790
7168.00,1.0782
7167.00,1.0768
7166.00,1.0752
7165.00,1.0733
7164.00,1.0710
7163.00,1.0686
7162.00,1.0661
7161.00,1.0636
7160.00,1.0608
7159.00,1.0577
7158.00,1.0544
7157.00,1.0509
7156.00,1.0470
7155.00,1.0428
7154.00,1.0384
7153.00,1.0339
7152.00,1.0291
7151.00,1.0239
7150.00,1.0184
7149.00,1.0127
7148.00,1.0070
7147.00,1.0013
7146.00,0.9953
7145.00,0.9889
7144.00,0.9816
7143.00,0.9741
7142.00,0.9666
7141.00,0.9594
7140.00,0.9522
7139.00,0.9448
7138.00,0.9375
7137.00,0.9303
7136.00,0.9230
7135.00,0.9153
7134.00,0.9075
7133.00,0.8994
7132.00,0.8910
7131.00,0.8821
7130.00,0.8731
7129.00,0.8643
7128.00,0.8559
7127.00,0.8476
7126.00,0.8392
7125.00,0.8309
7124.00,0.8231
7123.00,0.8157
7122.00,0.8086
7121.00,0.8015
7120.00,0.7942
7119.00,0.7871
7118.00,0.7802
7117.00,0.7735
7116.00,0.7668
7115.00,0.7601
7114.00,0.7536
7113.00,0.7477
7112.00,0.7423
7111.00,0.7376
7110.00,0.7334
7109.00,0.7296
7108.00,0.7260
7107.00,0.7227
7106.00,0.7199
7105.00,0.7176
7104.00,0.7155
7103.00,0.7135
7102.00,0.7119
7101.00,0.7108
7100.00,0.7104
7099.00,0.7104
7098.00,0.7109
7097.00,0.7119
7096.00,0.7133
7095.00,0.7151
7094.00,0.7172
7093.00,0.7198
7092.00,0.7229
7091.00,0.7265
7090.00,0.7307
7089.00,0.7353
7088.00,0.7403
7087.00,0.7455
7086.00,0.7512
7085.00,0.7571
7084.00,0.7632
7083.00,0.7695
7082.00,0.7761
7081.00,0.7830
7080.00,0.7901
7079.00,0.7973
7078.00,0.8047
7077.00,0.8123
7076.00,0.8200
7075.00,0.8278
7074.00,0.8359
7073.00,0.8444
7072.00,0.8532
7071.00,0.8622
7070.00,0.8711
7069.00,0.8802
7068.00,0.8892
7067.00,0.8980
7066.00,0.9066
7065.00,0.9150
7064.00,0.9234
7063.00,0.9318
7062.00,0.9404
7061.00,0.9489
7060.00,0.9570
7059.00,0.9648
7058.00,0.9728
7057.00,0.9810
7056.00,0.9894
7055.00,0.9974
7054.00,1.0051
7053.00,1.0125
7052.00,1.0195
7051.00,1.0262
7050.00,1.0327
7049.00,1.0394
7048.00,1.0464
7047.00,1.0536
7046.00,1.0610
7045.00,1.0686
7044.00,1.0759
7043.00,1.0821
7042.00,1.0869
7041.00,1.0910
7040.00,1.0950
7039.00,1.0991
7038.00,1.1033
7037.00,1.1076
7036.00,1.1119
7035.00,1.1163
7034.00,1.1204
7033.00,1.1239
7032.00,1.1265
7031.00,1.1281
7030.00,1.1291
7029.00,1.1302
7028.00,1.1317
7027.00,1.1332
7026.00,1.1345
7025.00,1.1355
7024.00,1.1363
7023.00,1.1367
7022.00,1.1363
7021.00,1.1351
7020.00,1.1331
7019.00,1.1310
7018.00,1.1291
7017.00,1.1273
7016.00,1.1254
7015.00,1.1230
7014.00,1.1200
7013.00,1.1163
7012.00,1.1120
7011.00,1.1073
7010.00,1.1026
7009.00,1.0981
7008.00,1.0937
7007.00,1.0888
7006.00,1.0833
7005.00,1.0774
7004.00,1.0714
7003.00,1.0652
7002.00,1.0588
7001.00,1.0520
7000.00,1.0448
6999.00,1.0371
6998.00,1.0293
6997.00,1.0215
6996.00,1.0137
6995.00,1.0057
6994.00,0.9974
6993.00,0.9890
6992.00,0.9806
6991.00,0.9720
6990.00,0.9629
6989.00,0.9536
6988.00,0.9441
6987.00,0.9347
6986.00,0.9256
6985.00,0.9167
6984.00,0.9079
6983.00,0.8989
6982.00,0.8895
6981.00,0.8800
6980.00,0.8706
6979.00,0.8617
6978.00,0.8532
6977.00,0.8453
6976.00,0.8377
6975.00,0.8304
6974.00,0.8234
6973.00,0.8166
6972.00,0.8098
6971.00,0.8030
6970.00,0.7963
6969.00,0.7901
6968.00,0.7844
6967.00,0.7791
6966.00,0.7743
6965.00,0.7701
6964.00,0.7663
6963.00,0.7630
6962.00,0.7600
6961.00,0.7574
6960.00,0.7553
6959.00,0.7537
6958.00,0.7527
6957.00,0.7523
6956.00,0.7524
6955.00,0.7530
6954.00,0.7541
6953.00,0.7558
6952.00,0.7581
6951.00,0.7608
6950.00,0.7638
6949.00,0.7671
6948.00,0.7709
6947.00,0.7752
6946.00,0.7800
6945.00,0.7852
6944.00,0.7907
6943.00,0.7966
6942.00,0.8027
6941.00,0.8091
6940.00,0.8156
6939.00,0.8222
6938.00,0.8292
6937.00,0.8366
6936.00,0.8444
6935.00,0.8524
6934.00,0.8605
6933.00,0.8687
6932.00,0.8768
6931.00,0.8849
6930.00,0.8932
6929.00,0.9017
6928.00,0.9103
6927.00,0.9189
6926.00,0.9277
6925.00,0.9364
6924.00,0.9448
6923.00,0.9526
6922.00,0.9604
6921.00,0.9687
6920.00,0.9775
6919.00,0.9863
6918.00,0.9950
6917.00,1.0036
6916.00,1.0119
6915.00,1.0195
6914.00,1.0267
6913.00,1.0337
6912.00,1.0408
6911.00,1.0478
6910.00,1.0547
6909.00,1.0617
6908.00,1.0690
6907.00,1.0760
6906.00,1.0826
6905.00,1.0887
6904.00,1.0946
6903.00,1.1003
6902.00,1.1057
6901.00,1.1106
6900.00,1.1150
6899.00,1.1193
6898.00,1.1234
6897.00,1.1271
6896.00,1.1307
6895.00,1.1344
6894.00,1.1381
6893.00,1.1416
6892.00,1.1445
6891.00,1.1469
6890.00,1.1489
6889.00,1.1504
6888.00,1.1514
6887.00,1.1520
6886.00,1.1523
6885.00,1.1524
6884.00,1.1522
6883.00,1.1518
6882.00,1.1512
6881.00,1.1502
6880.00,1.1486
6879.00,1.1465
6878.00,1.1440
6877.00,1.1412
6876.00,1.1380
6875.00,1.1343
6874.00,1.1303
6873.00,1.1260
6872.00,1.1212
6871.00,1.1160
6870.00,1.1109
6869.00,1.1061
6868.00,1.1008
6867.00,1.0947
6866.00,1.0881
6865.00,1.0817
6864.00,1.0753
6863.00,1.0682
6862.00,1.0604
6861.00,1.0525
6860.00,1.0450
6859.00,1.0376
6858.00,1.0299
6857.00,1.0219
6856.00,1.0136
6855.00,1.0051
6854.00,0.9965
6853.00,0.9876
6852.00,0.9784
6851.00,0.9688
6850.00,0.9591
6849.00,0.9497
6848.00,0.9406
6847.00,0.9314
6846.00,0.9220
6845.00,0.9126
6844.00,0.9034
6843.00,0.8942
6842.00,0.8850
6841.00,0.8759
6840.00,0.8669
6839.00,0.8583
6838.00,0.8501
6837.00,0.8423
6836.00,0.8347
6835.00,0.8272
6834.00,0.8200
6833.00,0.8130
6832.00,0.8062
6831.00,0.7996
6830.00,0.7931
6829.00,0.7871
6828.00,0.7816
6827.00,0.7764
6826.00,0.7714
6825.00,0.7669
6824.00,0.7628
6823.00,0.7591
6822.00,0.7558
6821.00,0.7530
6820.00,0.7507
6819.00,0.7489
6818.00,0.7476
6817.00,0.7467
6816.00,0.7463
6815.00,0.7463
6814.00,0.7467
6813.00,0.7477
6812.00,0.7491
6811.00,0.7508
6810.00,0.7529
6809.00,0.7555
6808.00,0.7588
6807.00,0.7627
6806.00,0.7672
6805.00,0.7722
6804.00,0.7775
6803.00,0.7832
6802.00,0.7892
6801.00,0.7952
6800.00,0.8013
6799.00,0.8076
6798.00,0.8142
6797.00,0.8214
6796.00,0.8290
6795.00,0.8367
6794.00,0.8447
6793.00,0.8529
6792.00,0.8614
6791.00,0.8700
6790.00,0.8787
6789.00,0.8874
6788.00,0.8961
6787.00,0.9048
6786.00,0.9136
6785.00,0.9224
6784.00,0.9312
6783.00,0.9401
6782.00,0.9491
6781.00,0.9584
6780.00,0.9677
6779.00,0.9769
6778.00,0.9860
6777.00,0.9952
6776.00,1.0045
6775.00,1.0136
6774.00,1.0223
6773.00,1.0306
6772.00,1.0385
6771.00,1.0462
6770.00,1.0539
6769.00,1.0619
6768.00,1.0700
6767.00,1.0779
6766.00,1.0856
6765.00,1.0929
6764.00,1.1000
6763.00,1.1066
6762.00,1.1127
6761.00,1.1185
6760.00,1.1242
6759.00,1.1300
6758.00,1.1359
6757.00,1.1415
6756.00,1.1465
6755.00,1.1508
6754.00,1.1546
6753.00,1.1585
6752.00,1.1627
6751.00,1.1669
6750.00,1.1705
6749.00,1.1731
6748.00,1.1748
6747.00,1.1762
6746.00,1.1778
6745.00,1.1793
6744.00,1.1803
6743.00,1.1810
6742.00,1.1818
6741.00,1.1831
6740.00,1.1842
6739.00,1.1845
6738.00,1.1838
6737.00,1.1825
6736.00,1.1811
6735.00,1.1796
6734.00,1.1777
6733.00,1.1752
6732.00,1.1723
6731.00,1.1691
6730.00,1.1655
6729.00,1.1615
6728.00,1.1569
6727.00,1.1520
6726.00,1.1469
6725.00,1.1417
6724.00,1.1362
6723.00,1.1305
6722.00,1.1249
6721.00,1.1191
6720.00,1.1130
6719.00,1.1062
6718.00,1.0989
6717.00,1.0914
6716.00,1.0837
6715.00,1.0760
6714.00,1.0681
6713.00,1.0600
6712.00,1.0516
6711.00,1.0428
6710.00,1.0336
6709.00,1.0243
6708.00,1.0149
6707.00,1.0051
6706.00,0.9952
6705.00,0.9854
6704.00,0.9757
6703.00,0.9659
6702.00,0.9560
6701.00,0.9460
6700.00,0.9362
6699.00,0.9265
6698.00,0.9170
6697.00,0.9077
6696.00,0.8985
6695.00,0.8893
6694.00,0.8802
6693.00,0.8714
6692.00,0.8627
6691.00,0.8542
6690.00,0.8460
6689.00,0.8382
6688.00,0.8309
6687.00,0.8238
6686.00,0.8170
6685.00,0.8106
6684.00,0.8047
6683.00,0.7990
6682.00,0.7937
6681.00,0.7888
6680.00,0.7844
6679.00,0.7804
6678.00,0.7769
6677.00,0.7740
6676.00,0.7717
6675.00,0.7700
6674.00,0.7690
6673.00,0.7687
6672.00,0.7689
6671.00,0.7696
6670.00,0.7709
6669.00,0.7726
6668.00,0.7747
6667.00,0.7770
6666.00,0.7799
6665.00,0.7833
6664.00,0.7875
6663.00,0.7921
6662.00,0.7971
6661.00,0.8025
6660.00,0.8083
6659.00,0.8146
6658.00,0.8212
6657.00,0.8280
6656.00,0.8349
6655.00,0.8419
6654.00,0.8493
6653.00,0.8569
6652.00,0.8649
6651.00,0.8730
6650.00,0.8814
6649.00,0.8900
6648.00,0.8987
6647.00,0.9074
6646.00,0.9158
6645.00,0.9243
6644.00,0.9330
6643.00,0.9420
6642.00,0.9514
6641.00,0.9610
6640.00,0.9707
6639.00,0.9802
6638.00,0.9894
6637.00,0.9981
6636.00,1.0067
6635.00,1.0151
6634.00,1.0234
6633.00,1.0318
6632.00,1.0404
6631.00,1.0489
6630.00,1.0571
6629.00,1.0649
6628.00,1.0723
6627.00,1.0796
6626.00,1.0869
6625.00,1.0939
6624.00,1.1007
6623.00,1.1075
6622.00,1.1143
6621.00,1.1209
6620.00,1.1271
6619.00,1.1329
6618.00,1.1384
6617.00,1.1434
6616.00,1.1480
6615.00,1.1522
6614.00,1.1562
6613.00,1.1600
6612.00,1.1637
6611.00,1.1672
6610.00,1.1703
6609.00,1.1731
6608.00,1.1755
6607.00,1.1775
6606.00,1.1791
6605.00,1.1802
6604.00,1.1809
6603.00,1.1815
6602.00,1.1823
6601.00,1.1833
6600.00,1.1838
6599.00,1.1834
6598.00,1.1823
6597.00,1.1808
6596.00,1.1790
6595.00,1.1770
6594.00,1.1746
6593.00,1.1717
6592.00,1.1685
6591.00,1.1648
6590.00,1.1606
6589.00,1.1559
6588.00,1.1509
6587.00,1.1458
6586.00,1.1408
6585.00,1.1358
6584.00,1.1306
6583.00,1.1251
6582.00,1.1190
6581.00,1.1122
6580.00,1.1046
6579.00,1.0966
6578.00,1.0885
6577.00,1.0806
6576.00,1.0724
6575.00,1.0640
6574.00,1.0555
6573.00,1.0470
6572.00,1.0385
6571.00,1.0300
6570.00,1.0212
6569.00,1.0124
6568.00,1.0032
6567.00,0.9937
6566.00,0.9838
6565.00,0.9737
6564.00,0.9635
6563.00,0.9532
6562.00,0.9431
6561.00,0.9331
6560.00,0.9233
6559.00,0.9137
6558.00,0.9042
6557.00,0.8947
6556.00,0.8854
6555.00,0.8762
6554.00,0.8672
6553.00,0.8584
6552.00,0.8498
6551.00,0.8414
6550.00,0.8334
6549.00,0.8256
6548.00,0.8180
6547.00,0.8108
6546.00,0.8039
6545.00,0.7975
6544.00,0.7913
6543.00,0.7854
6542.00,0.7799
6541.00,0.7748
6540.00,0.7701
6539.00,0.7657
6538.00,0.7619
6537.00,0.7587
6536.00,0.7560
6535.00,0.7539
6534.00,0.7522
6533.00,0.7511
6532.00,0.7505
6531.00,0.7504
6530.00,0.7507
6529.00,0.7516
6528.00,0.7530
6527.00,0.7549
6526.00,0.7574
6525.00,0.7604
6524.00,0.7640
6523.00,0.7678
6522.00,0.7722
6521.00,0.7772
6520.00,0.7826
6519.00,0.7882
6518.00,0.7941
6517.00,0.8003
6516.00,0.8069
6515.00,0.8138
6514.00,0.8212
6513.00,0.8289
6512.00,0.8370
6511.00,0.8452
6510.00,0.8535
6509.00,0.8622
6508.00,0.8711
6507.00,0.8801
6506.00,0.8892
6505.00,0.8985
6504.00,0.9081
6503.00,0.9176
6502.00,0.9272
6501.00,0.9368
6500.00,0.9464
6499.00,0.9558
6498.00,0.9652
6497.00,0.9746
6496.00,0.9839
6495.00,0.9934
6494.00,1.0029
6493.00,1.0125
6492.00,1.0219
6491.00,1.0312
6490.00,1.0403
6489.00,1.0493
6488.00,1.0580
6487.00,1.0664
6486.00,1.0745
6485.00,1.0824
6484.00,1.0901
6483.00,1.0976
6482.00,1.1049
6481.00,1.1124
6480.00,1.1198
6479.00,1.1270
6478.00,1.1337
6477.00,1.1400
6476.00,1.1461
6475.00,1.1517
6474.00,1.1569
6473.00,1.1619
6472.00,1.1669
6471.00,1.1717
6470.00,1.1761
6469.00,1.1801
6468.00,1.1836
6467.00,1.1867
6466.00,1.1894
6465.00,1.1920
6464.00,1.1947
6463.00,1.1973
6462.00,1.1997
6461.00,1.2017
6460.00,1.2033
6459.00,1.2043
6458.00,1.2047
6457.00,1.2045
6456.00,1.2041
6455.00,1.2033
6454.00,1.2022
6453.00,1.2009
6452.00,1.1995
6451.00,1.1977
6450.00,1.1953
6449.00,1.1925
6448.00,1.1892
6447.00,1.1859
6446.00,1.1822
6445.00,1.1781
6444.00,1.1735
6443.00,1.1685
6442.00,1.1632
6441.00,1.1575
6440.00,1.1513
6439.00,1.1449
6438.00,1.1384
6437.00,1.1319
6436.00,1.1251
6435.00,1.1178
6434.00,1.1100
6433.00,1.1019
6432.00,1.0937
6431.00,1.0852
6430.00,1.0763
6429.00,1.0673
6428.00,1.0582
6427.00,1.0490
6426.00,1.0393
6425.00,1.0292
6424.00,1.0187
6423.00,1.0081
6422.00,0.9976
6421.00,0.9873
6420.00,0.9769
6419.00,0.9665
6418.00,0.9562
6417.00,0.9458
6416.00,0.9353
6415.00,0.9247
6414.00,0.9141
6413.00,0.9036
6412.00,0.8934
6411.00,0.8833
6410.00,0.8735
6409.00,0.8639
6408.00,0.8545
6407.00,0.8454
6406.00,0.8365
6405.00,0.8281
6404.00,0.8200
6403.00,0.8123
6402.00,0.8050
6401.00,0.7981
6400.00,0.7915
6399.00,0.7854
6398.00,0.7796
6397.00,0.7745
6396.00,0.7699
6395.00,0.7658
6394.00,0.7624
6393.00,0.7595
6392.00,0.7573
6391.00,0.7558
6390.00,0.7549
6389.00,0.7546
6388.00,0.7548
6387.00,0.7554
6386.00,0.7565
6385.00,0.7582
6384.00,0.7604
6383.00,0.7631
6382.00,0.7663
6381.00,0.7703
6380.00,0.7748
6379.00,0.7798
6378.00,0.7852
6377.00,0.7909
6376.00,0.7971
6375.00,0.8036
6374.00,0.8106
6373.00,0.8178
6372.00,0.8254
6371.00,0.8332
6370.00,0.8413
6369.00,0.8497
6368.00,0.8585
6367.00,0.8675
6366.00,0.8766
6365.00,0.8857
6364.00,0.8949
6363.00,0.9042
6362.00,0.9136
6361.00,0.9230
6360.00,0.9324
6359.00,0.9417
6358.00,0.9511
6357.00,0.9605
6356.00,0.9699
6355.00,0.9795
6354.00,0.9891
6353.00,0.9989
6352.00,1.0086
6351.00,1.0179
6350.00,1.0269
6349.00,1.0356
6348.00,1.0441
6347.00,1.0526
6346.00,1.0611
6345.00,1.0695
6344.00,1.0777
6343.00,1.0856
6342.00,1.0936
6341.00,1.1015
6340.00,1.1092
6339.00,1.1163
6338.00,1.1229
6337.00,1.1293
6336.00,1.1354
6335.00,1.1413
6334.00,1.1471
6333.00,1.1530
6332.00,1.1589
6331.00,1.1643
6330.00,1.1693
6329.00,1.1738
6328.00,1.1778
6327.00,1.1813
6326.00,1.1847
6325.00,1.1880
6324.00,1.1911
6323.00,1.1936
6322.00,1.1955
6321.00,1.1969
6320.00,1.1979
6319.00,1.1983
6318.00,1.1983
6317.00,1.1980
6316.00,1.1974
6315.00,1.1965
6314.00,1.1952
6313.00,1.1937
6312.00,1.1918
6311.00,1.1894
6310.00,1.1865
6309.00,1.1832
6308.00,1.1797
6307.00,1.1759
6306.00,1.1720
6305.00,1.1678
6304.00,1.1634
6303.00,1.1586
6302.00,1.1533
6301.00,1.1473
6300.00,1.1409
6299.00,1.1341
6298.00,1.1271
6297.00,1.1203
6296.00,1.1134
6295.00,1.1063
6294.00,1.0988
6293.00,1.0908
6292.00,1.0824
6291.00,1.0734
6290.00,1.0641
6289.00,1.0547
6288.00,1.0453
6287.00,1.0359
6286.00,1.0263
6285.00,1.0163
6284.00,1.0062
6283.00,0.9959
6282.00,0.9855
6281.00,0.9750
6280.00,0.9642
6279.00,0.9534
6278.00,0.9426
6277.00,0.9320
6276.00,0.9215
6275.00,0.9111
6274.00,0.9009
6273.00,0.8908
6272.00,0.8808
6271.00,0.8708
6270.00,0.8607
6269.00,0.8508
6268.00,0.8411
6267.00,0.8318
6266.00,0.8227
6265.00,0.8139
6264.00,0.8054
6263.00,0.7973
6262.00,0.7895
6261.00,0.7822
6260.00,0.7753
6259.00,0.7687
6258.00,0.7626
6257.00,0.7569
6256.00,0.7517
6255.00,0.7469
6254.00,0.7426
6253.00,0.7389
6252.00,0.7356
6251.00,0.7329
6250.00,0.7308
6249.00,0.7294
6248.00,0.7286
6247.00,0.7285
6246.00,0.7290
6245.00,0.7301
6244.00,0.7316
6243.00,0.7337
6242.00,0.7363
6241.00,0.7395
6240.00,0.7432
6239.00,0.7475
6238.00,0.7522
6237.00,0.7576
6236.00,0.7634
6235.00,0.7696
6234.00,0.7764
6233.00,0.7836
6232.00,0.7911
6231.00,0.7986
6230.00,0.8065
6229.00,0.8146
6228.00,0.8231
6227.00,0.8318
6226.00,0.8408
6225.00,0.8501
6224.00,0.8598
6223.00,0.8697
6222.00,0.8796
6221.00,0.8894
6220.00,0.8992
6219.00,0.9091
6218.00,0.9190
6217.00,0.9289
6216.00,0.9387
6215.00,0.9486
6214.00,0.9588
6213.00,0.9692
6212.00,0.9795
6211.00,0.9894
6210.00,0.9992
6209.00,1.0091
6208.00,1.0189
6207.00,1.0285
6206.00,1.0377
6205.00,1.0467
6204.00,1.0556
6203.00,1.0644
6202.00,1.0731
6201.00,1.0815
6200.00,1.0898
6199.00,1.0979
6198.00,1.1058
6197.00,1.1132
6196.00,1.1202
6195.00,1.1268
6194.00,1.1333
6193.00,1.1398
6192.00,1.1462
6191.00,1.1524
6190.00,1.1581
6189.00,1.1633
6188.00,1.1682
6187.00,1.1727
6186.00,1.1771
6185.00,1.1812
6184.00,1.1848
6183.00,1.1881
6182.00,1.1912
6181.00,1.1940
6180.00,1.1965
6179.00,1.1984
6178.00,1.1999
6177.00,1.2011
6176.00,1.2021
6175.00,1.2027
6174.00,1.2029
6173.00,1.2027
6172.00,1.2023
6171.00,1.2016
6170.00,1.2008
6169.00,1.1996
6168.00,1.1980
6167.00,1.1959
6166.00,1.1931
6165.00,1.1899
6164.00,1.1865
6163.00,1.1828
6162.00,1.1786
6161.00,1.1741
6160.00,1.1691
6159.00,1.1638
6158.00,1.1581
6157.00,1.1521
6156.00,1.1457
6155.00,1.1390
6154.00,1.1323
6153.00,1.1255
6152.00,1.1182
6151.00,1.1104
6150.00,1.1022
6149.00,1.0938
6148.00,1.0852
6147.00,1.0761
6146.00,1.0667
6145.00,1.0569
6144.00,1.0468
6143.00,1.0366
6142.00,1.0262
6141.00,1.0157
6140.00,1.0052
6139.00,0.9945
6138.00,0.9836
6137.00,0.9723
6136.00,0.9609
6135.00,0.9494
6134.00,0.9379
6133.00,0.9264
6132.00,0.9149
6131.00,0.9036
6130.00,0.8923
6129.00,0.8812
6128.00,0.8702
6127.00,0.8592
6126.00,0.8486
6125.00,0.8383
6124.00,0.8283
6123.00,0.8185
6122.00,0.8089
6121.00,0.7997
6120.00,0.7907
6119.00,0.7821
6118.00,0.7740
6117.00,0.7664
6116.00,0.7595
6115.00,0.7531
6114.00,0.7474
6113.00,0.7423
6112.00,0.7377
6111.00,0.7336
6110.00,0.7300
6109.00,0.7271
6108.00,0.7247
6107.00,0.7230
6106.00,0.7220
6105.00,0.7217
6104.00,0.7220
6103.00,0.7229
6102.00,0.7244
6101.00,0.7265
6100.00,0.7292
6099.00,0.7325
6098.00,0.7363
6097.00,0.7408
6096.00,0.7458
6095.00,0.7515
6094.00,0.7576
6093.00,0.7643
6092.00,0.7714
6091.00,0.7788
6090.00,0.7863
6089.00,0.7940
6088.00,0.8019
6087.00,0.8101
6086.00,0.8186
6085.00,0.8276
6084.00,0.8369
6083.00,0.8464
6082.00,0.8562
6081.00,0.8663
6080.00,0.8764
6079.00,0.8866
6078.00,0.8968
6077.00,0.9072
6076.00,0.9177
6075.00,0.9279
6074.00,0.9379
6073.00,0.9478
6072.00,0.9578
6071.00,0.9678
6070.00,0.9777
6069.00,0.9876
6068.00,0.9975
6067.00,1.0073
6066.00,1.0170
6065.00,1.0266
6064.00,1.0359
6063.00,1.0451
6062.00,1.0541
6061.00,1.0629
6060.00,1.0716
6059.00,1.0799
6058.00,1.0878
6057.00,1.0954
6056.00,1.1028
6055.00,1.1100
6054.00,1.1169
6053.00,1.1235
6052.00,1.1298
6051.00,1.1361
6050.00,1.1423
6049.00,1.1481
6048.00,1.1533
6047.00,1.1581
6046.00,1.1628
6045.00,1.1674
6044.00,1.1717
6043.00,1.1756
6042.00,1.1791
6041.00,1.1823
6040.00,1.1850
6039.00,1.1871
6038.00,1.1889
6037.00,1.1906
6036.00,1.1922
6035.00,1.1934
6034.00,1.1941
6033.00,1.1943
6032.00,1.1942
6031.00,1.1937
6030.00,1.1928
6029.00,1.1915
6028.00,1.1898
6027.00,1.1878
6026.00,1.1857
6025.00,1.1832
6024.00,1.1803
6023.00,1.1772
6022.00,1.1740
6021.00,1.1705
6020.00,1.1666
6019.00,1.1621
6018.00,1.1573
6017.00,1.1523
6016.00,1.1470
6015.00,1.1412
6014.00,1.1349
6013.00,1.1282
6012.00,1.1211
6011.00,1.1136
6010.00,1.1056
6009.00,1.0973
6008.00,1.0886
6007.00,1.0798
6006.00,1.0709
6005.00,1.0619
6004.00,1.0525
6003.00,1.0425
6002.00,1.0322
6001.00,1.0218
6000.00,1.0113
5999.00,1.0006
5998.00,0.9898
5997.00,0.9790
5996.00,0.9680
5995.00,0.9567
5994.00,0.9450
5993.00,0.9332
5992.00,0.9214
5991.00,0.9097
5990.00,0.8980
5989.00,0.8863
5988.00,0.8747
5987.00,0.8631
5986.00,0.8518
5985.00,0.8409
5984.00,0.8302
5983.00,0.8199
5982.00,0.8098
5981.00,0.8001
5980.00,0.7907
5979.00,0.7815
5978.00,0.7726
5977.00,0.7643
5976.00,0.7565
5975.00,0.7492
5974.00,0.7425
5973.00,0.7362
5972.00,0.7305
5971.00,0.7254
5970.00,0.7209
5969.00,0.7174
5968.00,0.7146
5967.00,0.7128
5966.00,0.7117
5965.00,0.7114
5964.00,0.7118
5963.00,0.7128
5962.00,0.7144
5961.00,0.7166
5960.00,0.7195
5959.00,0.7231
5958.00,0.7273
5957.00,0.7320
5956.00,0.7372
5955.00,0.7428
5954.00,0.7487
5953.00,0.7549
5952.00,0.7611
5951.00,0.7674
5950.00,0.7738
5949.00,0.7804
5948.00,0.7872
5947.00,0.7943
5946.00,0.8016
5945.00,0.8093
5944.00,0.8175
5943.00,0.8260
5942.00,0.8348
5941.00,0.8439
5940.00,0.8532
5939.00,0.8628
5938.00,0.8726
5937.00,0.8826
5936.00,0.8929
5935.00,0.9033
5934.00,0.9137
5933.00,0.9240
5932.00,0.9342
5931.00,0.9445
5930.00,0.9547
5929.00,0.9649
5928.00,0.9751
5927.00,0.9856
5926.00,0.9961
5925.00,1.0067
5924.00,1.0170
5923.00,1.0271
5922.00,1.0372
5921.00,1.0470
5920.00,1.0566
5919.00,1.0662
5918.00,1.0757
5917.00,1.0849
5916.00,1.0934
5915.00,1.1016
5914.00,1.1095
5913.00,1.1172
5912.00,1.1248
5911.00,1.1320
5910.00,1.1391
5909.00,1.1459
5908.00,1.1523
5907.00,1.1583
5906.00,1.1639
5905.00,1.1694
5904.00,1.1747
5903.00,1.1797
5902.00,1.1842
5901.00,1.1883
5900.00,1.1920
5899.00,1.1954
5898.00,1.1987
5897.00,1.2015
5896.00,1.2039
5895.00,1.2057
5894.00,1.2072
5893.00,1.2083
5892.00,1.2090
5891.00,1.2094
5890.00,1.2098
5889.00,1.2100
5888.00,1.2097
5887.00,1.2089
5886.00,1.2075
5885.00,1.2059
5884.00,1.2040
5883.00,1.2016
5882.00,1.1988
5881.00,1.1957
5880.00,1.1921
5879.00,1.1878
5878.00,1.1830
5877.00,1.1777
5876.00,1.1721
5875.00,1.1662
5874.00,1.1602
5873.00,1.1540
5872.00,1.1475
5871.00,1.1404
5870.00,1.1329
5869.00,1.1251
5868.00,1.1170
5867.00,1.1086
5866.00,1.1001
5865.00,1.0914
5864.00,1.0824
5863.00,1.0731
5862.00,1.0634
5861.00,1.0535
5860.00,1.0433
5859.00,1.0327
5858.00,1.0219
5857.00,1.0110
5856.00,0.9998
5855.00,0.9884
5854.00,0.9766
5853.00,0.9647
5852.00,0.9528
5851.00,0.9408
5850.00,0.9289
5849.00,0.9173
5848.00,0.9057
5847.00,0.8940
5846.00,0.8824
5845.00,0.8710
5844.00,0.8598
5843.00,0.8488
5842.00,0.8382
5841.00,0.8280
5840.00,0.8182
5839.00,0.8086
5838.00,0.7993
5837.00,0.7904
5836.00,0.7818
5835.00,0.7736
5834.00,0.7659
5833.00,0.7586
5832.00,0.7518
5831.00,0.7454
5830.00,0.7395
5829.00,0.7341
5828.00,0.7292
5827.00,0.7247
5826.00,0.7208
5825.00,0.7175
5824.00,0.7148
5823.00,0.7128
5822.00,0.7115
5821.00,0.7110
5820.00,0.7111
5819.00,0.7119
5818.00,0.7133
5817.00,0.7154
5816.00,0.7181
5815.00,0.7213
5814.00,0.7253
5813.00,0.7298
5812.00,0.7350
5811.00,0.7407
5810.00,0.7469
5809.00,0.7537
5808.00,0.7610
5807.00,0.7686
5806.00,0.7767
5805.00,0.7851
5804.00,0.7939
5803.00,0.8029
5802.00,0.8124
5801.00,0.8221
5800.00,0.8320
5799.00,0.8420
5798.00,0.8521
5797.00,0.8624
5796.00,0.8729
5795.00,0.8834
5794.00,0.8941
5793.00,0.9049
5792.00,0.9157
5791.00,0.9263
5790.00,0.9370
5789.00,0.9478
5788.00,0.9588
5787.00,0.9697
5786.00,0.9806
5785.00,0.9913
5784.00,1.0019
5783.00,1.0123
5782.00,1.0225
5781.00,1.0326
5780.00,1.0427
5779.00,1.0526
5778.00,1.0623
5777.00,1.0717
5776.00,1.0810
5775.00,1.0900
5774.00,1.0987
5773.00,1.1073
5772.00,1.1157
5771.00,1.1236
5770.00,1.1310
5769.00,1.1382
5768.00,1.1453
5767.00,1.1522
5766.00,1.1589
5765.00,1.1653
5764.00,1.1715
5763.00,1.1771
5762.00,1.1821
5761.00,1.1865
5760.00,1.1905
5759.00,1.1944
5758.00,1.1982
5757.00,1.2018
5756.00,1.2053
5755.00,1.2087
5754.00,1.2117
5753.00,1.2140
5752.00,1.2157
5751.00,1.2168
5750.00,1.2174
5749.00,1.2179
5748.00,1.2180
5747.00,1.2179
5746.00,1.2173
5745.00,1.2162
5744.00,1.2148
5743.00,1.2128
5742.00,1.2104
5741.00,1.2076
5740.00,1.2045
5739.00,1.2010
5738.00,1.1973
5737.00,1.1935
5736.00,1.1897
5735.00,1.1857
5734.00,1.1812
5733.00,1.1762
5732.00,1.1706
5731.00,1.1643
5730.00,1.1574
5729.00,1.1500
5728.00,1.1424
5727.00,1.1346
5726.00,1.1264
5725.00,1.1180
5724.00,1.1093
5723.00,1.1004
5722.00,1.0911
5721.00,1.0815
5720.00,1.0715
5719.00,1.0611
5718.00,1.0504
5717.00,1.0393
5716.00,1.0279
5715.00,1.0164
5714.00,1.0045
5713.00,0.9923
5712.00,0.9799
5711.00,0.9673
5710.00,0.9548
5709.00,0.9423
5708.00,0.9299
5707.00,0.9176
5706.00,0.9051
5705.00,0.8924
5704.00,0.8797
5703.00,0.8670
5702.00,0.8546
5701.00,0.8424
5700.00,0.8304
5699.00,0.8187
5698.00,0.8072
5697.00,0.7959
5696.00,0.7848
5695.00,0.7740
5694.00,0.7636
5693.00,0.7537
5692.00,0.7442
5691.00,0.7352
5690.00,0.7268
5689.00,0.7191
5688.00,0.7122
5687.00,0.7059
5686.00,0.7003
5685.00,0.6954
5684.00,0.6912
5683.00,0.6878
5682.00,0.6850
5681.00,0.6830
5680.00,0.6818
5679.00,0.6814
5678.00,0.6817
5677.00,0.6827
5676.00,0.6844
5675.00,0.6868
5674.00,0.6899
5673.00,0.6938
5672.00,0.6985
5671.00,0.7037
5670.00,0.7096
5669.00,0.7161
5668.00,0.7230
5667.00,0.7303
5666.00,0.7381
5665.00,0.7465
5664.00,0.7552
5663.00,0.7643
5662.00,0.7738
5661.00,0.7836
5660.00,0.7936
5659.00,0.8040
5658.00,0.8146
5657.00,0.8255
5656.00,0.8366
5655.00,0.8480
5654.00,0.8595
5653.00,0.8711
5652.00,0.8827
5651.00,0.8942
5650.00,0.9057
5649.00,0.9173
5648.00,0.9289
5647.00,0.9407
5646.00,0.9524
5645.00,0.9642
5644.00,0.9756
5643.00,0.9869
5642.00,0.9980
5641.00,1.0091
5640.00,1.0201
5639.00,1.0311
5638.00,1.0421
5637.00,1.0529
5636.00,1.0634
5635.00,1.0734
5634.00,1.0830
5633.00,1.0925
5632.00,1.1019
5631.00,1.1111
5630.00,1.1202
5629.00,1.1290
5628.00,1.1373
5627.00,1.1450
5626.00,1.1523
5625.00,1.1594
5624.00,1.1663
5623.00,1.1732
5622.00,1.1801
5621.00,1.1867
5620.00,1.1926
5619.00,1.1978
5618.00,1.2021
5617.00,1.2061
5616.00,1.2098
5615.00,1.2134
5614.00,1.2172
5613.00,1.2208
5612.00,1.2240
5611.00,1.2266
5610.00,1.2287
5609.00,1.2301
5608.00,1.2311
5607.00,1.2314
5606.00,1.2314
5605.00,1.2309
5604.00,1.2302
5603.00,1.2293
5602.00,1.2282
5601.00,1.2271
5600.00,1.2258
5599.00,1.2239
5598.00,1.2216
5597.00,1.2188
5596.00,1.2154
5595.00,1.2115
5594.00,1.2072
5593.00,1.2024
5592.00,1.1971
5591.00,1.1914
5590.00,1.1855
5589.00,1.1794
5588.00,1.1730
5587.00,1.1660
5586.00,1.1586
5585.00,1.1509
5584.00,1.1427
5583.00,1.1340
5582.00,1.1250
5581.00,1.1157
5580.00,1.1061
5579.00,1.0960
5578.00,1.0855
5577.00,1.0747
5576.00,1.0638
5575.00,1.0526
5574.00,1.0411
5573.00,1.0292
5572.00,1.0170
5571.00,1.0045
5570.00,0.9918
5569.00,0.9790
5568.00,0.9660
5567.00,0.9529
5566.00,0.9397
5565.00,0.9266
5564.00,0.9135
5563.00,0.9003
5562.00,0.8872
5561.00,0.8742
5560.00,0.8611
5559.00,0.8480
5558.00,0.8351
5557.00,0.8227
5556.00,0.8107
5555.00,0.7991
5554.00,0.7879
5553.00,0.7771
5552.00,0.7667
5551.00,0.7567
5550.00,0.7472
5549.00,0.7382
5548.00,0.7298
5547.00,0.7222
5546.00,0.7151
5545.00,0.7088
5544.00,0.7032
5543.00,0.6984
5542.00,0.6943
5541.00,0.6909
5540.00,0.6882
5539.00,0.6864
5538.00,0.6854
5537.00,0.6854
5536.00,0.6863
5535.00,0.6880
5534.00,0.6904
5533.00,0.6936
5532.00,0.6973
5531.00,0.7017
5530.00,0.7068
5529.00,0.7126
5528.00,0.7191
5527.00,0.7262
5526.00,0.7340
5525.00,0.7423
5524.00,0.7511
5523.00,0.7604
5522.00,0.7701
5521.00,0.7801
5520.00,0.7904
5519.00,0.8009
5518.00,0.8118
5517.00,0.8230
5516.00,0.8346
5515.00,0.8464
5514.00,0.8584
5513.00,0.8708
5512.00,0.8831
5511.00,0.8953
5510.00,0.9075
5509.00,0.9198
5508.00,0.9321
5507.00,0.9445
5506.00,0.9569
5505.00,0.9693
5504.00,0.9816
5503.00,0.9938
5502.00,1.0058
5501.00,1.0177
5500.00,1.0295
5499.00,1.0410
5498.00,1.0523
5497.00,1.0633
5496.00,1.0740
5495.00,1.0845
5494.00,1.0949
5493.00,1.1053
5492.00,1.1155
5491.00,1.1254
5490.00,1.1350
5489.00,1.1441
5488.00,1.1528
5487.00,1.1610
5486.00,1.1689
5485.00,1.1767
5484.00,1.1844
5483.00,1.1919
5482.00,1.1992
5481.00,1.2062
5480.00,1.2126
5479.00,1.2183
5478.00,1.2234
5477.00,1.2280
5476.00,1.2323
5475.00,1.2362
5474.00,1.2398
5473.00,1.2432
5472.00,1.2464
5471.00,1.2497
5470.00,1.2527
5469.00,1.2556
5468.00,1.2579
5467.00,1.2593
5466.00,1.2599
5465.00,1.2598
5464.00,1.2593
5463.00,1.2584
5462.00,1.2573
5461.00,1.2560
5460.00,1.2542
5459.00,1.2519
5458.00,1.2493
5457.00,1.2463
5456.00,1.2432
5455.00,1.2399
5454.00,1.2361
5453.00,1.2318
5452.00,1.2270
5451.00,1.2218
5450.00,1.2164
5449.00,1.2107
5448.00,1.2046
5447.00,1.1979
5446.00,1.1908
5445.00,1.1831
5444.00,1.1748
5443.00,1.1660
5442.00,1.1570
5441.00,1.1478
5440.00,1.1383
5439.00,1.1284
5438.00,1.1182
5437.00,1.1079
5436.00,1.0975
5435.00,1.0865
5434.00,1.0748
5433.00,1.0625
5432.00,1.0498
5431.00,1.0368
5430.00,1.0237
5429.00,1.0104
5428.00,0.9968
5427.00,0.9829
5426.00,0.9688
5425.00,0.9549
5424.00,0.9410
5423.00,0.9270
5422.00,0.9130
5421.00,0.8992
5420.00,0.8856
5419.00,0.8721
5418.00,0.8588
5417.00,0.8455
5416.00,0.8323
5415.00,0.8190
5414.00,0.8058
5413.00,0.7928
5412.00,0.7801
5411.00,0.7680
5410.00,0.7567
5409.00,0.7461
5408.00,0.7362
5407.00,0.7270
5406.00,0.7187
5405.00,0.7112
5404.00,0.7045
5403.00,0.6984
5402.00,0.6931
5401.00,0.6885
5400.00,0.6849
5399.00,0.6821
5398.00,0.6802
5397.00,0.6790
5396.00,0.6786
5395.00,0.6790
5394.00,0.6802
5393.00,0.6821
5392.00,0.6849
5391.00,0.6884
5390.00,0.6928
5389.00,0.6978
5388.00,0.7037
5387.00,0.7104
5386.00,0.7178
5385.00,0.7259
5384.00,0.7345
5383.00,0.7436
5382.00,0.7531
5381.00,0.7631
5380.00,0.7733
5379.00,0.7838
5378.00,0.7948
5377.00,0.8063
5376.00,0.8181
5375.00,0.8301
5374.00,0.8423
5373.00,0.8548
5372.00,0.8673
5371.00,0.8800
5370.00,0.8928
5369.00,0.9059
5368.00,0.9191
5367.00,0.9324
5366.00,0.9457
5365.00,0.9589
5364.00,0.9721
5363.00,0.9850
5362.00,0.9978
5361.00,1.0104
5360.00,1.0230
5359.00,1.0355
5358.00,1.0480
5357.00,1.0601
5356.00,1.0719
5355.00,1.0834
5354.00,1.0948
5353.00,1.1060
5352.00,1.1171
5351.00,1.1281
5350.00,1.1389
5349.00,1.1492
5348.00,1.1588
5347.00,1.1677
5346.00,1.1764
5345.00,1.1851
5344.00,1.1938
5343.00,1.2022
5342.00,1.2103
5341.00,1.2179
5340.00,1.2251
5339.00,1.2318
5338.00,1.2381
5337.00,1.2440
5336.00,1.2496
5335.00,1.2549
5334.00,1.2600
5333.00,1.2646
5332.00,1.2685
5331.00,1.2719
5330.00,1.2750
5329.00,1.2779
5328.00,1.2805
5327.00,1.2827
5326.00,1.2842
5325.00,1.2852
5324.00,1.2858
5323.00,1.2863
5322.00,1.2866
5321.00,1.2868
5320.00,1.2867
5319.00,1.2862
5318.00,1.2852
5317.00,1.2835
5316.00,1.2814
5315.00,1.2788
5314.00,1.2758
5313.00,1.2723
5312.00,1.2684
5311.00,1.2641
5310.00,1.2593
5309.00,1.2541
5308.00,1.2485
5307.00,1.2426
5306.00,1.2364
5305.00,1.2298
5304.00,1.2228
5303.00,1.2154
5302.00,1.2074
5301.00,1.1990
5300.00,1.1901
5299.00,1.1808
5298.00,1.1712
5297.00,1.1613
5296.00,1.1511
5295.00,1.1406
5294.00,1.1297
5293.00,1.1183
5292.00,1.1066
5291.00,1.0943
5290.00,1.0816
5289.00,1.0685
5288.00,1.0552
5287.00,1.0419
5286.00,1.0284
5285.00,1.0148
5284.00,1.0009
5283.00,0.9867
5282.00,0.9724
5281.00,0.9582
5280.00,0.9439
5279.00,0.9297
5278.00,0.9155
5277.00,0.9013
5276.00,0.8873
5275.00,0.8735
5274.00,0.8599
5273.00,0.8467
5272.00,0.8339
5271.00,0.8216
5270.00,0.8096
5269.00,0.7981
5268.00,0.7870
5267.00,0.7765
5266.00,0.7666
5265.00,0.7574
5264.00,0.7486
5263.00,0.7403
5262.00,0.7326
5261.00,0.7258
5260.00,0.7200
5259.00,0.7152
5258.00,0.7114
5257.00,0.7086
5256.00,0.7067
5255.00,0.7056
5254.00,0.7052
5253.00,0.7055
5252.00,0.7065
5251.00,0.7085
5250.00,0.7113
5249.00,0.7151
5248.00,0.7195
5247.00,0.7246
5246.00,0.7303
5245.00,0.7368
5244.00,0.7440
5243.00,0.7519
5242.00,0.7603
5241.00,0.7693
5240.00,0.7788
5239.00,0.7889
5238.00,0.7995
5237.00,0.8106
5236.00,0.8222
5235.00,0.8340
5234.00,0.8460
5233.00,0.8583
5232.00,0.8709
5231.00,0.8837
5230.00,0.8968
5229.00,0.9098
5228.00,0.9230
5227.00,0.9362
5226.00,0.9496
5225.00,0.9630
5224.00,0.9764
5223.00,0.9897
5222.00,1.0029
5221.00,1.0161
5220.00,1.0291
5219.00,1.0421
5218.00,1.0552
5217.00,1.0681
5216.00,1.0810
5215.00,1.0936
5214.00,1.1058
5213.00,1.1178
5212.00,1.1293
5211.00,1.1405
5210.00,1.1515
5209.00,1.1622
5208.00,1.1728
5207.00,1.1831
5206.00,1.1931
5205.00,1.2028
5204.00,1.2123
5203.00,1.2216
5202.00,1.2306
5201.00,1.2390
5200.00,1.2468
5199.00,1.2542
5198.00,1.2611
5197.00,1.2676
5196.00,1.2739
5195.00,1.2799
5194.00,1.2855
5193.00,1.2906
5192.00,1.2952
5191.00,1.2994
5190.00,1.3033
5189.00,1.3068
5188.00,1.3098
5187.00,1.3124
5186.00,1.3145
5185.00,1.3161
5184.00,1.3172
5183.00,1.3179
5182.00,1.3184
5181.00,1.3186
5180.00,1.3184
5179.00,1.3178
5178.00,1.3168
5177.00,1.3155
5176.00,1.3138
5175.00,1.3118
5174.00,1.3096
5173.00,1.3070
5172.00,1.3040
5171.00,1.3004
5170.00,1.2961
5169.00,1.2913
5168.00,1.2861
5167.00,1.2805
5166.00,1.2746
5165.00,1.2684
5164.00,1.2617
5163.00,1.2546
5162.00,1.2469
5161.00,1.2388
5160.00,1.2303
5159.00,1.2214
5158.00,1.2122
5157.00,1.2026
5156.00,1.1926
5155.00,1.1822
5154.00,1.1714
5153.00,1.1601
5152.00,1.1483
5151.00,1.1360
5150.00,1.1234
5149.00,1.1104
5148.00,1.0971
5147.00,1.0834
5146.00,1.0694
5145.00,1.0550
5144.00,1.0404
5143.00,1.0255
5142.00,1.0105
5141.00,0.9954
5140.00,0.9801
5139.00,0.9646
5138.00,0.9489
5137.00,0.9332
5136.00,0.9176
5135.00,0.9021
5134.00,0.8869
5133.00,0.8720
5132.00,0.8574
5131.00,0.8430
5130.00,0.8290
5129.00,0.8154
5128.00,0.8022
5127.00,0.7895
5126.00,0.7773
5125.00,0.7658
5124.00,0.7551
5123.00,0.7451
5122.00,0.7358
5121.00,0.7272
5120.00,0.7194
5119.00,0.7124
5118.00,0.7063
5117.00,0.7012
5116.00,0.6970
5115.00,0.6937
5114.00,0.6915
5113.00,0.6903
5112.00,0.6901
5111.00,0.6908
5110.00,0.6924
5109.00,0.6950
5108.00,0.6985
5107.00,0.7028
5106.00,0.7081
5105.00,0.7143
5104.00,0.7213
5103.00,0.7290
5102.00,0.7374
5101.00,0.7464
5100.00,0.7561
5099.00,0.7664
5098.00,0.7773
5097.00,0.7888
5096.00,0.8008
5095.00,0.8132
5094.00,0.8260
5093.00,0.8391
5092.00,0.8525
5091.00,0.8661
5090.00,0.8800
5089.00,0.8940
5088.00,0.9081
5087.00,0.9222
5086.00,0.9364
5085.00,0.9507
5084.00,0.9650
5083.00,0.9794
5082.00,0.9938
5081.00,1.0083
5080.00,1.0228
5079.00,1.0371
5078.00,1.0513
5077.00,1.0653
5076.00,1.0790
5075.00,1.0924
5074.00,1.1055
5073.00,1.1183
5072.00,1.1310
5071.00,1.1435
5070.00,1.1558
5069.00,1.1678
5068.00,1.1795
5067.00,1.1908
5066.00,1.2017
5065.00,1.2124
5064.00,1.2228
5063.00,1.2328
5062.00,1.2426
5061.00,1.2519
5060.00,1.2606
5059.00,1.2689
5058.00,1.2768
5057.00,1.2844
5056.00,1.2917
5055.00,1.2988
5054.00,1.3054
5053.00,1.3117
5052.00,1.3173
5051.00,1.3223
5050.00,1.3268
5049.00,1.3310
5048.00,1.3351
5047.00,1.3389
5046.00,1.3423
5045.00,1.3452
5044.00,1.3475
5043.00,1.3492
5042.00,1.3506
5041.00,1.3517
5040.00,1.3526
5039.00,1.3532
5038.00,1.3533
5037.00,1.3531
5036.00,1.3523
5035.00,1.3511
5034.00,1.3493
5033.00,1.3471
5032.00,1.3445
5031.00,1.3417
5030.00,1.3386
5029.00,1.3351
5028.00,1.3310
5027.00,1.3265
5026.00,1.3215
5025.00,1.3162
5024.00,1.3105
5023.00,1.3044
5022.00,1.2978
5021.00,1.2907
5020.00,1.2832
5019.00,1.2751
5018.00,1.2666
5017.00,1.2577
5016.00,1.2484
5015.00,1.2386
5014.00,1.2285
5013.00,1.2179
5012.00,1.2068
5011.00,1.1952
5010.00,1.1832
5009.00,1.1707
5008.00,1.1580
5007.00,1.1449
5006.00,1.1315
5005.00,1.1177
5004.00,1.1035
5003.00,1.0889
5002.00,1.0740
5001.00,1.0588
5000.00,1.0433
4999.00,1.0278
4998.00,1.0121
4997.00,0.9962
4996.00,0.9802
4995.00,0.9641
4994.00,0.9480
4993.00,0.9320
4992.00,0.9162
4991.00,0.9005
4990.00,0.8850
4989.00,0.8698
4988.00,0.8547
4987.00,0.8401
4986.00,0.8259
4985.00,0.8122
4984.00,0.7990
4983.00,0.7865
4982.00,0.7747
4981.00,0.7637
4980.00,0.7535
4979.00,0.7440
4978.00,0.7354
4977.00,0.7277
4976.00,0.7210
4975.00,0.7153
4974.00,0.7107
4973.00,0.7071
4972.00,0.7046
4971.00,0.7031
4970.00,0.7026
4969.00,0.7034
4968.00,0.7052
4967.00,0.7081
4966.00,0.7120
4965.00,0.7169
4964.00,0.7226
4963.00,0.7293
4962.00,0.7368
4961.00,0.7453
4960.00,0.7545
4959.00,0.7644
4958.00,0.7750
4957.00,0.7862
4956.00,0.7980
4955.00,0.8103
4954.00,0.8230
4953.00,0.8362
4952.00,0.8497
4951.00,0.8634
4950.00,0.8775
4949.00,0.8918
4948.00,0.9064
4947.00,0.9212
4946.00,0.9361
4945.00,0.9511
4944.00,0.9660
4943.00,0.9809
4942.00,0.9959
4941.00,1.0109
4940.00,1.0258
4939.00,1.0407
4938.00,1.0554
4937.00,1.0699
4936.00,1.0843
4935.00,1.0985
4934.00,1.1127
4933.00,1.1266
4932.00,1.1404
4931.00,1.1538
4930.00,1.1669
4929.00,1.1796
4928.00,1.1919
4927.00,1.2040
4926.00,1.2159
4925.00,1.2276
4924.00,1.2392
4923.00,1.2503
4922.00,1.2609
4921.00,1.2709
4920.00,1.2803
4919.00,1.2894
4918.00,1.2982
4917.00,1.3068
4916.00,1.3149
4915.00,1.3226
4914.00,1.3297
4913.00,1.3363
4912.00,1.3425
4911.00,1.3483
4910.00,1.3539
4909.00,1.3592
4908.00,1.3642
4907.00,1.3687
4906.00,1.3728
4905.00,1.3763
4904.00,1.3793
4903.00,1.3817
4902.00,1.3836
4901.00,1.3850
4900.00,1.3860
4899.00,1.3868
4898.00,1.3873
4897.00,1.3874
4896.00,1.3871
4895.00,1.3863
4894.00,1.3849
4893.00,1.3832
4892.00,1.3811
4891.00,1.3786
4890.00,1.3759
4889.00,1.3728
4888.00,1.3692
4887.00,1.3652
4886.00,1.3607
4885.00,1.3556
4884.00,1.3501
4883.00,1.3443
4882.00,1.3380
4881.00,1.3313
4880.00,1.3240
4879.00,1.3163
4878.00,1.3081
4877.00,1.2995
4876.00,1.2905
4875.00,1.2810
4874.00,1.2709
4873.00,1.2604
4872.00,1.2493
4871.00,1.2379
4870.00,1.2261
4869.00,1.2139
4868.00,1.2013
4867.00,1.1883
4866.00,1.1747
4865.00,1.1606
4864.00,1.1461
4863.00,1.1312
4862.00,1.1160
4861.00,1.1005
4860.00,1.0846
4859.00,1.0684
4858.00,1.0519
4857.00,1.0352
4856.00,1.0184
4855.00,1.0014
4854.00,0.9844
4853.00,0.9673
4852.00,0.9502
4851.00,0.9333
4850.00,0.9167
4849.00,0.9003
4848.00,0.8841
4847.00,0.8683
4846.00,0.8528
4845.00,0.8378
4844.00,0.8232
4843.00,0.8092
4842.00,0.7959
4841.00,0.7833
4840.00,0.7714
4839.00,0.7603
4838.00,0.7500
4837.00,0.7406
4836.00,0.7321
4835.00,0.7245
4834.00,0.7180
4833.00,0.7127
4832.00,0.7085
4831.00,0.7054
4830.00,0.7035
4829.00,0.7027
4828.00,0.7030
4827.00,0.7044
4826.00,0.7071
4825.00,0.7110
4824.00,0.7159
4823.00,0.7218
4822.00,0.7287
4821.00,0.7365
4820.00,0.7451
4819.00,0.7545
4818.00,0.7648
4817.00,0.7758
4816.00,0.7875
4815.00,0.7998
4814.00,0.8127
4813.00,0.8261
4812.00,0.8400
4811.00,0.8544
4810.00,0.8690
4809.00,0.8839
4808.00,0.8989
4807.00,0.9142
4806.00,0.9297
4805.00,0.9454
4804.00,0.9613
4803.00,0.9772
4802.00,0.9931
4801.00,1.0090
4800.00,1.0248
4799.00,1.0406
4798.00,1.0564
4797.00,1.0722
4796.00,1.0879
4795.00,1.1034
4794.00,1.1186
4793.00,1.1336
4792.00,1.1484
4791.00,1.1628
4790.00,1.1770
4789.00,1.1910
4788.00,1.2048
4787.00,1.2182
4786.00,1.2313
4785.00,1.2441
4784.00,1.2563
4783.00,1.2680
4782.00,1.2792
4781.00,1.2900
4780.00,1.3003
4779.00,1.3103
4778.00,1.3198
4777.00,1.3290
4776.00,1.3379
4775.00,1.3466
4774.00,1.3552
4773.00,1.3635
4772.00,1.3712
4771.00,1.3781
4770.00,1.3844
4769.00,1.3902
4768.00,1.3957
4767.00,1.4008
4766.00,1.4056
4765.00,1.4100
4764.00,1.4139
4763.00,1.4171
4762.00,1.4199
4761.00,1.4223
4760.00,1.4245
4759.00,1.4263
4758.00,1.4279
4757.00,1.4290
4756.00,1.4295
4755.00,1.4293
4754.00,1.4287
4753.00,1.4278
4752.00,1.4265
4751.00,1.4250
4750.00,1.4232
4749.00,1.4209
4748.00,1.4181
4747.00,1.4147
4746.00,1.4109
4745.00,1.4066
4744.00,1.4019
4743.00,1.3967
4742.00,1.3910
4741.00,1.3849
4740.00,1.3784
4739.00,1.3717
4738.00,1.3647
4737.00,1.3573
4736.00,1.3493
4735.00,1.3406
4734.00,1.3312
4733.00,1.3213
4732.00,1.3111
4731.00,1.3005
4730.00,1.2895
4729.00,1.2779
4728.00,1.2659
4727.00,1.2533
4726.00,1.2402
4725.00,1.2265
4724.00,1.2123
4723.00,1.1975
4722.00,1.1824
4721.00,1.1671
4720.00,1.1514
4719.00,1.1353
4718.00,1.1188
4717.00,1.1020
4716.00,1.0847
4715.00,1.0672
4714.00,1.0493
4713.00,1.0312
4712.00,1.0130
4711.00,0.9947
4710.00,0.9766
4709.00,0.9587
4708.00,0.9409
4707.00,0.9232
4706.00,0.9058
4705.00,0.8887
4704.00,0.8720
4703.00,0.8559
4702.00,0.8403
4701.00,0.8254
4700.00,0.8111
4699.00,0.7975
4698.00,0.7848
4697.00,0.7730
4696.00,0.7621
4695.00,0.7522
4694.00,0.7434
4693.00,0.7356
4692.00,0.7290
4691.00,0.7236
4690.00,0.7195
4689.00,0.7167
4688.00,0.7151
4687.00,0.7148
4686.00,0.7157
4685.00,0.7179
4684.00,0.7214
4683.00,0.7262
4682.00,0.7321
4681.00,0.7390
4680.00,0.7469
4679.00,0.7557
4678.00,0.7655
4677.00,0.7762
4676.00,0.7877
4675.00,0.7999
4674.00,0.8128
4673.00,0.8263
4672.00,0.8403
4671.00,0.8547
4670.00,0.8696
4669.00,0.8848
4668.00,0.9004
4667.00,0.9163
4666.00,0.9325
4665.00,0.9489
4664.00,0.9654
4663.00,0.9820
4662.00,0.9986
4661.00,1.0153
4660.00,1.0320
4659.00,1.0487
4658.00,1.0654
4657.00,1.0821
4656.00,1.0985
4655.00,1.1147
4654.00,1.1308
4653.00,1.1466
4652.00,1.1623
4651.00,1.1777
4650.00,1.1929
4649.00,1.2077
4648.00,1.2223
4647.00,1.2365
4646.00,1.2504
4645.00,1.2640
4644.00,1.2771
4643.00,1.2897
4642.00,1.3019
4641.00,1.3137
4640.00,1.3252
4639.00,1.3364
4638.00,1.3472
4637.00,1.3573
4636.00,1.3669
4635.00,1.3759
4634.00,1.3847
4633.00,1.3933
4632.00,1.4016
4631.00,1.4095
4630.00,1.4169
4629.00,1.4236
4628.00,1.4294
4627.00,1.4347
4626.00,1.4395
4625.00,1.4439
4624.00,1.4480
4623.00,1.4518
4622.00,1.4551
4621.00,1.4579
4620.00,1.4604
4619.00,1.4627
4618.00,1.4647
4617.00,1.4664
4616.00,1.4674
4615.00,1.4678
4614.00,1.4676
4613.00,1.4669
4612.00,1.4657
4611.00,1.4641
4610.00,1.4621
4609.00,1.4596
4608.00,1.4568
4607.00,1.4538
4606.00,1.4506
4605.00,1.4473
4604.00,1.4435
4603.00,1.4392
4602.00,1.4345
4601.00,1.4295
4600.00,1.4240
4599.00,1.4181
4598.00,1.4117
4597.00,1.4048
4596.00,1.3975
4595.00,1.3896
4594.00,1.3813
4593.00,1.3726
4592.00,1.3634
4591.00,1.3537
4590.00,1.3436
4589.00,1.3329
4588.00,1.3215
4587.00,1.3095
4586.00,1.2968
4585.00,1.2836
4584.00,1.2697
4583.00,1.2553
4582.00,1.2404
4581.00,1.2251
4580.00,1.2092
4579.00,1.1927
4578.00,1.1757
4577.00,1.1583
4576.00,1.1406
4575.00,1.1226
4574.00,1.1044
4573.00,1.0859
4572.00,1.0670
4571.00,1.0479
4570.00,1.0287
4569.00,1.0094
4568.00,0.9902
4567.00,0.9711
4566.00,0.9522
4565.00,0.9336
4564.00,0.9152
4563.00,0.8971
4562.00,0.8795
4561.00,0.8625
4560.00,0.8462
4559.00,0.8307
4558.00,0.8161
4557.00,0.8023
4556.00,0.7895
4555.00,0.7776
4554.00,0.7667
4553.00,0.7570
4552.00,0.7485
4551.00,0.7413
4550.00,0.7354
4549.00,0.7308
4548.00,0.7276
4547.00,0.7258
4546.00,0.7254
4545.00,0.7264
4544.00,0.7287
4543.00,0.7324
4542.00,0.7374
4541.00,0.7437
4540.00,0.7512
4539.00,0.7598
4538.00,0.7696
4537.00,0.7803
4536.00,0.7919
4535.00,0.8043
4534.00,0.8174
4533.00,0.8313
4532.00,0.8459
4531.00,0.8611
4530.00,0.8769
4529.00,0.8931
4528.00,0.9096
4527.00,0.9264
4526.00,0.9436
4525.00,0.9610
4524.00,0.9786
4523.00,0.9963
4522.00,1.0140
4521.00,1.0317
4520.00,1.0495
4519.00,1.0673
4518.00,1.0851
4517.00,1.1028
4516.00,1.1205
4515.00,1.1379
4514.00,1.1552
4513.00,1.1722
4512.00,1.1889
4511.00,1.2054
4510.00,1.2218
4509.00,1.2379
4508.00,1.2537
4507.00,1.2690
4506.00,1.2840
4505.00,1.2985
4504.00,1.3125
4503.00,1.3261
4502.00,1.3394
4501.00,1.3522
4500.00,1.3645
4499.00,1.3764
4498.00,1.3878
4497.00,1.3987
4496.00,1.4091
4495.00,1.4190
4494.00,1.4284
4493.00,1.4372
4492.00,1.4455
4491.00,1.4533
4490.00,1.4607
4489.00,1.4676
4488.00,1.4738
4487.00,1.4795
4486.00,1.4846
4485.00,1.4893
4484.00,1.4936
4483.00,1.4975
4482.00,1.5011
4481.00,1.5045
4480.00,1.5075
4479.00,1.5103
4478.00,1.5127
4477.00,1.5146
4476.00,1.5161
4475.00,1.5172
4474.00,1.5180
4473.00,1.5184
4472.00,1.5184
4471.00,1.5180
4470.00,1.5170
4469.00,1.5155
4468.00,1.5136
4467.00,1.5114
4466.00,1.5090
4465.00,1.5062
4464.00,1.5030
4463.00,1.4993
4462.00,1.4952
4461.00,1.4906
4460.00,1.4854
4459.00,1.4795
4458.00,1.4731
4457.00,1.4663
4456.00,1.4594
4455.00,1.4523
4454.00,1.4449
4453.00,1.4370
4452.00,1.4284
4451.00,1.4195
4450.00,1.4104
4449.00,1.4011
4448.00,1.3916
4447.00,1.3820
4446.00,1.3722
4445.00,1.3620
4444.00,1.3517
4443.00,1.3412
4442.00,1.3304
4441.00,1.3194
4440.00,1.3079
4439.00,1.2960
4438.00,1.2835
4437.00,1.2704
4436.00,1.2568
4435.00,1.2423
4434.00,1.2269
4433.00,1.2106
4432.00,1.1934
4431.00,1.1756
4430.00,1.1572
4429.00,1.1383
4428.00,1.1189
4427.00,1.0990
4426.00,1.0788
4425.00,1.0584
4424.00,1.0380
4423.00,1.0177
4422.00,0.9977
4421.00,0.9780
4420.00,0.9589
4419.00,0.9404
4418.00,0.9229
4417.00,0.9064
4416.00,0.8909
4415.00,0.8765
4414.00,0.8633
4413.00,0.8515
4412.00,0.8411
4411.00,0.8322
4410.00,0.8250
4409.00,0.8194
4408.00,0.8156
4407.00,0.8135
4406.00,0.8130
4405.00,0.8142
4404.00,0.8168
4403.00,0.8208
4402.00,0.8261
4401.00,0.8324
4400.00,0.8395
4399.00,0.8474
4398.00,0.8557
4397.00,0.8646
4396.00,0.8739
4395.00,0.8837
4394.00,0.8940
4393.00,0.9049
4392.00,0.9165
4391.00,0.9286
4390.00,0.9414
4389.00,0.9548
4388.00,0.9687
4387.00,0.9832
4386.00,0.9982
4385.00,1.0137
4384.00,1.0297
4383.00,1.0461
4382.00,1.0629
4381.00,1.0799
4380.00,1.0970
4379.00,1.1143
4378.00,1.1317
4377.00,1.1492
4376.00,1.1667
4375.00,1.1840
4374.00,1.2011
4373.00,1.2179
4372.00,1.2343
4371.00,1.2502
4370.00,1.2657
4369.00,1.2807
4368.00,1.2951
4367.00,1.3091
4366.00,1.3227
4365.00,1.3357
4364.00,1.3483
4363.00,1.3603
4362.00,1.3719
4361.00,1.3830
4360.00,1.3938
4359.00,1.4042
4358.00,1.4144
4357.00,1.4243
4356.00,1.4340
4355.00,1.4434
4354.00,1.4526
4353.00,1.4615
4352.00,1.4703
4351.00,1.4787
4350.00,1.4869
4349.00,1.4946
4348.00,1.5021
4347.00,1.5092
4346.00,1.5161
4345.00,1.5229
4344.00,1.5294
4343.00,1.5356
4342.00,1.5413
4341.00,1.5467
4340.00,1.5516
4339.00,1.5559
4338.00,1.5594
4337.00,1.5622
4336.00,1.5645
4335.00,1.5667
4334.00,1.5688
4333.00,1.5707
4332.00,1.5723
4331.00,1.5733
4330.00,1.5739
4329.00,1.5742
4328.00,1.5742
4327.00,1.5739
4326.00,1.5732
4325.00,1.5717
4324.00,1.5694
4323.00,1.5663
4322.00,1.5629
4321.00,1.5594
4320.00,1.5557
4319.00,1.5517
4318.00,1.5472
4317.00,1.5420
4316.00,1.5363
4315.00,1.5302
4314.00,1.5236
4313.00,1.5167
4312.00,1.5091
4311.00,1.5009
4310.00,1.4922
4309.00,1.4831
4308.00,1.4734
4307.00,1.4631
4306.00,1.4522
4305.00,1.4407
4304.00,1.4288
4303.00,1.4164
4302.00,1.4035
4301.00,1.3901
4300.00,1.3760
4299.00,1.3613
4298.00,1.3459
4297.00,1.3299
4296.00,1.3133
4295.00,1.2962
4294.00,1.2787
4293.00,1.2606
4292.00,1.2421
4291.00,1.2231
4290.00,1.2038
4289.00,1.1840
4288.00,1.1638
4287.00,1.1430
4286.00,1.1219
4285.00,1.1005
4284.00,1.0790
4283.00,1.0573
4282.00,1.0357
4281.00,1.0141
4280.00,0.9928
4279.00,0.9717
4278.00,0.9510
4277.00,0.9308
4276.00,0.9112
4275.00,0.8924
4274.00,0.8744
4273.00,0.8573
4272.00,0.8413
4271.00,0.8263
4270.00,0.8124
4269.00,0.7997
4268.00,0.7883
4267.00,0.7783
4266.00,0.7700
4265.00,0.7632
4264.00,0.7580
4263.00,0.7543
4262.00,0.7522
4261.00,0.7518
4260.00,0.7531
4259.00,0.7561
4258.00,0.7607
4257.00,0.7668
4256.00,0.7743
4255.00,0.7833
4254.00,0.7935
4253.00,0.8050
4252.00,0.8177
4251.00,0.8314
4250.00,0.8460
4249.00,0.8615
4248.00,0.8777
4247.00,0.8946
4246.00,0.9120
4245.00,0.9299
4244.00,0.9482
4243.00,0.9670
4242.00,0.9863
4241.00,1.0059
4240.00,1.0257
4239.00,1.0455
4238.00,1.0654
4237.00,1.0852
4236.00,1.1050
4235.00,1.1248
4234.00,1.1446
4233.00,1.1643
4232.00,1.1838
4231.00,1.2031
4230.00,1.2223
4229.00,1.2411
4228.00,1.2595
4227.00,1.2775
4226.00,1.2951
4225.00,1.3126
4224.00,1.3297
4223.00,1.3465
4222.00,1.3629
4221.00,1.3788
4220.00,1.3942
4219.00,1.4090
4218.00,1.4231
4217.00,1.4367
4216.00,1.4499
4215.00,1.4627
4214.00,1.4750
4213.00,1.4868
4212.00,1.4979
4211.00,1.5086
4210.00,1.5190
4209.00,1.5290
4208.00,1.5385
4207.00,1.5474
4206.00,1.5555
4205.00,1.5631
4204.00,1.5702
4203.00,1.5769
4202.00,1.5833
4201.00,1.5893
4200.00,1.5947
4199.00,1.5995
4198.00,1.6038
4197.00,1.6076
4196.00,1.6110
4195.00,1.6140
4194.00,1.6165
4193.00,1.6187
4192.00,1.6205
4191.00,1.6219
4190.00,1.6230
4189.00,1.6236
4188.00,1.6237
4187.00,1.6230
4186.00,1.6218
4185.00,1.6202
4184.00,1.6183
4183.00,1.6162
4182.00,1.6138
4181.00,1.6109
4180.00,1.6076
4179.00,1.6038
4178.00,1.5995
4177.00,1.5946
4176.00,1.5891
4175.00,1.5831
4174.00,1.5766
4173.00,1.5699
4172.00,1.5627
4171.00,1.5551
4170.00,1.5470
4169.00,1.5383
4168.00,1.5290
4167.00,1.5191
4166.00,1.5086
4165.00,1.4978
4164.00,1.4865
4163.00,1.4748
4162.00,1.4625
4161.00,1.4494
4160.00,1.4354
4159.00,1.4208
4158.00,1.4056
4157.00,1.3900
4156.00,1.3740
4155.00,1.3575
4154.00,1.3404
4153.00,1.3224
4152.00,1.3037
4151.00,1.2843
4150.00,1.2643
4149.00,1.2438
4148.00,1.2229
4147.00,1.2015
4146.00,1.1797
4145.00,1.1576
4144.00,1.1351
4143.00,1.1123
4142.00,1.0894
4141.00,1.0664
4140.00,1.0436
4139.00,1.0210
4138.00,0.9988
4137.00,0.9769
4136.00,0.9555
4135.00,0.9349
4134.00,0.9150
4133.00,0.8960
4132.00,0.8779
4131.00,0.8609
4130.00,0.8451
4129.00,0.8306
4128.00,0.8174
4127.00,0.8056
4126.00,0.7954
4125.00,0.7869
4124.00,0.7801
4123.00,0.7750
4122.00,0.7718
4121.00,0.7704
4120.00,0.7708
4119.00,0.7730
4118.00,0.7769
4117.00,0.7825
4116.00,0.7899
4115.00,0.7988
4114.00,0.8092
4113.00,0.8209
4112.00,0.8340
4111.00,0.8482
4110.00,0.8634
4109.00,0.8796
4108.00,0.8966
4107.00,0.9144
4106.00,0.9327
4105.00,0.9517
4104.00,0.9712
4103.00,0.9911
4102.00,1.0113
4101.00,1.0317
4100.00,1.0523
4099.00,1.0730
4098.00,1.0938
4097.00,1.1148
4096.00,1.1357
4095.00,1.1566
4094.00,1.1773
4093.00,1.1979
4092.00,1.2185
4091.00,1.2389
4090.00,1.2591
4089.00,1.2790
4088.00,1.2985
4087.00,1.3178
4086.00,1.3368
4085.00,1.3554
4084.00,1.3736
4083.00,1.3912
4082.00,1.4081
4081.00,1.4245
4080.00,1.4403
4079.00,1.4558
4078.00,1.4709
4077.00,1.4855
4076.00,1.4996
4075.00,1.5131
4074.00,1.5260
4073.00,1.5384
4072.00,1.5501
4071.00,1.5611
4070.00,1.5715
4069.00,1.5814
4068.00,1.5910
4067.00,1.6003
4066.00,1.6094
4065.00,1.6178
4064.00,1.6256
4063.00,1.6325
4062.00,1.6389
4061.00,1.6449
4060.00,1.6505
4059.00,1.6558
4058.00,1.6606
4057.00,1.6648
4056.00,1.6685
4055.00,1.6720
4054.00,1.6751
4053.00,1.6779
4052.00,1.6800
4051.00,1.6813
4050.00,1.6821
4049.00,1.6827
4048.00,1.6833
4047.00,1.6838
4046.00,1.6840
4045.00,1.6834
4044.00,1.6819
4043.00,1.6798
4042.00,1.6773
4041.00,1.6744
4040.00,1.6713
4039.00,1.6678
4038.00,1.6638
4037.00,1.6595
4036.00,1.6549
4035.00,1.6500
4034.00,1.6449
4033.00,1.6393
4032.00,1.6333
4031.00,1.6270
4030.00,1.6204
4029.00,1.6133
4028.00,1.6056
4027.00,1.5971
4026.00,1.5879
4025.00,1.5779
4024.00,1.5674
4023.00,1.5563
4022.00,1.5447
4021.00,1.5325
4020.00,1.5196
4019.00,1.5059
4018.00,1.4916
4017.00,1.4765
4016.00,1.4607
4015.00,1.4443
4014.00,1.4272
4013.00,1.4095
4012.00,1.3911
4011.00,1.3721
4010.00,1.3523
4009.00,1.3318
4008.00,1.3106
4007.00,1.2888
4006.00,1.2664
4005.00,1.2435
4004.00,1.2202
4003.00,1.1965
4002.00,1.1726
4001.00,1.1484
4000.00,1.1240
3999.00,1.0996
3998.00,1.0753
3997.00,1.0513
3996.00,1.0277
3995.00,1.0047
3994.00,0.9824
3993.00,0.9609
3992.00,0.9404
3991.00,0.9211
3990.00,0.9032
3989.00,0.8866
3988.00,0.8716
3987.00,0.8583
3986.00,0.8467
3985.00,0.8370
3984.00,0.8292
3983.00,0.8234
3982.00,0.8194
3981.00,0.8174
3980.00,0.8172
3979.00,0.8187
3978.00,0.8218
3977.00,0.8263
3976.00,0.8322
3975.00,0.8392
3974.00,0.8474
3973.00,0.8565
3972.00,0.8666
3971.00,0.8776
3970.00,0.8896
3969.00,0.9026
3968.00,0.9165
3967.00,0.9313
3966.00,0.9470
3965.00,0.9636
3964.00,0.9810
3963.00,0.9993
3962.00,1.0184
3961.00,1.0381
3960.00,1.0584
3959.00,1.0790
3958.00,1.0999
3957.00,1.1211
3956.00,1.1424
3955.00,1.1637
3954.00,1.1850
3953.00,1.2062
3952.00,1.2272
3951.00,1.2482
3950.00,1.2692
3949.00,1.2903
3948.00,1.3113
3947.00,1.3319
3946.00,1.3519
3945.00,1.3714
3944.00,1.3905
3943.00,1.4096
3942.00,1.4288
3941.00,1.4478
3940.00,1.4662
3939.00,1.4837
3938.00,1.5003
3937.00,1.5161
3936.00,1.5311
3935.00,1.5452
3934.00,1.5587
3933.00,1.5719
3932.00,1.5848
3931.00,1.5976
3930.00,1.6100
3929.00,1.6216
3928.00,1.6324
3927.00,1.6423
3926.00,1.6515
3925.00,1.6605
3924.00,1.6692
3923.00,1.6774
3922.00,1.6850
3921.00,1.6919
3920.00,1.6983
3919.00,1.7042
3918.00,1.7100
3917.00,1.7156
3916.00,1.7210
3915.00,1.7261
3914.00,1.7305
3913.00,1.7343
3912.00,1.7376
3911.00,1.7401
3910.00,1.7414
3909.00,1.7414
3908.00,1.7403
3907.00,1.7388
3906.00,1.7373
3905.00,1.7361
3904.00,1.7350
3903.00,1.7339
3902.00,1.7327
3901.00,1.7313
3900.00,1.7295
3899.00,1.7276
3898.00,1.7253
3897.00,1.7226
3896.00,1.7191
3895.00,1.7149
3894.00,1.7099
3893.00,1.7043
3892.00,1.6980
3891.00,1.6909
3890.00,1.6831
3889.00,1.6751
3888.00,1.6668
3887.00,1.6580
3886.00,1.6485
3885.00,1.6384
3884.00,1.6280
3883.00,1.6173
3882.00,1.6060
3881.00,1.5939
3880.00,1.5813
3879.00,1.5682
3878.00,1.5548
3877.00,1.5409
3876.00,1.5260
3875.00,1.5096
3874.00,1.4919
3873.00,1.4738
3872.00,1.4555
3871.00,1.4363
3870.00,1.4155
3869.00,1.3936
3868.00,1.3718
3867.00,1.3501
3866.00,1.3281
3865.00,1.3052
3864.00,1.2815
3863.00,1.2573
3862.00,1.2325
3861.00,1.2070
3860.00,1.1806
3859.00,1.1536
3858.00,1.1262
3857.00,1.0991
3856.00,1.0727
3855.00,1.0462
3854.00,1.0182
3853.00,0.9888
3852.00,0.9606
3851.00,0.9359
3850.00,0.9148
3849.00,0.8961
3848.00,0.8792
3847.00,0.8635
3846.00,0.8486
3845.00,0.8346
3844.00,0.8213
3843.00,0.8090
3842.00,0.7983
3841.00,0.7898
3840.00,0.7839
3839.00,0.7808
3838.00,0.7803
3837.00,0.7822
3836.00,0.7864
3835.00,0.7928
3834.00,0.8018
3833.00,0.8133
3832.00,0.8271
3831.00,0.8427
3830.00,0.8594
3829.00,0.8768
3828.00,0.8951
3827.00,0.9142
3826.00,0.9337
3825.00,0.9531
3824.00,0.9723
3823.00,0.9923
3822.00,1.0142
3821.00,1.0388
3820.00,1.0649
3819.00,1.0900
3818.00,1.1134
3817.00,1.1368
3816.00,1.1625
3815.00,1.1910
3814.00,1.2201
3813.00,1.2471
3812.00,1.2710
3811.00,1.2925
3810.00,1.3126
3809.00,1.3322
3808.00,1.3524
3807.00,1.3738
3806.00,1.3963
3805.00,1.4182
3804.00,1.4384
3803.00,1.4573
3802.00,1.4766
3801.00,1.4974
3800.00,1.5191
3799.00,1.5396
3798.00,1.5583
3797.00,1.5756
3796.00,1.5925
3795.00,1.6093
3794.00,1.6254
3793.00,1.6405
3792.00,1.6547
3791.00,1.6680
3790.00,1.6804
3789.00,1.6919
3788.00,1.7025
3787.00,1.7124
3786.00,1.7219
3785.00,1.7310
3784.00,1.7395
3783.00,1.7474
3782.00,1.7549
3781.00,1.7620
3780.00,1.7688
3779.00,1.7754
3778.00,1.7819
3777.00,1.7878
3776.00,1.7929
3775.00,1.7969
3774.00,1.7999
3773.00,1.8023
3772.00,1.8041
3771.00,1.8056
3770.00,1.8070
3769.00,1.8083
3768.00,1.8095
3767.00,1.8103
3766.00,1.8106
3765.00,1.8103
3764.00,1.8094
3763.00,1.8079
3762.00,1.8060
3761.00,1.8035
3760.00,1.8005
3759.00,1.7971
3758.00,1.7929
3757.00,1.7879
3756.00,1.7820
3755.00,1.7755
3754.00,1.7687
3753.00,1.7613
3752.00,1.7534
3751.00,1.7447
3750.00,1.7353
3749.00,1.7250
3748.00,1.7146
3747.00,1.7047
3746.00,1.6953
3745.00,1.6857
3744.00,1.6757
3743.00,1.6658
3742.00,1.6561
3741.00,1.6458
3740.00,1.6342
3739.00,1.6213
3738.00,1.6073
3737.00,1.5918
3736.00,1.5747
3735.00,1.5566
3734.00,1.5383
3733.00,1.5198
3732.00,1.5007
3731.00,1.4811
3730.00,1.4612
3729.00,1.4407
3728.00,1.4189
3727.00,1.3954
3726.00,1.3704
3725.00,1.3444
3724.00,1.3175
3723.00,1.2899
3722.00,1.2618
3721.00,1.2337
3720.00,1.2057
3719.00,1.1777
3718.00,1.1494
3717.00,1.1209
3716.00,1.0929
3715.00,1.0660
3714.00,1.0402
3713.00,1.0150
3712.00,0.9901
3711.00,0.9661
3710.00,0.9440
3709.00,0.9245
3708.00,0.9077
3707.00,0.8935
3706.00,0.8818
3705.00,0.8726
3704.00,0.8658
3703.00,0.8615
3702.00,0.8597
3701.00,0.8604
3700.00,0.8636
3699.00,0.8693
3698.00,0.8777
3697.00,0.8885
3696.00,0.9013
3695.00,0.9156
3694.00,0.9311
3693.00,0.9477
3692.00,0.9658
3691.00,0.9858
3690.00,1.0084
3689.00,1.0341
3688.00,1.0627
3687.00,1.0924
3686.00,1.1213
3685.00,1.1486
3684.00,1.1748
3683.00,1.2007
3682.00,1.2265
3681.00,1.2515
3680.00,1.2754
3679.00,1.2980
3678.00,1.3199
3677.00,1.3426
3676.00,1.3675
3675.00,1.3949
3674.00,1.4228
3673.00,1.4483
3672.00,1.4712
3671.00,1.4934
3670.00,1.5170
3669.00,1.5421
3668.00,1.5670
3667.00,1.5901
3666.00,1.6109
3665.00,1.6300
3664.00,1.6479
3663.00,1.6649
3662.00,1.6809
3661.00,1.6957
3660.00,1.7093
3659.00,1.7220
3658.00,1.7344
3657.00,1.7468
3656.00,1.7591
3655.00,1.7706
3654.00,1.7806
3653.00,1.7890
3652.00,1.7965
3651.00,1.8044
3650.00,1.8134
3649.00,1.8238
3648.00,1.8352
3647.00,1.8465
3646.00,1.8571
3645.00,1.8669
3644.00,1.8759
3643.00,1.8842
3642.00,1.8916
3641.00,1.8980
3640.00,1.9034
3639.00,1.9081
3638.00,1.9123
3637.00,1.9162
3636.00,1.9197
3635.00,1.9229
3634.00,1.9256
3633.00,1.9276
3632.00,1.9287
3631.00,1.9293
3630.00,1.9298
3629.00,1.9310
3628.00,1.9331
3627.00,1.9356
3626.00,1.9378
3625.00,1.9390
3624.00,1.9391
3623.00,1.9382
3622.00,1.9366
3621.00,1.9348
3620.00,1.9328
3619.00,1.9307
3618.00,1.9285
3617.00,1.9262
3616.00,1.9235
3615.00,1.9202
3614.00,1.9159
3613.00,1.9109
3612.00,1.9059
3611.00,1.9011
3610.00,1.8967
3609.00,1.8923
3608.00,1.8873
3607.00,1.8813
3606.00,1.8744
3605.00,1.8668
3604.00,1.8587
3603.00,1.8503
3602.00,1.8414
3601.00,1.8322
3600.00,1.8222
3599.00,1.8114
3598.00,1.7999
3597.00,1.7878
3596.00,1.7754
3595.00,1.7626
3594.00,1.7490
3593.00,1.7347
3592.00,1.7195
3591.00,1.7038
3590.00,1.6877
3589.00,1.6714
3588.00,1.6546
3587.00,1.6372
3586.00,1.6193
3585.00,1.6011
3584.00,1.5827
3583.00,1.5640
3582.00,1.5450
3581.00,1.5257
3580.00,1.5059
3579.00,1.4857
3578.00,1.4652
3577.00,1.4444
3576.00,1.4236
3575.00,1.4027
3574.00,1.3818
3573.00,1.3609
3572.00,1.3403
3571.00,1.3202
3570.00,1.3010
3569.00,1.2828
3568.00,1.2656
3567.00,1.2492
3566.00,1.2342
3565.00,1.2207
3564.00,1.2089
3563.00,1.1988
3562.00,1.1904
3561.00,1.1836
3560.00,1.1782
3559.00,1.1742
3558.00,1.1717
3557.00,1.1705
3556.00,1.1708
3555.00,1.1727
3554.00,1.1760
3553.00,1.1806
3552.00,1.1864
3551.00,1.1932
3550.00,1.2009
3549.00,1.2096
3548.00,1.2195
3547.00,1.2306
3546.00,1.2428
3545.00,1.2558
3544.00,1.2694
3543.00,1.2833
3542.00,1.2976
3541.00,1.3120
3540.00,1.3268
3539.00,1.3418
3538.00,1.3572
3537.00,1.3730
3536.00,1.3890
3535.00,1.4052
3534.00,1.4215
3533.00,1.4377
3532.00,1.4540
3531.00,1.4703
3530.00,1.4867
3529.00,1.5032
3528.00,1.5199
3527.00,1.5368
3526.00,1.5539
3525.00,1.5711
3524.00,1.5882
3523.00,1.6051
3522.00,1.6218
3521.00,1.6384
3520.00,1.6547
3519.00,1.6708
3518.00,1.6866
3517.00,1.7023
3516.00,1.7178
3515.00,1.7330
3514.00,1.7475
3513.00,1.7612
3512.00,1.7742
3511.00,1.7871
3510.00,1.8000
3509.00,1.8130
3508.00,1.8257
3507.00,1.8378
3506.00,1.8492
3505.00,1.8599
3504.00,1.8703
3503.00,1.8806
3502.00,1.8907
3501.00,1.9002
3500.00,1.9087
3499.00,1.9163
3498.00,1.9236
3497.00,1.9309
3496.00,1.9383
3495.00,1.9453
3494.00,1.9517
3493.00,1.9575
3492.00,1.9629
3491.00,1.9677
3490.00,1.9717
3489.00,1.9749
3488.00,1.9776
3487.00,1.9798
3486.00,1.9818
3485.00,1.9836
3484.00,1.9851
3483.00,1.9862
3482.00,1.9867
3481.00,1.9870
3480.00,1.9873
3479.00,1.9877
3478.00,1.9875
3477.00,1.9864
3476.00,1.9841
3475.00,1.9808
3474.00,1.9771
3473.00,1.9735
3472.00,1.9702
3471.00,1.9673
3470.00,1.9645
3469.00,1.9613
3468.00,1.9573
3467.00,1.9522
3466.00,1.9459
3465.00,1.9387
3464.00,1.9309
3463.00,1.9228
3462.00,1.9143
3461.00,1.9060
3460.00,1.8976
3459.00,1.8887
3458.00,1.8788
3457.00,1.8679
3456.00,1.8564
3455.00,1.8447
3454.00,1.8326
3453.00,1.8200
3452.00,1.8068
3451.00,1.7928
3450.00,1.7779
3449.00,1.7621
3448.00,1.7453
3447.00,1.7277
3446.00,1.7095
3445.00,1.6910
3444.00,1.6721
3443.00,1.6524
3442.00,1.6321
3441.00,1.6110
3440.00,1.5890
3439.00,1.5662
3438.00,1.5425
3437.00,1.5182
3436.00,1.4933
3435.00,1.4680
3434.00,1.4424
3433.00,1.4163
3432.00,1.3901
3431.00,1.3638
3430.00,1.3375
3429.00,1.3113
3428.00,1.2855
3427.00,1.2602
3426.00,1.2357
3425.00,1.2121
3424.00,1.1896
3423.00,1.1685
3422.00,1.1488
3421.00,1.1306
3420.00,1.1143
3419.00,1.0999
3418.00,1.0877
3417.00,1.0776
3416.00,1.0699
3415.00,1.0644
3414.00,1.0613
3413.00,1.0605
3412.00,1.0622
3411.00,1.0662
3410.00,1.0724
3409.00,1.0806
3408.00,1.0908
3407.00,1.1028
3406.00,1.1163
3405.00,1.1313
3404.00,1.1474
3403.00,1.1646
3402.00,1.1826
3401.00,1.2013
3400.00,1.2207
3399.00,1.2408
3398.00,1.2617
3397.00,1.2832
3396.00,1.3051
3395.00,1.3274
3394.00,1.3500
3393.00,1.3730
3392.00,1.3963
3391.00,1.4197
3390.00,1.4432
3389.00,1.4665
3388.00,1.4896
3387.00,1.5126
3386.00,1.5354
3385.00,1.5580
3384.00,1.5802
3383.00,1.6021
3382.00,1.6236
3381.00,1.6447
3380.00,1.6652
3379.00,1.6852
3378.00,1.7044
3377.00,1.7229
3376.00,1.7411
3375.00,1.7591
3374.00,1.7770
3373.00,1.7946
3372.00,1.8116
3371.00,1.8277
3370.00,1.8431
3369.00,1.8579
3368.00,1.8718
3367.00,1.8850
3366.00,1.8973
3365.00,1.9091
3364.00,1.9203
3363.00,1.9309
3362.00,1.9413
3361.00,1.9513
3360.00,1.9608
3359.00,1.9698
3358.00,1.9781
3357.00,1.9856
3356.00,1.9924
3355.00,1.9988
3354.00,2.0050
3353.00,2.0109
3352.00,2.0164
3351.00,2.0213
3350.00,2.0259
3349.00,2.0304
3348.00,2.0349
3347.00,2.0390
3346.00,2.0421
3345.00,2.0442
3344.00,2.0454
3343.00,2.0459
3342.00,2.0465
3341.00,2.0474
3340.00,2.0481
3339.00,2.0482
3338.00,2.0473
3337.00,2.0456
3336.00,2.0435
3335.00,2.0414
3334.00,2.0394
3333.00,2.0372
3332.00,2.0343
3331.00,2.0304
3330.00,2.0258
3329.00,2.0209
3328.00,2.0156
3327.00,2.0098
3326.00,2.0036
3325.00,1.9972
3324.00,1.9909
3323.00,1.9843
3322.00,1.9767
3321.00,1.9679
3320.00,1.9581
3319.00,1.9478
3318.00,1.9374
3317.00,1.9269
3316.00,1.9159
3315.00,1.9043
3314.00,1.8920
3313.00,1.8791
3312.00,1.8658
3311.00,1.8519
3310.00,1.8372
3309.00,1.8215
3308.00,1.8049
3307.00,1.7875
3306.00,1.7696
3305.00,1.7513
3304.00,1.7325
3303.00,1.7131
3302.00,1.6928
3301.00,1.6713
3300.00,1.6489
3299.00,1.6256
3298.00,1.6019
3297.00,1.5778
3296.00,1.5532
3295.00,1.5279
3294.00,1.5021
3293.00,1.4757
3292.00,1.4491
3291.00,1.4221
3290.00,1.3951
3289.00,1.3682
3288.00,1.3417
3287.00,1.3157
3286.00,1.2904
3285.00,1.2658
3284.00,1.2422
3283.00,1.2196
3282.00,1.1983
3281.00,1.1785
3280.00,1.1604
3279.00,1.1441
3278.00,1.1299
3277.00,1.1178
3276.00,1.1080
3275.00,1.1007
3274.00,1.0958
3273.00,1.0933
3272.00,1.0934
3271.00,1.0960
3270.00,1.1011
3269.00,1.1085
3268.00,1.1182
3267.00,1.1299
3266.00,1.1436
3265.00,1.1591
3264.00,1.1761
3263.00,1.1946
3262.00,1.2143
3261.00,1.2353
3260.00,1.2572
3259.00,1.2800
3258.00,1.3035
3257.00,1.3277
3256.00,1.3524
3255.00,1.3774
3254.00,1.4026
3253.00,1.4279
3252.00,1.4532
3251.00,1.4786
3250.00,1.5040
3249.00,1.5292
3248.00,1.5541
3247.00,1.5785
3246.00,1.6024
3245.00,1.6260
3244.00,1.6494
3243.00,1.6726
3242.00,1.6954
3241.00,1.7176
3240.00,1.7391
3239.00,1.7601
3238.00,1.7804
3237.00,1.8002
3236.00,1.8192
3235.00,1.8375
3234.00,1.8550
3233.00,1.8718
3232.00,1.8881
3231.00,1.9038
3230.00,1.9190
3229.00,1.9337
3228.00,1.9479
3227.00,1.9615
3226.00,1.9743
3225.00,1.9865
3224.00,1.9980
3223.00,2.0090
3222.00,2.0195
3221.00,2.0296
3220.00,2.0393
3219.00,2.0483
3218.00,2.0566
3217.00,2.0644
3216.00,2.0715
3215.00,2.0780
3214.00,2.0839
3213.00,2.0896
3212.00,2.0951
3211.00,2.1001
3210.00,2.1047
3209.00,2.1090
3208.00,2.1130
3207.00,2.1167
3206.00,2.1201
3205.00,2.1231
3204.00,2.1255
3203.00,2.1273
3202.00,2.1287
3201.00,2.1296
3200.00,2.1301
3199.00,2.1298
3198.00,2.1287
3197.00,2.1271
3196.00,2.1248
3195.00,2.1220
3194.00,2.1186
3193.00,2.1149
3192.00,2.1111
3191.00,2.1072
3190.00,2.1029
3189.00,2.0976
3188.00,2.0916
3187.00,2.0851
3186.00,2.0786
3185.00,2.0722
3184.00,2.0651
3183.00,2.0569
3182.00,2.0472
3181.00,2.0366
3180.00,2.0257
3179.00,2.0150
3178.00,2.0044
3177.00,1.9938
3176.00,1.9827
3175.00,1.9707
3174.00,1.9578
3173.00,1.9445
3172.00,1.9316
3171.00,1.9200
3170.00,1.9104
3169.00,1.9037
3168.00,1.9005
3167.00,1.9006
3166.00,1.9034
3165.00,1.9075
3164.00,1.9102
3163.00,1.9089
3162.00,1.9011
3161.00,1.8862
3160.00,1.8649
3159.00,1.8389
3158.00,1.8100
3157.00,1.7797
3156.00,1.7490
3155.00,1.7180
3154.00,1.6871
3153.00,1.6562
3152.00,1.6254
3151.00,1.5948
3150.00,1.5644
3149.00,1.5343
3148.00,1.5047
3147.00,1.4755
3146.00,1.4469
3145.00,1.4190
3144.00,1.3920
3143.00,1.3660
3142.00,1.3413
3141.00,1.3181
3140.00,1.2966
3139.00,1.2770
3138.00,1.2594
3137.00,1.2442
3136.00,1.2315
3135.00,1.2212
3134.00,1.2136
3133.00,1.2085
3132.00,1.2059
3131.00,1.2060
3130.00,1.2086
3129.00,1.2138
3128.00,1.2215
3127.00,1.2315
3126.00,1.2437
3125.00,1.2579
3124.00,1.2741
3123.00,1.2922
3122.00,1.3117
3121.00,1.3325
3120.00,1.3542
3119.00,1.3769
3118.00,1.4005
3117.00,1.4249
3116.00,1.4499
3115.00,1.4751
3114.00,1.5003
3113.00,1.5253
3112.00,1.5502
3111.00,1.5751
3110.00,1.6001
3109.00,1.6251
3108.00,1.6498
3107.00,1.6742
3106.00,1.6982
3105.00,1.7218
3104.00,1.7449
3103.00,1.7676
3102.00,1.7897
3101.00,1.8114
3100.00,1.8326
3099.00,1.8533
3098.00,1.8734
3097.00,1.8932
3096.00,1.9128
3095.00,1.9319
3094.00,1.9498
3093.00,1.9662
3092.00,1.9813
3091.00,1.9959
3090.00,2.0106
3089.00,2.0256
3088.00,2.0404
3087.00,2.0545
3086.00,2.0676
3085.00,2.0797
3084.00,2.0907
3083.00,2.1008
3082.00,2.1103
3081.00,2.1197
3080.00,2.1290
3079.00,2.1379
3078.00,2.1461
3077.00,2.1536
3076.00,2.1606
3075.00,2.1673
3074.00,2.1735
3073.00,2.1792
3072.00,2.1848
3071.00,2.1907
3070.00,2.1966
3069.00,2.2019
3068.00,2.2061
3067.00,2.2091
3066.00,2.2113
3065.00,2.2133
3064.00,2.2154
3063.00,2.2176
3062.00,2.2194
3061.00,2.2202
3060.00,2.2197
3059.00,2.2184
3058.00,2.2170
3057.00,2.2157
3056.00,2.2145
3055.00,2.2130
3054.00,2.2109
3053.00,2.2081
3052.00,2.2044
3051.00,2.2001
3050.00,2.1956
3049.00,2.1910
3048.00,2.1863
3047.00,2.1813
3046.00,2.1759
3045.00,2.1698
3044.00,2.1631
3043.00,2.1555
3042.00,2.1472
3041.00,2.1382
3040.00,2.1287
3039.00,2.1187
3038.00,2.1085
3037.00,2.0980
3036.00,2.0871
3035.00,2.0757
3034.00,2.0639
3033.00,2.0518
3032.00,2.0394
3031.00,2.0263
3030.00,2.0123
3029.00,1.9975
3028.00,1.9824
3027.00,1.9674
3026.00,1.9526
3025.00,1.9378
3024.00,1.9230
3023.00,1.9082
3022.00,1.8937
3021.00,1.8797
3020.00,1.8663
3019.00,1.8534
3018.00,1.8413
3017.00,1.8300
3016.00,1.8200
3015.00,1.8114
3014.00,1.8044
3013.00,1.7991
3012.00,1.7958
3011.00,1.7943
3010.00,1.7944
3009.00,1.7958
3008.00,1.7982
3007.00,1.8014
3006.00,1.8047
3005.00,1.8077
3004.00,1.8097
3003.00,1.8101
3002.00,1.8084
3001.00,1.8044
3000.00,1.7981
2999.00,1.7895
2998.00,1.7787
2997.00,1.7658
2996.00,1.7514
2995.00,1.7363
2994.00,1.7213
2993.00,1.7069
2992.00,1.6937
2991.00,1.6819
2990.00,1.6721
2989.00,1.6649
2988.00,1.6606
2987.00,1.6594
2986.00,1.6613
2985.00,1.6665
2984.00,1.6752
2983.00,1.6873
2982.00,1.7028
2981.00,1.7211
2980.00,1.7420
2979.00,1.7649
2978.00,1.7895
2977.00,1.8154
2976.00,1.8428
2975.00,1.8714
2974.00,1.9007
2973.00,1.9302
2972.00,1.9593
2971.00,1.9878
2970.00,2.0158
2969.00,2.0430
2968.00,2.0693
2967.00,2.0945
2966.00,2.1184
2965.00,2.1407
2964.00,2.1613
2963.00,2.1806
2962.00,2.1994
2961.00,2.2180
2960.00,2.2363
2959.00,2.2542
2958.00,2.2721
2957.00,2.2901
2956.00,2.3083
2955.00,2.3264
2954.00,2.3446
2953.00,2.3633
2952.00,2.3828
2951.00,2.4029
2950.00,2.4236
2949.00,2.4445
2948.00,2.4649
2947.00,2.4836
2946.00,2.4986
2945.00,2.5072
2944.00,2.5074
2943.00,2.4990
2942.00,2.4836
2941.00,2.4639
2940.00,2.4418
2939.00,2.4192
2938.00,2.3976
2937.00,2.3781
2936.00,2.3613
2935.00,2.3469
2934.00,2.3343
2933.00,2.3234
2932.00,2.3142
2931.00,2.3067
2930.00,2.3008
2929.00,2.2960
2928.00,2.2919
2927.00,2.2888
2926.00,2.2874
2925.00,2.2879
2924.00,2.2895
2923.00,2.2915
2922.00,2.2940
2921.00,2.2970
2920.00,2.3001
2919.00,2.3028
2918.00,2.3051
2917.00,2.3079
2916.00,2.3115
2915.00,2.3159
2914.00,2.3204
2913.00,2.3250
2912.00,2.3293
2911.00,2.3328
2910.00,2.3352
2909.00,2.3368
2908.00,2.3384
2907.00,2.3404
2906.00,2.3424
2905.00,2.3439
2904.00,2.3446
2903.00,2.3447
2902.00,2.3445
2901.00,2.3441
2900.00,2.3431
2899.00,2.3414
2898.00,2.3391
2897.00,2.3364
2896.00,2.3333
2895.00,2.3296
2894.00,2.3249
2893.00,2.3196
2892.00,2.3138
2891.00,2.3075
2890.00,2.3003
2889.00,2.2923
2888.00,2.2838
2887.00,2.2759
2886.00,2.2686
2885.00,2.2616
2884.00,2.2539
2883.00,2.2451
2882.00,2.2355
2881.00,2.2257
2880.00,2.2164
2879.00,2.2074
2878.00,2.1991
2877.00,2.1915
2876.00,2.1850
2875.00,2.1794
2874.00,2.1744
2873.00,2.1700
2872.00,2.1663
2871.00,2.1633
2870.00,2.1605
2869.00,2.1572
2868.00,2.1525
2867.00,2.1462
2866.00,2.1383
2865.00,2.1292
2864.00,2.1189
2863.00,2.1072
2862.00,2.0936
2861.00,2.0776
2860.00,2.0591
2859.00,2.0378
2858.00,2.0138
2857.00,1.9870
2856.00,1.9580
2855.00,1.9271
2854.00,1.8945
2853.00,1.8605
2852.00,1.8250
2851.00,1.7883
2850.00,1.7506
2849.00,1.7122
2848.00,1.6735
2847.00,1.6351
2846.00,1.5974
2845.00,1.5606
2844.00,1.5248
2843.00,1.4904
2842.00,1.4577
2841.00,1.4271
2840.00,1.3989
2839.00,1.3734
2838.00,1.3507
2837.00,1.3311
2836.00,1.3148
2835.00,1.3020
2834.00,1.2927
2833.00,1.2870
2832.00,1.2850
2831.00,1.2864
2830.00,1.2913
2829.00,1.2995
2828.00,1.3107
2827.00,1.3247
2826.00,1.3414
2825.00,1.3605
2824.00,1.3819
2823.00,1.4054
2822.00,1.4308
2821.00,1.4578
2820.00,1.4860
2819.00,1.5153
2818.00,1.5453
2817.00,1.5758
2816.00,1.6067
2815.00,1.6379
2814.00,1.6693
2813.00,1.7007
2812.00,1.7317
2811.00,1.7624
2810.00,1.7927
2809.00,1.8225
2808.00,1.8517
2807.00,1.8801
2806.00,1.9075
2805.00,1.9341
2804.00,1.9600
2803.00,1.9853
2802.00,2.0101
2801.00,2.0341
2800.00,2.0570
2799.00,2.0784
2798.00,2.0981
2797.00,2.1166
2796.00,2.1342
2795.00,2.1515
2794.00,2.1685
2793.00,2.1848
2792.00,2.2002
2791.00,2.2148
2790.00,2.2286
2789.00,2.2417
2788.00,2.2538
2787.00,2.2652
2786.00,2.2760
2785.00,2.2865
2784.00,2.2964
2783.00,2.3055
2782.00,2.3142
2781.00,2.3225
2780.00,2.3304
2779.00,2.3373
2778.00,2.3432
2777.00,2.3488
2776.00,2.3546
2775.00,2.3604
2774.00,2.3654
2773.00,2.3695
2772.00,2.3730
2771.00,2.3764
2770.00,2.3796
2769.00,2.3823
2768.00,2.3845
2767.00,2.3857
2766.00,2.3860
2765.00,2.3855
2764.00,2.3846
2763.00,2.3837
2762.00,2.3824
2761.00,2.3810
2760.00,2.3794
2759.00,2.3781
2758.00,2.3765
2757.00,2.3743
2756.00,2.3711
2755.00,2.3673
2754.00,2.3631
2753.00,2.3579
2752.00,2.3516
2751.00,2.3447
2750.00,2.3378
2749.00,2.3310
2748.00,2.3232
2747.00,2.3140
2746.00,2.3035
2745.00,2.2929
2744.00,2.2825
2743.00,2.2722
2742.00,2.2616
2741.00,2.2502
2740.00,2.2379
2739.00,2.2249
2738.00,2.2114
2737.00,2.1972
2736.00,2.1819
2735.00,2.1650
2734.00,2.1474
2733.00,2.1299
2732.00,2.1122
2731.00,2.0937
2730.00,2.0734
2729.00,2.0514
2728.00,2.0282
2727.00,2.0040
2726.00,1.9788
2725.00,1.9525
2724.00,1.9251
2723.00,1.8964
2722.00,1.8662
2721.00,1.8342
2720.00,1.8005
2719.00,1.7651
2718.00,1.7282
2717.00,1.6898
2716.00,1.6501
2715.00,1.6091
2714.00,1.5670
2713.00,1.5243
2712.00,1.4813
2711.00,1.4386
2710.00,1.3966
2709.00,1.3558
2708.00,1.3167
2707.00,1.2798
2706.00,1.2455
2705.00,1.2143
2704.00,1.1867
2703.00,1.1630
2702.00,1.1438
2701.00,1.1293
2700.00,1.1197
2699.00,1.1152
2698.00,1.1158
2697.00,1.1214
2696.00,1.1319
2695.00,1.1470
2694.00,1.1664
2693.00,1.1896
2692.00,1.2161
2691.00,1.2455
2690.00,1.2772
2689.00,1.3109
2688.00,1.3462
2687.00,1.3828
2686.00,1.4205
2685.00,1.4589
2684.00,1.4977
2683.00,1.5364
2682.00,1.5747
2681.00,1.6125
2680.00,1.6497
2679.00,1.6862
2678.00,1.7220
2677.00,1.7571
2676.00,1.7917
2675.00,1.8258
2674.00,1.8590
2673.00,1.8910
2672.00,1.9216
2671.00,1.9510
2670.00,1.9791
2669.00,2.0062
2668.00,2.0324
2667.00,2.0576
2666.00,2.0820
2665.00,2.1056
2664.00,2.1283
2663.00,2.1498
2662.00,2.1699
2661.00,2.1891
2660.00,2.2079
2659.00,2.2265
2658.00,2.2448
2657.00,2.2625
2656.00,2.2795
2655.00,2.2954
2654.00,2.3096
2653.00,2.3222
2652.00,2.3341
2651.00,2.3461
2650.00,2.3584
2649.00,2.3704
2648.00,2.3817
2647.00,2.3923
2646.00,2.4019
2645.00,2.4103
2644.00,2.4175
2643.00,2.4240
2642.00,2.4304
2641.00,2.4371
2640.00,2.4443
2639.00,2.4511
2638.00,2.4567
2637.00,2.4614
2636.00,2.4662
2635.00,2.4715
2634.00,2.4768
2633.00,2.4810
2632.00,2.4842
2631.00,2.4874
2630.00,2.4910
2629.00,2.4941
2628.00,2.4953
2627.00,2.4941
2626.00,2.4916
2625.00,2.4894
2624.00,2.4882
2623.00,2.4872
2622.00,2.4855
2621.00,2.4825
2620.00,2.4784
2619.00,2.4739
2618.00,2.4699
2617.00,2.4667
2616.00,2.4638
2615.00,2.4606
2614.00,2.4566
2613.00,2.4515
2612.00,2.4458
2611.00,2.4393
2610.00,2.4316
2609.00,2.4224
2608.00,2.4123
2607.00,2.4024
2606.00,2.3930
2605.00,2.3836
2604.00,2.3734
2603.00,2.3623
2602.00,2.3504
2601.00,2.3379
2600.00,2.3250
2599.00,2.3117
2598.00,2.2980
2597.00,2.2831
2596.00,2.2667
2595.00,2.2486
2594.00,2.2293
2593.00,2.2093
2592.00,2.1890
2591.00,2.1681
2590.00,2.1463
2589.00,2.1235
2588.00,2.0995
2587.00,2.0743
2586.00,2.0477
2585.00,2.0194
2584.00,1.9894
2583.00,1.9578
2582.00,1.9247
2581.00,1.8901
2580.00,1.8539
2579.00,1.8160
2578.00,1.7766
2577.00,1.7357
2576.00,1.6934
2575.00,1.6498
2574.00,1.6049
2573.00,1.5594
2572.00,1.5139
2571.00,1.4691
2570.00,1.4253
2569.00,1.3831
2568.00,1.3429
2567.00,1.3053
2566.00,1.2708
2565.00,1.2398
2564.00,1.2129
2563.00,1.1903
2562.00,1.1725
2561.00,1.1600
2560.00,1.1530
2559.00,1.1518
2558.00,1.1565
2557.00,1.1667
2556.00,1.1821
2555.00,1.2024
2554.00,1.2268
2553.00,1.2548
2552.00,1.2860
2551.00,1.3197
2550.00,1.3554
2549.00,1.3927
2548.00,1.4313
2547.00,1.4707
2546.00,1.5108
2545.00,1.5513
2544.00,1.5920
2543.00,1.6328
2542.00,1.6736
2541.00,1.7142
2540.00,1.7542
2539.00,1.7932
2538.00,1.8312
2537.00,1.8684
2536.00,1.9048
2535.00,1.9401
2534.00,1.9743
2533.00,2.0073
2532.00,2.0392
2531.00,2.0697
2530.00,2.0990
2529.00,2.1271
2528.00,2.1542
2527.00,2.1802
2526.00,2.2048
2525.00,2.2280
2524.00,2.2498
2523.00,2.2707
2522.00,2.2910
2521.00,2.3104
2520.00,2.3290
2519.00,2.3466
2518.00,2.3634
2517.00,2.3793
2516.00,2.3939
2515.00,2.4072
2514.00,2.4198
2513.00,2.4327
2512.00,2.4464
2511.00,2.4599
2510.00,2.4717
2509.00,2.4812
2508.00,2.4891
2507.00,2.4971
2506.00,2.5058
2505.00,2.5149
2504.00,2.5237
2503.00,2.5321
2502.00,2.5401
2501.00,2.5474
2500.00,2.5535
2499.00,2.5579
2498.00,2.5609
2497.00,2.5632
2496.00,2.5656
2495.00,2.5687
2494.00,2.5721
2493.00,2.5754
2492.00,2.5777
2491.00,2.5791
2490.00,2.5803
2489.00,2.5820
2488.00,2.5844
2487.00,2.5868
2486.00,2.5878
2485.00,2.5869
2484.00,2.5846
2483.00,2.5825
2482.00,2.5809
2481.00,2.5794
2480.00,2.5767
2479.00,2.5727
2478.00,2.5676
2477.00,2.5622
2476.00,2.5569
2475.00,2.5516
2474.00,2.5459
2473.00,2.5396
2472.00,2.5328
2471.00,2.5263
2470.00,2.5200
2469.00,2.5131
2468.00,2.5045
2467.00,2.4945
2466.00,2.4835
2465.00,2.4723
2464.00,2.4608
2463.00,2.4491
2462.00,2.4373
2461.00,2.4249
2460.00,2.4110
2459.00,2.3956
2458.00,2.3793
2457.00,2.3626
2456.00,2.3456
2455.00,2.3276
2454.00,2.3084
2453.00,2.2884
2452.00,2.2678
2451.00,2.2465
2450.00,2.2240
2449.00,2.1999
2448.00,2.1743
2447.00,2.1476
2446.00,2.1199
2445.00,2.0912
2444.00,2.0610
2443.00,2.0293
2442.00,1.9962
2441.00,1.9616
2440.00,1.9255
2439.00,1.8876
2438.00,1.8479
2437.00,1.8069
2436.00,1.7650
2435.00,1.7227
2434.00,1.6805
2433.00,1.6385
2432.00,1.5973
2431.00,1.5572
2430.00,1.5188
2429.00,1.4830
2428.00,1.4503
2427.00,1.4213
2426.00,1.3966
2425.00,1.3767
2424.00,1.3619
2423.00,1.3526
2422.00,1.3486
2421.00,1.3500
2420.00,1.3564
2419.00,1.3674
2418.00,1.3825
2417.00,1.4014
2416.00,1.4235
2415.00,1.4482
2414.00,1.4746
2413.00,1.5023
2412.00,1.5309
2411.00,1.5601
2410.00,1.5895
2409.00,1.6189
2408.00,1.6485
2407.00,1.6783
2406.00,1.7085
2405.00,1.7391
2404.00,1.7701
2403.00,1.8013
2402.00,1.8329
2401.00,1.8650
2400.00,1.8976
2399.00,1.9305
2398.00,1.9636
2397.00,1.9966
2396.00,2.0295
2395.00,2.0618
2394.00,2.0934
2393.00,2.1241
2392.00,2.1540
2391.00,2.1833
2390.00,2.2120
2389.00,2.2398
2388.00,2.2664
2387.00,2.2914
2386.00,2.3149
2385.00,2.3371
2384.00,2.3585
2383.00,2.3787
2382.00,2.3978
2381.00,2.4162
2380.00,2.4345
2379.00,2.4532
2378.00,2.4724
2377.00,2.4917
2376.00,2.5105
2375.00,2.5279
2374.00,2.5435
2373.00,2.5574
2372.00,2.5701
2371.00,2.5822
2370.00,2.5947
2369.00,2.6081
2368.00,2.6216
2367.00,2.6346
2366.00,2.6471
2365.00,2.6587
2364.00,2.6690
2363.00,2.6776
2362.00,2.6842
2361.00,2.6904
2360.00,2.6968
2359.00,2.7035
2358.00,2.7100
2357.00,2.7144
2356.00,2.7156
2355.00,2.7146
2354.00,2.7161
2353.00,2.7221
2352.00,2.7284
2351.00,2.7310
2350.00,2.7290
2349.00,2.7274
2348.00,2.7288
2347.00,2.7317
2346.00,2.7336
2345.00,2.7326
2344.00,2.7305
2343.00,2.7269
2342.00,2.7207
2341.00,2.7116
2340.00,2.7003
2339.00,2.6881
2338.00,2.6764
2337.00,2.6671
2336.00,2.6596
2335.00,2.6517
2334.00,2.6405
2333.00,2.6272
2332.00,2.6133
2331.00,2.6025
2330.00,2.5935
2329.00,2.5850
2328.00,2.5738
2327.00,2.5590
2326.00,2.5417
2325.00,2.5231
2324.00,2.5046
2323.00,2.4863
2322.00,2.4678
2321.00,2.4487
2320.00,2.4282
2319.00,2.4064
2318.00,2.3828
2317.00,2.3583
2316.00,2.3321
2315.00,2.3044
2314.00,2.2740
2313.00,2.2419
2312.00,2.2078
2311.00,2.1725
2310.00,2.1352
2309.00,2.0964
2308.00,2.0565
2307.00,2.0171
2306.00,1.9798
2305.00,1.9466
2304.00,1.9197
2303.00,1.9020
2302.00,1.8959
2301.00,1.9038
2300.00,1.9265
2299.00,1.9640
2298.00,2.0145
2297.00,2.0752
2296.00,2.1415
2295.00,2.2073
2294.00,2.2641
2293.00,2.3030
2292.00,2.3163
2291.00,2.3016
2290.00,2.2620
2289.00,2.2044
2288.00,2.1366
2287.00,2.0643
2286.00,1.9917
2285.00,1.9220
2284.00,1.8582
2283.00,1.8024
2282.00,1.7568
2281.00,1.7230
2280.00,1.7026
2279.00,1.6964
2278.00,1.7042
2277.00,1.7252
2276.00,1.7577
2275.00,1.7996
2274.00,1.8489
2273.00,1.9036
2272.00,1.9623
2271.00,2.0237
2270.00,2.0870
2269.00,2.1514
2268.00,2.2169
2267.00,2.2833
2266.00,2.3511
2265.00,2.4201
2264.00,2.4894
2263.00,2.5584
2262.00,2.6274
2261.00,2.6987
2260.00,2.7749
2259.00,2.8592
2258.00,2.9570
2257.00,3.0764
2256.00,3.2247
2255.00,3.3990
2254.00,3.5656
2253.00,3.6504
2252.00,3.6001
2251.00,3.4512
2250.00,3.2656
2249.00,3.0770
2248.00,2.8977
2247.00,2.7303
2246.00,2.5750
2245.00,2.4329
2244.00,2.3069
2243.00,2.2005
2242.00,2.1169
2241.00,2.0579
2240.00,2.0239
2239.00,2.0130
2238.00,2.0219
2237.00,2.0462
2236.00,2.0816
2235.00,2.1242
2234.00,2.1710
2233.00,2.2194
2232.00,2.2673
2231.00,2.3130
2230.00,2.3555
2229.00,2.3941
2228.00,2.4292
2227.00,2.4613
2226.00,2.4914
2225.00,2.5194
2224.00,2.5450
2223.00,2.5679
2222.00,2.5882
2221.00,2.6066
2220.00,2.6237
2219.00,2.6400
2218.00,2.6556
2217.00,2.6703
2216.00,2.6839
2215.00,2.6964
2214.00,2.7083
2213.00,2.7199
2212.00,2.7304
2211.00,2.7390
2210.00,2.7462
2209.00,2.7535
2208.00,2.7617
2207.00,2.7693
2206.00,2.7748
2205.00,2.7790
2204.00,2.7838
2203.00,2.7896
2202.00,2.7950
2201.00,2.7987
2200.00,2.8014
2199.00,2.8037
2198.00,2.8041
2197.00,2.8016
2196.00,2.7974
2195.00,2.7942
2194.00,2.7931
2193.00,2.7934
2192.00,2.7936
2191.00,2.7922
2190.00,2.7880
2189.00,2.7811
2188.00,2.7735
2187.00,2.7672
2186.00,2.7624
2185.00,2.7577
2184.00,2.7520
2183.00,2.7456
2182.00,2.7392
2181.00,2.7329
2180.00,2.7263
2179.00,2.7190
2178.00,2.7108
2177.00,2.7015
2176.00,2.6916
2175.00,2.6814
2174.00,2.6708
2173.00,2.6589
2172.00,2.6452
2171.00,2.6295
2170.00,2.6119
2169.00,2.5931
2168.00,2.5744
2167.00,2.5567
2166.00,2.5393
2165.00,2.5206
2164.00,2.4999
2163.00,2.4777
2162.00,2.4547
2161.00,2.4307
2160.00,2.4050
2159.00,2.3773
2158.00,2.3482
2157.00,2.3183
2156.00,2.2871
2155.00,2.2542
2154.00,2.2192
2153.00,2.1823
2152.00,2.1436
2151.00,2.1026
2150.00,2.0588
2149.00,2.0121
2148.00,1.9625
2147.00,1.9105
2146.00,1.8564
2145.00,1.8011
2144.00,1.7450
2143.00,1.6891
2142.00,1.6340
2141.00,1.5808
2140.00,1.5303
2139.00,1.4836
2138.00,1.4415
2137.00,1.4049
2136.00,1.3745
2135.00,1.3510
2134.00,1.3351
2133.00,1.3272
2132.00,1.3275
2131.00,1.3359
2130.00,1.3519
2129.00,1.3750
2128.00,1.4043
2127.00,1.4390
2126.00,1.4779
2125.00,1.5203
2124.00,1.5654
2123.00,1.6124
2122.00,1.6607
2121.00,1.7100
2120.00,1.7598
2119.00,1.8098
2118.00,1.8595
2117.00,1.9089
2116.00,1.9576
2115.00,2.0056
2114.00,2.0524
2113.00,2.0979
2112.00,2.1416
2111.00,2.1833
2110.00,2.2228
2109.00,2.2601
2108.00,2.2951
2107.00,2.3280
2106.00,2.3595
2105.00,2.3901
2104.00,2.4203
2103.00,2.4494
2102.00,2.4767
2101.00,2.5019
2100.00,2.5253
2099.00,2.5475
2098.00,2.5689
2097.00,2.5897
2096.00,2.6101
2095.00,2.6302
2094.00,2.6498
2093.00,2.6681
2092.00,2.6849
2091.00,2.7004
2090.00,2.7150
2089.00,2.7287
2088.00,2.7419
2087.00,2.7549
2086.00,2.7673
2085.00,2.7780
2084.00,2.7870
2083.00,2.7964
2082.00,2.8081
2081.00,2.8217
2080.00,2.8339
2079.00,2.8425
2078.00,2.8473
2077.00,2.8506
2076.00,2.8549
2075.00,2.8619
2074.00,2.8713
2073.00,2.8810
2072.00,2.8883
2071.00,2.8918
2070.00,2.8923
2069.00,2.8915
2068.00,2.8916
2067.00,2.8941
2066.00,2.8989
2065.00,2.9041
2064.00,2.9079
2063.00,2.9096
2062.00,2.9091
2061.00,2.9065
2060.00,2.9024
2059.00,2.8988
2058.00,2.8974
2057.00,2.8976
2056.00,2.8975
2055.00,2.8959
2054.00,2.8931
2053.00,2.8900
2052.00,2.8867
2051.00,2.8834
2050.00,2.8799
2049.00,2.8757
2048.00,2.8703
2047.00,2.8639
2046.00,2.8569
2045.00,2.8490
2044.00,2.8400
2043.00,2.8307
2042.00,2.8219
2041.00,2.8135
2040.00,2.8040
2039.00,2.7925
2038.00,2.7797
2037.00,2.7674
2036.00,2.7566
2035.00,2.7468
2034.00,2.7360
2033.00,2.7221
2032.00,2.7053
2031.00,2.6874
2030.00,2.6703
2029.00,2.6540
2028.00,2.6366
2027.00,2.6169
2026.00,2.5951
2025.00,2.5724
2024.00,2.5496
2023.00,2.5269
2022.00,2.5037
2021.00,2.4791
2020.00,2.4524
2019.00,2.4235
2018.00,2.3926
2017.00,2.3600
2016.00,2.3259
2015.00,2.2902
2014.00,2.2528
2013.00,2.2131
2012.00,2.1705
2011.00,2.1249
2010.00,2.0766
2009.00,2.0258
2008.00,1.9724
2007.00,1.9167
2006.00,1.8597
2005.00,1.8021
2004.00,1.7449
2003.00,1.6890
2002.00,1.6354
2001.00,1.5853
2000.00,1.5395
1999.00,1.4992
1998.00,1.4650
1997.00,1.4376
1996.00,1.4179
1995.00,1.4068
1994.00,1.4053
1993.00,1.4130
1992.00,1.4288
1991.00,1.4513
1990.00,1.4802
1989.00,1.5152
1988.00,1.5552
1987.00,1.5991
1986.00,1.6457
1985.00,1.6943
1984.00,1.7444
1983.00,1.7954
1982.00,1.8465
1981.00,1.8976
1980.00,1.9483
1979.00,1.9984
1978.00,2.0478
1977.00,2.0964
1976.00,2.1438
1975.00,2.1897
1974.00,2.2335
1973.00,2.2751
1972.00,2.3149
1971.00,2.3530
1970.00,2.3901
1969.00,2.4259
1968.00,2.4599
1967.00,2.4912
1966.00,2.5195
1965.00,2.5461
1964.00,2.5730
1963.00,2.6003
1962.00,2.6264
1961.00,2.6494
1960.00,2.6691
1959.00,2.6869
1958.00,2.7044
1957.00,2.7228
1956.00,2.7430
1955.00,2.7646
1954.00,2.7857
1953.00,2.8035
1952.00,2.8176
1951.00,2.8296
1950.00,2.8413
1949.00,2.8532
1948.00,2.8647
1947.00,2.8752
1946.00,2.8848
1945.00,2.8941
1944.00,2.9041
1943.00,2.9159
1942.00,2.9289
1941.00,2.9411
1940.00,2.9505
1939.00,2.9570
1938.00,2.9628
1937.00,2.9694
1936.00,2.9769
1935.00,2.9832
1934.00,2.9866
1933.00,2.9877
1932.00,2.9896
1931.00,2.9940
1930.00,3.0004
1929.00,3.0065
1928.00,3.0111
1927.00,3.0145
1926.00,3.0170
1925.00,3.0188
1924.00,3.0203
1923.00,3.0212
1922.00,3.0205
1921.00,3.0172
1920.00,3.0120
1919.00,3.0069
1918.00,3.0038
1917.00,3.0022
1916.00,3.0003
1915.00,2.9964
1914.00,2.9903
1913.00,2.9838
1912.00,2.9798
1911.00,2.9784
1910.00,2.9769
1909.00,2.9722
1908.00,2.9648
1907.00,2.9574
1906.00,2.9512
1905.00,2.9445
1904.00,2.9362
1903.00,2.9265
1902.00,2.9170
1901.00,2.9081
1900.00,2.8995
1899.00,2.8907
1898.00,2.8808
1897.00,2.8691
1896.00,2.8558
1895.00,2.8413
1894.00,2.8259
1893.00,2.8093
1892.00,2.7922
1891.00,2.7750
1890.00,2.7570
1889.00,2.7368
1888.00,2.7144
1887.00,2.6911
1886.00,2.6678
1885.00,2.6442
1884.00,2.6201
1883.00,2.5959
1882.00,2.5716
1881.00,2.5459
1880.00,2.5173
1879.00,2.4853
1878.00,2.4503
1877.00,2.4134
1876.00,2.3755
1875.00,2.3362
1874.00,2.2944
1873.00,2.2491
1872.00,2.2012
1871.00,2.1509
1870.00,2.0980
1869.00,2.0420
1868.00,1.9835
1867.00,1.9246
1866.00,1.8669
1865.00,1.8108
1864.00,1.7565
1863.00,1.7046
1862.00,1.6563
1861.00,1.6132
1860.00,1.5769
1859.00,1.5483
1858.00,1.5284
1857.00,1.5182
1856.00,1.5179
1855.00,1.5273
1854.00,1.5458
1853.00,1.5726
1852.00,1.6064
1851.00,1.6465
1850.00,1.6917
1849.00,1.7396
1848.00,1.7883
1847.00,1.8378
1846.00,1.8901
1845.00,1.9472
1844.00,2.0078
1843.00,2.0671
1842.00,2.1216
1841.00,2.1719
1840.00,2.2205
1839.00,2.2683
1838.00,2.3152
1837.00,2.3609
1836.00,2.4051
1835.00,2.4459
1834.00,2.4822
1833.00,2.5147
1832.00,2.5456
1831.00,2.5766
1830.00,2.6073
1829.00,2.6364
1828.00,2.6639
1827.00,2.6910
1826.00,2.7187
1825.00,2.7462
1824.00,2.7719
1823.00,2.7948
1822.00,2.8156
1821.00,2.8352
1820.00,2.8537
1819.00,2.8700
1818.00,2.8837
1817.00,2.8974
1816.00,2.9131
1815.00,2.9303
1814.00,2.9458
1813.00,2.9576
1812.00,2.9664
1811.00,2.9745
1810.00,2.9839
1809.00,2.9960
1808.00,3.0102
1807.00,3.0244
1806.00,3.0366
1805.00,3.0471
1804.00,3.0571
1803.00,3.0674
1802.00,3.0768
1801.00,3.0829
1800.00,3.0853
1799.00,3.0867
1798.00,3.0903
1797.00,3.0970
1796.00,3.1043
1795.00,3.1099
1794.00,3.1133
1793.00,3.1162
1792.00,3.1202
1791.00,3.1240
1790.00,3.1258
1789.00,3.1257
1788.00,3.1254
1787.00,3.1265
1786.00,3.1280
1785.00,3.1278
1784.00,3.1253
1783.00,3.1232
1782.00,3.1243
1781.00,3.1263
1780.00,3.1246
1779.00,3.1172
1778.00,3.1064
1777.00,3.0946
1776.00,3.0837
1775.00,3.0766
1774.00,3.0741
1773.00,3.0725
1772.00,3.0662
1771.00,3.0553
1770.00,3.0458
1769.00,3.0417
1768.00,3.0394
1767.00,3.0322
1766.00,3.0178
1765.00,2.9987
1764.00,2.9786
1763.00,2.9604
1762.00,2.9451
1761.00,2.9314
1760.00,2.9170
1759.00,2.9005
1758.00,2.8815
1757.00,2.8585
1756.00,2.8305
1755.00,2.8011
1754.00,2.7753
1753.00,2.7536
1752.00,2.7315
1751.00,2.7045
1750.00,2.6729
1749.00,2.6406
1748.00,2.6093
1747.00,2.5796
1746.00,2.5518
1745.00,2.5247
1744.00,2.4966
1743.00,2.4662
1742.00,2.4357
1741.00,2.4090
1740.00,2.3864
1739.00,2.3638
1738.00,2.3407
1737.00,2.3231
1736.00,2.3156
1735.00,2.3164
1734.00,2.3192
1733.00,2.3196
1732.00,2.3218
1731.00,2.3351
1730.00,2.3639
1729.00,2.4056
1728.00,2.4557
1727.00,2.5119
1726.00,2.5739
1725.00,2.6411
1724.00,2.7127
1723.00,2.7861
1722.00,2.8588
1721.00,2.9311
1720.00,3.0064
1719.00,3.0880
1718.00,3.1736
1717.00,3.2563
1716.00,3.3354
1715.00,3.4221
1714.00,3.5204
1713.00,3.6121
1712.00,3.6830
1711.00,3.7536
1710.00,3.8511
1709.00,3.9540
1708.00,3.9877
1707.00,3.9344
1706.00,3.8500
1705.00,3.7497
1704.00,3.6278
1703.00,3.5025
1702.00,3.3803
1701.00,3.2428
1700.00,3.0904
1699.00,2.9498
1698.00,2.8346
1697.00,2.7345
1696.00,2.6310
1695.00,2.5208
1694.00,2.4174
1693.00,2.3342
1692.00,2.2749
1691.00,2.2356
1690.00,2.2122
1689.00,2.2030
1688.00,2.2082
1687.00,2.2282
1686.00,2.2614
1685.00,2.3080
1684.00,2.3652
1683.00,2.4236
1682.00,2.4773
1681.00,2.5279
1680.00,2.5755
1679.00,2.6174
1678.00,2.6532
1677.00,2.6872
1676.00,2.7234
1675.00,2.7611
1674.00,2.7950
1673.00,2.8222
1672.00,2.8460
1671.00,2.8707
1670.00,2.8987
1669.00,2.9299
1668.00,2.9607
1667.00,2.9875
1666.00,3.0101
1665.00,3.0311
1664.00,3.0526
1663.00,3.0746
1662.00,3.0951
1661.00,3.1123
1660.00,3.1267
1659.00,3.1394
1658.00,3.1498
1657.00,3.1569
1656.00,3.1617
1655.00,3.1637
1654.00,3.1661
1653.00,3.1777
1652.00,3.1944
1651.00,3.2030
1650.00,3.2061
1649.00,3.2131
1648.00,3.2262
1647.00,3.2417
1646.00,3.2551
1645.00,3.2636
1644.00,3.2675
1643.00,3.2698
1642.00,3.2727
1641.00,3.2745
1640.00,3.2738
1639.00,3.2728
1638.00,3.2745
1637.00,3.2787
1636.00,3.2814
1635.00,3.2785
1634.00,3.2714
1633.00,3.2683
1632.00,3.2733
1631.00,3.2814
1630.00,3.2841
1629.00,3.2784
1628.00,3.2690
1627.00,3.2599
1626.00,3.2496
1625.00,3.2378
1624.00,3.2297
1623.00,3.2290
1622.00,3.2318
1621.00,3.2321
1620.00,3.2301
1619.00,3.2292
1618.00,3.2265
1617.00,3.2147
1616.00,3.1919
1615.00,3.1660
1614.00,3.1462
1613.00,3.1341
1612.00,3.1243
1611.00,3.1122
1610.00,3.0980
1609.00,3.0837
1608.00,3.0697
1607.00,3.0563
1606.00,3.0434
1605.00,3.0297
1604.00,3.0139
1603.00,2.9959
1602.00,2.9751
1601.00,2.9514
1600.00,2.9261
1599.00,2.9016
1598.00,2.8777
1597.00,2.8510
1596.00,2.8188
1595.00,2.7826
1594.00,2.7461
1593.00,2.7113
1592.00,2.6776
1591.00,2.6432
1590.00,2.6071
1589.00,2.5685
1588.00,2.5276
1587.00,2.4846
1586.00,2.4398
1585.00,2.3935
1584.00,2.3466
1583.00,2.3012
1582.00,2.2580
1581.00,2.2158
1580.00,2.1765
1579.00,2.1447
1578.00,2.1221
1577.00,2.1046
1576.00,2.0865
1575.00,2.0665
1574.00,2.0497
1573.00,2.0422
1572.00,2.0459
1571.00,2.0597
1570.00,2.0836
1569.00,2.1164
1568.00,2.1532
1567.00,2.1917
1566.00,2.2329
1565.00,2.2774
1564.00,2.3227
1563.00,2.3659
1562.00,2.4062
1561.00,2.4411
1560.00,2.4756
1559.00,2.5222
1558.00,2.5789
1557.00,2.6327
1556.00,2.6798
1555.00,2.7240
1554.00,2.7659
1553.00,2.8041
1552.00,2.8402
1551.00,2.8748
1550.00,2.9043
1549.00,2.9262
1548.00,2.9429
1547.00,2.9601
1546.00,2.9814
1545.00,3.0053
1544.00,3.0266
1543.00,3.0425
1542.00,3.0581
1541.00,3.0849
1540.00,3.1257
1539.00,3.1639
1538.00,3.1796
1537.00,3.1770
1536.00,3.1746
1535.00,3.1840
1534.00,3.2057
1533.00,3.2330
1532.00,3.2570
1531.00,3.2751
1530.00,3.2924
1529.00,3.3141
1528.00,3.3374
1527.00,3.3531
1526.00,3.3576
1525.00,3.3585
1524.00,3.3641
1523.00,3.3731
1522.00,3.3808
1521.00,3.3877
1520.00,3.3979
1519.00,3.4110
1518.00,3.4220
1517.00,3.4300
1516.00,3.4379
1515.00,3.4467
1514.00,3.4537
1513.00,3.4556
1512.00,3.4519
1511.00,3.4453
1510.00,3.4399
1509.00,3.4374
1508.00,3.4365
1507.00,3.4342
1506.00,3.4316
1505.00,3.4317
1504.00,3.4338
1503.00,3.4378
1502.00,3.4433
1501.00,3.4486
1500.00,3.4544
1499.00,3.4639
1498.00,3.4747
1497.00,3.4752
1496.00,3.4611
1495.00,3.4425
1494.00,3.4292
1493.00,3.4226
1492.00,3.4173
1491.00,3.4075
1490.00,3.3934
1489.00,3.3807
1488.00,3.3765
1487.00,3.3814
1486.00,3.3887
1485.00,3.3890
1484.00,3.3808
1483.00,3.3719
1482.00,3.3681
1481.00,3.3644
1480.00,3.3518
1479.00,3.3295
1478.00,3.3048
1477.00,3.2837
1476.00,3.2668
1475.00,3.2534
1474.00,3.2447
1473.00,3.2400
1472.00,3.2341
1471.00,3.2256
1470.00,3.2197
1469.00,3.2220
1468.00,3.2309
1467.00,3.2400
1466.00,3.2456
1465.00,3.2493
1464.00,3.2548
1463.00,3.2634
1462.00,3.2733
1461.00,3.2829
1460.00,3.2933
1459.00,3.3100
1458.00,3.3395
1457.00,3.3793
1456.00,3.4136
1455.00,3.4348
1454.00,3.4609
1453.00,3.5097
1452.00,3.5721
1451.00,3.6144
1450.00,3.6186
1449.00,3.6072
1448.00,3.6043
1447.00,3.6083
1446.00,3.6082
1445.00,3.6031
1444.00,3.6010
1443.00,3.6047
1442.00,3.6099
1441.00,3.6103
1440.00,3.6002
1439.00,3.5782
1438.00,3.5532
1437.00,3.5368
1436.00,3.5332
1435.00,3.5357
1434.00,3.5340
1433.00,3.5239
1432.00,3.5105
1431.00,3.5033
1430.00,3.5073
1429.00,3.5193
1428.00,3.5317
1427.00,3.5430
1426.00,3.5562
1425.00,3.5663
1424.00,3.5619
1423.00,3.5438
1422.00,3.5299
1421.00,3.5325
1420.00,3.5413
1419.00,3.5358
1418.00,3.5146
1417.00,3.4917
1416.00,3.4733
1415.00,3.4537
1414.00,3.4264
1413.00,3.3955
1412.00,3.3702
1411.00,3.3537
1410.00,3.3402
1409.00,3.3214
1408.00,3.2958
1407.00,3.2708
1406.00,3.2561
1405.00,3.2525
1404.00,3.2507
1403.00,3.2411
1402.00,3.2259
1401.00,3.2165
1400.00,3.2203
1399.00,3.2343
1398.00,3.2494
1397.00,3.2600
1396.00,3.2679
1395.00,3.2786
1394.00,3.2950
1393.00,3.3163
1392.00,3.3384
1391.00,3.3580
1390.00,3.3776
1389.00,3.4035
1388.00,3.4364
1387.00,3.4684
1386.00,3.4899
1385.00,3.5018
1384.00,3.5132
1383.00,3.5324
1382.00,3.5635
1381.00,3.6085
1380.00,3.6657
1379.00,3.7269
1378.00,3.7829
1377.00,3.8314
1376.00,3.8689
1375.00,3.8758
1374.00,3.8279
1373.00,3.7345
1372.00,3.6315
1371.00,3.5435
1370.00,3.4771
1369.00,3.4309
1368.00,3.4029
1367.00,3.3908
1366.00,3.3909
1365.00,3.3977
1364.00,3.4081
1363.00,3.4234
1362.00,3.4424
1361.00,3.4565
1360.00,3.4566
1359.00,3.4477
1358.00,3.4472
1357.00,3.4672
1356.00,3.5035
1355.00,3.5412
1354.00,3.5700
1353.00,3.5911
1352.00,3.6062
1351.00,3.6103
1350.00,3.6023
1349.00,3.5929
1348.00,3.5923
1347.00,3.6038
1346.00,3.6266
1345.00,3.6536
1344.00,3.6699
1343.00,3.6631
1342.00,3.6404
1341.00,3.6204
1340.00,3.6105
1339.00,3.6046
1338.00,3.5998
1337.00,3.6003
1336.00,3.6064
1335.00,3.6114
1334.00,3.6138
1333.00,3.6158
1332.00,3.6156
1331.00,3.6099
1330.00,3.5988
1329.00,3.5889
1328.00,3.5885
1327.00,3.5987
1326.00,3.6121
1325.00,3.6189
1324.00,3.6123
1323.00,3.5936
1322.00,3.5717
1321.00,3.5571
1320.00,3.5565
1319.00,3.5685
1318.00,3.5832
1317.00,3.5908
1316.00,3.5931
1315.00,3.5977
1314.00,3.6060
1313.00,3.6097
1312.00,3.5968
1311.00,3.5638
1310.00,3.5261
1309.00,3.5013
1308.00,3.4924
1307.00,3.4912
1306.00,3.4872
1305.00,3.4749
1304.00,3.4548
1303.00,3.4310
1302.00,3.4085
1301.00,3.3910
1300.00,3.3777
1299.00,3.3635
1298.00,3.3425
1297.00,3.3120
1296.00,3.2733
1295.00,3.2306
1294.00,3.1872
1293.00,3.1437
1292.00,3.0992
1291.00,3.0537
1290.00,3.0080
1289.00,2.9625
1288.00,2.9163
1287.00,2.8690
1286.00,2.8208
1285.00,2.7714
1284.00,2.7200
1283.00,2.6676
1282.00,2.6166
1281.00,2.5701
1280.00,2.5302
1279.00,2.4981
1278.00,2.4740
1277.00,2.4563
1276.00,2.4421
1275.00,2.4286
1274.00,2.4150
1273.00,2.4033
1272.00,2.3965
1271.00,2.3969
1270.00,2.4058
1269.00,2.4228
1268.00,2.4468
1267.00,2.4764
1266.00,2.5109
1265.00,2.5499
1264.00,2.5930
1263.00,2.6395
1262.00,2.6886
1261.00,2.7399
1260.00,2.7922
1259.00,2.8439
1258.00,2.8934
1257.00,2.9409
1256.00,2.9864
1255.00,3.0297
1254.00,3.0713
1253.00,3.1127
1252.00,3.1557
1251.00,3.2002
1250.00,3.2446
1249.00,3.2865
1248.00,3.3209
1247.00,3.3434
1246.00,3.3584
1245.00,3.3782
1244.00,3.4114
1243.00,3.4586
1242.00,3.5138
1241.00,3.5664
1240.00,3.6028
1239.00,3.6165
1238.00,3.6244
1237.00,3.6562
1236.00,3.7178
1235.00,3.7714
1234.00,3.7722
1233.00,3.7367
1232.00,3.7212
1231.00,3.7553
1230.00,3.8230
1229.00,3.8663
1228.00,3.8389
1227.00,3.7787
1226.00,3.7397
1225.00,3.7386
1224.00,3.7738
1223.00,3.8277
1222.00,3.8527
1221.00,3.8209
1220.00,3.7707
1219.00,3.7369
1218.00,3.7231
1217.00,3.7227
1216.00,3.7324
1215.00,3.7538
1214.00,3.7895
1213.00,3.8402
1212.00,3.8900
1211.00,3.9069
1210.00,3.8934
1209.00,3.8891
1208.00,3.9084
1207.00,3.9274
1206.00,3.9254
1205.00,3.9099
1204.00,3.9013
1203.00,3.9008
1202.00,3.8781
1201.00,3.8239
1200.00,3.7661
1199.00,3.7313
1198.00,3.7314
1197.00,3.7651
1196.00,3.8175
1195.00,3.8515
1194.00,3.8347
1193.00,3.7880
1192.00,3.7535
1191.00,3.7475
1190.00,3.7615
1189.00,3.7830
1188.00,3.8106
1187.00,3.8423
1186.00,3.8565
1185.00,3.8279
1184.00,3.7682
1183.00,3.7190
1182.00,3.7107
1181.00,3.7413
1180.00,3.7769
1179.00,3.7731
1178.00,3.7126
1177.00,3.6303
1176.00,3.5752
1175.00,3.5646
1174.00,3.5806
1173.00,3.5860
1172.00,3.5619
1171.00,3.5305
1170.00,3.5221
1169.00,3.5423
1168.00,3.5687
1167.00,3.5705
1166.00,3.5470
1165.00,3.5280
1164.00,3.5335
1163.00,3.5547
1162.00,3.5576
1161.00,3.5145
1160.00,3.4415
1159.00,3.3760
1158.00,3.3391
1157.00,3.3298
1156.00,3.3322
1155.00,3.3232
1154.00,3.2902
1153.00,3.2391
1152.00,3.1826
1151.00,3.1259
1150.00,3.0665
1149.00,3.0026
1148.00,2.9376
1147.00,2.8773
1146.00,2.8254
1145.00,2.7805
1144.00,2.7401
1143.00,2.7031
1142.00,2.6708
1141.00,2.6454
1140.00,2.6305
1139.00,2.6295
1138.00,2.6435
1137.00,2.6696
1136.00,2.7027
1135.00,2.7404
1134.00,2.7849
1133.00,2.8400
1132.00,2.9065
1131.00,2.9807
1130.00,3.0568
1129.00,3.1299
1128.00,3.1959
1127.00,3.2531
1126.00,3.3047
1125.00,3.3552
1124.00,3.4038
1123.00,3.4470
1122.00,3.4832
1121.00,3.5079
1120.00,3.5103
1119.00,3.4873
1118.00,3.4611
1117.00,3.4631
1116.00,3.5063
1115.00,3.5769
1114.00,3.6521
1113.00,3.7114
1112.00,3.7388
1111.00,3.7615
1110.00,3.8174
1109.00,3.8963
1108.00,3.9593
1107.00,3.9844
1106.00,3.9950
1105.00,4.0356
1104.00,4.1322
1103.00,4.2259
1102.00,4.2025
1101.00,4.1331
1100.00,4.1249
1099.00,4.2177
1098.00,4.4160
1097.00,4.6118
1096.00,4.6135
1095.00,4.4707
1094.00,4.3087
1093.00,4.1707
1092.00,4.0772
1091.00,4.0440
1090.00,4.0807
1089.00,4.1821
1088.00,4.3328
1087.00,4.4073
1086.00,4.3582
1085.00,4.3041
1084.00,4.4073
1083.00,4.6895
1082.00,4.5071
1081.00,4.3369
1080.00,4.2733
1079.00,4.1958
1078.00,4.1610
1077.00,4.2829
1076.00,4.7923
1075.00,4.7087
1074.00,4.3141
1073.00,4.1955
1072.00,4.1407
1071.00,4.0948
1070.00,4.0159
1069.00,3.9245
1068.00,3.8616
1067.00,3.8460
1066.00,3.8710
1065.00,3.9393
1064.00,4.1036
1063.00,4.4396
1062.00,5.0829
1061.00,5.0258
1060.00,4.3885
1059.00,4.1028
1058.00,3.9645
1057.00,3.9466
1056.00,4.0407
1055.00,4.3537
1054.00,5.0051
1053.00,4.8964
1052.00,4.6768
1051.00,4.2669
1050.00,4.0429
1049.00,3.9872
1048.00,4.0191
1047.00,4.1263
1046.00,4.2209
1045.00,4.3027
1044.00,4.4439
1043.00,4.4015
1042.00,4.1623
1041.00,4.0617
1040.00,4.0747
1039.00,4.1122
1038.00,4.1816
1037.00,4.2402
1036.00,4.1541
1035.00,4.0974
1034.00,4.1653
1033.00,4.1499
1032.00,4.0107
1031.00,3.9578
1030.00,4.0233
1029.00,4.1653
1028.00,4.3083
1027.00,4.4263
1026.00,4.4768
1025.00,4.3054
1024.00,4.1151
1023.00,4.0213
1022.00,4.0360
1021.00,4.1408
1020.00,4.2384
1019.00,4.2510
1018.00,4.2369
1017.00,4.2360
1016.00,4.1537
1015.00,3.9787
1014.00,3.8453
1013.00,3.7885
1012.00,3.7830
1011.00,3.8061
1010.00,3.8539
1009.00,3.9246
1008.00,3.9754
1007.00,3.9569
1006.00,3.9006
1005.00,3.8545
1004.00,3.8168
1003.00,3.7737
1002.00,3.7370
1001.00,3.7278
1000.00,3.7396
999.00,3.7322
998.00,3.6689
997.00,3.5683
996.00,3.4770
995.00,3.4150
994.00,3.3783
993.00,3.3574
992.00,3.3478
991.00,3.3489
990.00,3.3556
989.00,3.3557
988.00,3.3430
987.00,3.3295
986.00,3.3400
985.00,3.3964
984.00,3.5036
983.00,3.6383
982.00,3.7532
981.00,3.8155
980.00,3.8473
979.00,3.8818
978.00,3.9680
977.00,4.1329
976.00,4.5688
975.00,4.9731
974.00,4.7047
973.00,4.9381
972.00,4.3997
971.00,4.1738
970.00,4.2275
969.00,4.4679
968.00,4.7911
967.00,4.5212
966.00,4.3800
965.00,4.3238
964.00,4.2724
963.00,4.2149
962.00,4.1754
961.00,4.2144
960.00,4.2597
959.00,4.2402
958.00,4.2890
957.00,4.4475
956.00,4.6255
955.00,4.6517
954.00,4.3570
953.00,4.1024
952.00,3.9634
951.00,3.9061
950.00,3.9195
949.00,3.9964
948.00,4.1362
947.00,4.2437
946.00,4.2453
945.00,4.2984
944.00,4.4251
943.00,4.4459
942.00,4.6422
941.00,5.3640
940.00,5.2240
939.00,5.1470
938.00,4.9165
937.00,4.6363
936.00,4.5731
935.00,4.6348
934.00,4.5207
933.00,4.3904
932.00,4.3794
931.00,4.2520
930.00,4.1047
929.00,4.0535
928.00,4.1420
927.00,4.4702
926.00,4.5847
925.00,4.2465
924.00,4.1009
923.00,4.0646
922.00,4.1162
921.00,4.2380
920.00,4.4029
919.00,4.5678
918.00,4.4557
917.00,4.2081
916.00,4.1104
915.00,4.1286
914.00,4.3682
913.00,4.8688
912.00,4.3968
911.00,4.1903
910.00,4.1684
909.00,4.2119
908.00,4.3226
907.00,4.3364
906.00,4.2363
905.00,4.1113
904.00,4.0619
903.00,4.0831
902.00,4.1824
901.00,4.3329
900.00,4.2807
899.00,4.1425
898.00,4.1266
897.00,4.1987
896.00,4.2852
895.00,4.2862
894.00,4.2927
893.00,4.6123
892.00,4.7872
891.00,4.3557
890.00,4.5758
889.00,4.8775
888.00,4.2539
887.00,4.0943
886.00,4.0604
885.00,4.0571
884.00,4.0948
883.00,4.1600
882.00,4.2808
881.00,4.3714
880.00,4.3209
879.00,4.2037
878.00,4.1425
877.00,4.1192
876.00,4.1039
875.00,4.1540
874.00,4.3584
873.00,4.7788
872.00,4.8727
871.00,4.4562
870.00,4.2168
869.00,4.1385
868.00,4.1654
867.00,4.2707
866.00,4.5253
865.00,4.7404
864.00,4.5476
863.00,4.3436
862.00,4.1399
861.00,4.0254
860.00,4.0189
859.00,4.0619
858.00,4.1026
857.00,4.1241
856.00,4.1879
855.00,4.2656
854.00,4.2185
853.00,4.1864
852.00,4.2121
851.00,4.1646
850.00,4.0997
849.00,4.0991
848.00,4.1647
847.00,4.3688
846.00,4.6777
845.00,4.5138
844.00,4.5623
843.00,4.6904
842.00,4.3954
841.00,4.2799
840.00,4.3775
839.00,4.7658
838.00,4.5408
837.00,4.2299
836.00,4.2246
835.00,4.3587
834.00,4.5657
833.00,4.5269
832.00,4.2367
831.00,4.0105
830.00,3.8761
829.00,3.8175
828.00,3.8286
827.00,3.9171
826.00,4.1225
825.00,4.3701
824.00,4.7033
823.00,4.7655
822.00,4.3984
821.00,4.4013
820.00,4.1921
819.00,3.9264
818.00,3.8130
817.00,3.7739
816.00,3.7862
815.00,3.8260
814.00,3.8765
813.00,3.9130
812.00,3.9577
811.00,4.0527
810.00,4.2034
809.00,4.3182
808.00,4.1971
807.00,3.9992
806.00,3.8522
805.00,3.7811
804.00,3.8051
803.00,3.9639
802.00,4.3302
801.00,4.4627
800.00,4.2648
799.00,4.2404
798.00,4.2084
797.00,4.1207
796.00,4.0797
795.00,4.1108
794.00,4.2927
793.00,4.6362
792.00,4.5015
791.00,4.3154
790.00,4.2228
789.00,4.1312
788.00,4.0834
787.00,4.1721
786.00,4.2711
785.00,4.1228
784.00,4.0086
783.00,4.1620
782.00,4.5396
781.00,4.1704
780.00,3.9826
779.00,3.9911
778.00,4.0212
777.00,4.0112
776.00,3.9417
775.00,3.8544
774.00,3.8181
773.00,3.8702
772.00,4.0879
771.00,4.5762
770.00,4.3453
769.00,4.2132
768.00,4.2374
767.00,4.0241
766.00,3.8615
765.00,3.8317
764.00,3.9070
763.00,4.0591
762.00,4.3778
761.00,4.3839
760.00,4.0779
759.00,4.0276
758.00,4.2859
757.00,4.6082
756.00,4.1416
755.00,4.0031
754.00,4.0656
753.00,4.0444
752.00,3.9401
751.00,3.9043
750.00,3.9250
749.00,3.9185
748.00,3.9342
747.00,4.0277
746.00,4.1766
745.00,4.1842
744.00,3.9860
743.00,3.7799
742.00,3.6559
741.00,3.6379
740.00,3.7340
739.00,3.9341
738.00,4.1464
737.00,4.1677
736.00,4.0438
735.00,3.9852
734.00,4.0492
733.00,4.2900
732.00,4.7047
731.00,4.6115
730.00,4.4871
729.00,4.5267
728.00,4.3605
727.00,4.0753
726.00,3.9289
725.00,3.9394
724.00,4.1299
723.00,4.2545
722.00,4.0855
721.00,4.0712
720.00,4.3071
719.00,4.7218
718.00,4.4594
717.00,4.1886
716.00,4.0676
715.00,4.0157
714.00,3.9647
713.00,3.8963
712.00,3.8494
711.00,3.7797
710.00,3.7159
709.00,3.7019
708.00,3.7279
707.00,3.7593
706.00,3.8154
705.00,3.9240
704.00,4.1935
703.00,4.5620
702.00,4.2322
701.00,4.1047
700.00,4.2201
