Created as New Dataset,Sample 053 By Administrator Date Wednesday, November 24 2021
cm-1,A
7502.00,0.4836
7501.00,0.4873
7500.00,0.4916
7499.00,0.4963
7498.00,0.5012
7497.00,0.5064
7496.00,0.5123
7495.00,0.5188
7494.00,0.5258
7493.00,0.5330
7492.00,0.5403
7491.00,0.5478
7490.00,0.5554
7489.00,0.5631
7488.00,0.5709
7487.00,0.5787
7486.00,0.5866
7485.00,0.5949
7484.00,0.6038
7483.00,0.6131
7482.00,0.6225
7481.00,0.6319
7480.00,0.6412
7479.00,0.6508
7478.00,0.6604
7477.00,0.6696
7476.00,0.6782
7475.00,0.6864
7474.00,0.6946
7473.00,0.7031
7472.00,0.7118
7471.00,0.7203
7470.00,0.7285
7469.00,0.7366
7468.00,0.7447
7467.00,0.7528
7466.00,0.7608
7465.00,0.7686
7464.00,0.7761
7463.00,0.7837
7462.00,0.7916
7461.00,0.7995
7460.00,0.8070
7459.00,0.8137
7458.00,0.8199
7457.00,0.8260
7456.00,0.8320
7455.00,0.8379
7454.00,0.8435
7453.00,0.8490
7452.00,0.8545
7451.00,0.8600
7450.00,0.8657
7449.00,0.8709
7448.00,0.8751
7447.00,0.8781
7446.00,0.8803
7445.00,0.8824
7444.00,0.8845
7443.00,0.8864
7442.00,0.8878
7441.00,0.8890
7440.00,0.8902
7439.00,0.8914
7438.00,0.8921
7437.00,0.8918
7436.00,0.8907
7435.00,0.8893
7434.00,0.8879
7433.00,0.8869
7432.00,0.8860
7431.00,0.8847
7430.00,0.8826
7429.00,0.8801
7428.00,0.8778
7427.00,0.8760
7426.00,0.8745
7425.00,0.8720
7424.00,0.8680
7423.00,0.8633
7422.00,0.8588
7421.00,0.8548
7420.00,0.8503
7419.00,0.8445
7418.00,0.8372
7417.00,0.8295
7416.00,0.8221
7415.00,0.8150
7414.00,0.8076
7413.00,0.7995
7412.00,0.7909
7411.00,0.7825
7410.00,0.7749
7409.00,0.7682
7408.00,0.7622
7407.00,0.7565
7406.00,0.7508
7405.00,0.7448
7404.00,0.7387
7403.00,0.7323
7402.00,0.7252
7401.00,0.7174
7400.00,0.7090
7399.00,0.7008
7398.00,0.6933
7397.00,0.6863
7396.00,0.6799
7395.00,0.6740
7394.00,0.6688
7393.00,0.6643
7392.00,0.6600
7391.00,0.6553
7390.00,0.6503
7389.00,0.6451
7388.00,0.6399
7387.00,0.6350
7386.00,0.6304
7385.00,0.6263
7384.00,0.6224
7383.00,0.6187
7382.00,0.6152
7381.00,0.6120
7380.00,0.6095
7379.00,0.6074
7378.00,0.6051
7377.00,0.6021
7376.00,0.5987
7375.00,0.5957
7374.00,0.5933
7373.00,0.5912
7372.00,0.5891
7371.00,0.5870
7370.00,0.5856
7369.00,0.5852
7368.00,0.5857
7367.00,0.5868
7366.00,0.5885
7365.00,0.5906
7364.00,0.5931
7363.00,0.5959
7362.00,0.5990
7361.00,0.6026
7360.00,0.6064
7359.00,0.6106
7358.00,0.6149
7357.00,0.6195
7356.00,0.6243
7355.00,0.6297
7354.00,0.6358
7353.00,0.6426
7352.00,0.6497
7351.00,0.6567
7350.00,0.6639
7349.00,0.6712
7348.00,0.6786
7347.00,0.6860
7346.00,0.6934
7345.00,0.7011
7344.00,0.7091
7343.00,0.7174
7342.00,0.7261
7341.00,0.7351
7340.00,0.7445
7339.00,0.7539
7338.00,0.7628
7337.00,0.7712
7336.00,0.7793
7335.00,0.7873
7334.00,0.7956
7333.00,0.8042
7332.00,0.8127
7331.00,0.8212
7330.00,0.8301
7329.00,0.8394
7328.00,0.8489
7327.00,0.8582
7326.00,0.8673
7325.00,0.8757
7324.00,0.8834
7323.00,0.8904
7322.00,0.8973
7321.00,0.9044
7320.00,0.9115
7319.00,0.9184
7318.00,0.9257
7317.00,0.9337
7316.00,0.9419
7315.00,0.9498
7314.00,0.9571
7313.00,0.9640
7312.00,0.9705
7311.00,0.9762
7310.00,0.9809
7309.00,0.9851
7308.00,0.9890
7307.00,0.9930
7306.00,0.9970
7305.00,1.0012
7304.00,1.0059
7303.00,1.0108
7302.00,1.0159
7301.00,1.0206
7300.00,1.0248
7299.00,1.0282
7298.00,1.0310
7297.00,1.0332
7296.00,1.0346
7295.00,1.0353
7294.00,1.0354
7293.00,1.0352
7292.00,1.0348
7291.00,1.0342
7290.00,1.0333
7289.00,1.0322
7288.00,1.0312
7287.00,1.0304
7286.00,1.0299
7285.00,1.0294
7284.00,1.0286
7283.00,1.0270
7282.00,1.0244
7281.00,1.0209
7280.00,1.0168
7279.00,1.0124
7278.00,1.0079
7277.00,1.0035
7276.00,0.9990
7275.00,0.9944
7274.00,0.9899
7273.00,0.9855
7272.00,0.9809
7271.00,0.9757
7270.00,0.9697
7269.00,0.9630
7268.00,0.9557
7267.00,0.9478
7266.00,0.9398
7265.00,0.9319
7264.00,0.9243
7263.00,0.9167
7262.00,0.9091
7261.00,0.9015
7260.00,0.8940
7259.00,0.8862
7258.00,0.8779
7257.00,0.8689
7256.00,0.8597
7255.00,0.8506
7254.00,0.8421
7253.00,0.8342
7252.00,0.8263
7251.00,0.8181
7250.00,0.8095
7249.00,0.8011
7248.00,0.7929
7247.00,0.7850
7246.00,0.7770
7245.00,0.7690
7244.00,0.7612
7243.00,0.7538
7242.00,0.7472
7241.00,0.7410
7240.00,0.7346
7239.00,0.7281
7238.00,0.7217
7237.00,0.7162
7236.00,0.7117
7235.00,0.7077
7234.00,0.7040
7233.00,0.7007
7232.00,0.6978
7231.00,0.6955
7230.00,0.6934
7229.00,0.6915
7228.00,0.6896
7227.00,0.6881
7226.00,0.6874
7225.00,0.6875
7224.00,0.6882
7223.00,0.6892
7222.00,0.6907
7221.00,0.6927
7220.00,0.6951
7219.00,0.6975
7218.00,0.7002
7217.00,0.7034
7216.00,0.7073
7215.00,0.7118
7214.00,0.7166
7213.00,0.7219
7212.00,0.7277
7211.00,0.7337
7210.00,0.7401
7209.00,0.7467
7208.00,0.7534
7207.00,0.7600
7206.00,0.7667
7205.00,0.7737
7204.00,0.7811
7203.00,0.7888
7202.00,0.7967
7201.00,0.8049
7200.00,0.8136
7199.00,0.8224
7198.00,0.8311
7197.00,0.8397
7196.00,0.8481
7195.00,0.8563
7194.00,0.8645
7193.00,0.8727
7192.00,0.8810
7191.00,0.8893
7190.00,0.8974
7189.00,0.9056
7188.00,0.9138
7187.00,0.9219
7186.00,0.9295
7185.00,0.9368
7184.00,0.9441
7183.00,0.9518
7182.00,0.9598
7181.00,0.9679
7180.00,0.9757
7179.00,0.9832
7178.00,0.9903
7177.00,0.9970
7176.00,1.0031
7175.00,1.0084
7174.00,1.0132
7173.00,1.0180
7172.00,1.0234
7171.00,1.0290
7170.00,1.0343
7169.00,1.0393
7168.00,1.0441
7167.00,1.0488
7166.00,1.0532
7165.00,1.0571
7164.00,1.0607
7163.00,1.0640
7162.00,1.0670
7161.00,1.0697
7160.00,1.0724
7159.00,1.0752
7158.00,1.0778
7157.00,1.0797
7156.00,1.0805
7155.00,1.0805
7154.00,1.0802
7153.00,1.0799
7152.00,1.0795
7151.00,1.0788
7150.00,1.0776
7149.00,1.0764
7148.00,1.0752
7147.00,1.0740
7146.00,1.0722
7145.00,1.0698
7144.00,1.0669
7143.00,1.0637
7142.00,1.0604
7141.00,1.0568
7140.00,1.0532
7139.00,1.0497
7138.00,1.0461
7137.00,1.0423
7136.00,1.0379
7135.00,1.0333
7134.00,1.0286
7133.00,1.0232
7132.00,1.0167
7131.00,1.0093
7130.00,1.0016
7129.00,0.9942
7128.00,0.9869
7127.00,0.9792
7126.00,0.9712
7125.00,0.9630
7124.00,0.9549
7123.00,0.9470
7122.00,0.9393
7121.00,0.9317
7120.00,0.9237
7119.00,0.9152
7118.00,0.9064
7117.00,0.8979
7116.00,0.8895
7115.00,0.8808
7114.00,0.8719
7113.00,0.8631
7112.00,0.8548
7111.00,0.8470
7110.00,0.8395
7109.00,0.8321
7108.00,0.8245
7107.00,0.8168
7106.00,0.8092
7105.00,0.8017
7104.00,0.7945
7103.00,0.7872
7102.00,0.7801
7101.00,0.7733
7100.00,0.7668
7099.00,0.7606
7098.00,0.7547
7097.00,0.7492
7096.00,0.7439
7095.00,0.7391
7094.00,0.7346
7093.00,0.7305
7092.00,0.7269
7091.00,0.7236
7090.00,0.7208
7089.00,0.7185
7088.00,0.7165
7087.00,0.7148
7086.00,0.7136
7085.00,0.7130
7084.00,0.7129
7083.00,0.7132
7082.00,0.7140
7081.00,0.7152
7080.00,0.7168
7079.00,0.7189
7078.00,0.7214
7077.00,0.7246
7076.00,0.7282
7075.00,0.7321
7074.00,0.7364
7073.00,0.7411
7072.00,0.7462
7071.00,0.7515
7070.00,0.7572
7069.00,0.7634
7068.00,0.7698
7067.00,0.7763
7066.00,0.7830
7065.00,0.7900
7064.00,0.7975
7063.00,0.8052
7062.00,0.8132
7061.00,0.8213
7060.00,0.8295
7059.00,0.8377
7058.00,0.8460
7057.00,0.8542
7056.00,0.8625
7055.00,0.8706
7054.00,0.8789
7053.00,0.8876
7052.00,0.8968
7051.00,0.9058
7050.00,0.9143
7049.00,0.9223
7048.00,0.9303
7047.00,0.9386
7046.00,0.9471
7045.00,0.9555
7044.00,0.9638
7043.00,0.9721
7042.00,0.9807
7041.00,0.9893
7040.00,0.9972
7039.00,1.0045
7038.00,1.0114
7037.00,1.0185
7036.00,1.0256
7035.00,1.0326
7034.00,1.0394
7033.00,1.0463
7032.00,1.0532
7031.00,1.0600
7030.00,1.0664
7029.00,1.0726
7028.00,1.0786
7027.00,1.0842
7026.00,1.0894
7025.00,1.0945
7024.00,1.0998
7023.00,1.1050
7022.00,1.1095
7021.00,1.1132
7020.00,1.1165
7019.00,1.1198
7018.00,1.1231
7017.00,1.1258
7016.00,1.1280
7015.00,1.1302
7014.00,1.1326
7013.00,1.1349
7012.00,1.1364
7011.00,1.1369
7010.00,1.1371
7009.00,1.1375
7008.00,1.1381
7007.00,1.1384
7006.00,1.1384
7005.00,1.1379
7004.00,1.1369
7003.00,1.1354
7002.00,1.1332
7001.00,1.1307
7000.00,1.1282
6999.00,1.1257
6998.00,1.1229
6997.00,1.1194
6996.00,1.1151
6995.00,1.1104
6994.00,1.1055
6993.00,1.1005
6992.00,1.0952
6991.00,1.0894
6990.00,1.0834
6989.00,1.0774
6988.00,1.0713
6987.00,1.0648
6986.00,1.0574
6985.00,1.0493
6984.00,1.0411
6983.00,1.0332
6982.00,1.0257
6981.00,1.0182
6980.00,1.0102
6979.00,1.0018
6978.00,0.9933
6977.00,0.9850
6976.00,0.9767
6975.00,0.9681
6974.00,0.9591
6973.00,0.9500
6972.00,0.9408
6971.00,0.9316
6970.00,0.9223
6969.00,0.9128
6968.00,0.9030
6967.00,0.8933
6966.00,0.8841
6965.00,0.8752
6964.00,0.8664
6963.00,0.8577
6962.00,0.8490
6961.00,0.8407
6960.00,0.8327
6959.00,0.8250
6958.00,0.8175
6957.00,0.8105
6956.00,0.8037
6955.00,0.7974
6954.00,0.7914
6953.00,0.7859
6952.00,0.7807
6951.00,0.7759
6950.00,0.7715
6949.00,0.7678
6948.00,0.7646
6947.00,0.7617
6946.00,0.7592
6945.00,0.7571
6944.00,0.7557
6943.00,0.7548
6942.00,0.7542
6941.00,0.7543
6940.00,0.7550
6939.00,0.7563
6938.00,0.7580
6937.00,0.7599
6936.00,0.7621
6935.00,0.7648
6934.00,0.7681
6933.00,0.7719
6932.00,0.7762
6931.00,0.7808
6930.00,0.7861
6929.00,0.7918
6928.00,0.7977
6927.00,0.8039
6926.00,0.8104
6925.00,0.8173
6924.00,0.8246
6923.00,0.8320
6922.00,0.8396
6921.00,0.8474
6920.00,0.8553
6919.00,0.8630
6918.00,0.8708
6917.00,0.8788
6916.00,0.8870
6915.00,0.8951
6914.00,0.9033
6913.00,0.9117
6912.00,0.9203
6911.00,0.9290
6910.00,0.9375
6909.00,0.9462
6908.00,0.9550
6907.00,0.9638
6906.00,0.9725
6905.00,0.9811
6904.00,0.9894
6903.00,0.9973
6902.00,1.0051
6901.00,1.0130
6900.00,1.0208
6899.00,1.0284
6898.00,1.0359
6897.00,1.0434
6896.00,1.0507
6895.00,1.0575
6894.00,1.0640
6893.00,1.0703
6892.00,1.0767
6891.00,1.0831
6890.00,1.0892
6889.00,1.0950
6888.00,1.1005
6887.00,1.1060
6886.00,1.1111
6885.00,1.1158
6884.00,1.1202
6883.00,1.1244
6882.00,1.1285
6881.00,1.1325
6880.00,1.1359
6879.00,1.1387
6878.00,1.1407
6877.00,1.1423
6876.00,1.1439
6875.00,1.1456
6874.00,1.1475
6873.00,1.1495
6872.00,1.1511
6871.00,1.1523
6870.00,1.1530
6869.00,1.1532
6868.00,1.1525
6867.00,1.1512
6866.00,1.1495
6865.00,1.1477
6864.00,1.1459
6863.00,1.1438
6862.00,1.1414
6861.00,1.1387
6860.00,1.1358
6859.00,1.1326
6858.00,1.1289
6857.00,1.1245
6856.00,1.1193
6855.00,1.1137
6854.00,1.1078
6853.00,1.1019
6852.00,1.0957
6851.00,1.0893
6850.00,1.0830
6849.00,1.0771
6848.00,1.0710
6847.00,1.0642
6846.00,1.0565
6845.00,1.0485
6844.00,1.0405
6843.00,1.0324
6842.00,1.0240
6841.00,1.0155
6840.00,1.0069
6839.00,0.9985
6838.00,0.9899
6837.00,0.9807
6836.00,0.9710
6835.00,0.9611
6834.00,0.9514
6833.00,0.9420
6832.00,0.9325
6831.00,0.9229
6830.00,0.9134
6829.00,0.9043
6828.00,0.8953
6827.00,0.8862
6826.00,0.8771
6825.00,0.8683
6824.00,0.8598
6823.00,0.8516
6822.00,0.8436
6821.00,0.8358
6820.00,0.8282
6819.00,0.8207
6818.00,0.8133
6817.00,0.8061
6816.00,0.7990
6815.00,0.7921
6814.00,0.7858
6813.00,0.7801
6812.00,0.7749
6811.00,0.7701
6810.00,0.7658
6809.00,0.7620
6808.00,0.7587
6807.00,0.7559
6806.00,0.7533
6805.00,0.7510
6804.00,0.7492
6803.00,0.7480
6802.00,0.7473
6801.00,0.7470
6800.00,0.7471
6799.00,0.7474
6798.00,0.7482
6797.00,0.7498
6796.00,0.7520
6795.00,0.7547
6794.00,0.7578
6793.00,0.7613
6792.00,0.7653
6791.00,0.7696
6790.00,0.7743
6789.00,0.7792
6788.00,0.7846
6787.00,0.7903
6786.00,0.7963
6785.00,0.8029
6784.00,0.8099
6783.00,0.8173
6782.00,0.8249
6781.00,0.8328
6780.00,0.8407
6779.00,0.8488
6778.00,0.8570
6777.00,0.8652
6776.00,0.8736
6775.00,0.8820
6774.00,0.8905
6773.00,0.8991
6772.00,0.9079
6771.00,0.9168
6770.00,0.9259
6769.00,0.9350
6768.00,0.9441
6767.00,0.9532
6766.00,0.9622
6765.00,0.9713
6764.00,0.9802
6763.00,0.9888
6762.00,0.9972
6761.00,1.0055
6760.00,1.0140
6759.00,1.0225
6758.00,1.0313
6757.00,1.0403
6756.00,1.0490
6755.00,1.0572
6754.00,1.0649
6753.00,1.0722
6752.00,1.0790
6751.00,1.0855
6750.00,1.0919
6749.00,1.0987
6748.00,1.1059
6747.00,1.1130
6746.00,1.1196
6745.00,1.1258
6744.00,1.1316
6743.00,1.1369
6742.00,1.1417
6741.00,1.1462
6740.00,1.1507
6739.00,1.1554
6738.00,1.1601
6737.00,1.1647
6736.00,1.1691
6735.00,1.1727
6734.00,1.1755
6733.00,1.1779
6732.00,1.1800
6731.00,1.1814
6730.00,1.1822
6729.00,1.1827
6728.00,1.1836
6727.00,1.1848
6726.00,1.1856
6725.00,1.1859
6724.00,1.1856
6723.00,1.1849
6722.00,1.1835
6721.00,1.1816
6720.00,1.1796
6719.00,1.1778
6718.00,1.1759
6717.00,1.1736
6716.00,1.1708
6715.00,1.1673
6714.00,1.1632
6713.00,1.1584
6712.00,1.1533
6711.00,1.1479
6710.00,1.1424
6709.00,1.1367
6708.00,1.1310
6707.00,1.1251
6706.00,1.1191
6705.00,1.1127
6704.00,1.1058
6703.00,1.0984
6702.00,1.0908
6701.00,1.0834
6700.00,1.0758
6699.00,1.0677
6698.00,1.0592
6697.00,1.0503
6696.00,1.0413
6695.00,1.0320
6694.00,1.0223
6693.00,1.0123
6692.00,1.0023
6691.00,0.9924
6690.00,0.9827
6689.00,0.9731
6688.00,0.9635
6687.00,0.9538
6686.00,0.9441
6685.00,0.9343
6684.00,0.9245
6683.00,0.9146
6682.00,0.9047
6681.00,0.8950
6680.00,0.8855
6679.00,0.8762
6678.00,0.8672
6677.00,0.8585
6676.00,0.8501
6675.00,0.8420
6674.00,0.8341
6673.00,0.8266
6672.00,0.8196
6671.00,0.8129
6670.00,0.8065
6669.00,0.8005
6668.00,0.7950
6667.00,0.7900
6666.00,0.7856
6665.00,0.7818
6664.00,0.7785
6663.00,0.7757
6662.00,0.7735
6661.00,0.7716
6660.00,0.7701
6659.00,0.7692
6658.00,0.7688
6657.00,0.7689
6656.00,0.7697
6655.00,0.7713
6654.00,0.7735
6653.00,0.7764
6652.00,0.7796
6651.00,0.7831
6650.00,0.7871
6649.00,0.7913
6648.00,0.7957
6647.00,0.8005
6646.00,0.8059
6645.00,0.8117
6644.00,0.8179
6643.00,0.8245
6642.00,0.8315
6641.00,0.8391
6640.00,0.8469
6639.00,0.8549
6638.00,0.8631
6637.00,0.8714
6636.00,0.8799
6635.00,0.8886
6634.00,0.8973
6633.00,0.9059
6632.00,0.9146
6631.00,0.9235
6630.00,0.9325
6629.00,0.9416
6628.00,0.9505
6627.00,0.9591
6626.00,0.9676
6625.00,0.9762
6624.00,0.9848
6623.00,0.9936
6622.00,1.0025
6621.00,1.0114
6620.00,1.0202
6619.00,1.0288
6618.00,1.0374
6617.00,1.0457
6616.00,1.0537
6615.00,1.0616
6614.00,1.0695
6613.00,1.0775
6612.00,1.0854
6611.00,1.0928
6610.00,1.0998
6609.00,1.1062
6608.00,1.1124
6607.00,1.1183
6606.00,1.1240
6605.00,1.1294
6604.00,1.1343
6603.00,1.1389
6602.00,1.1436
6601.00,1.1483
6600.00,1.1527
6599.00,1.1568
6598.00,1.1610
6597.00,1.1651
6596.00,1.1686
6595.00,1.1715
6594.00,1.1738
6593.00,1.1758
6592.00,1.1775
6591.00,1.1786
6590.00,1.1794
6589.00,1.1801
6588.00,1.1809
6587.00,1.1815
6586.00,1.1817
6585.00,1.1816
6584.00,1.1811
6583.00,1.1801
6582.00,1.1786
6581.00,1.1764
6580.00,1.1738
6579.00,1.1708
6578.00,1.1677
6577.00,1.1644
6576.00,1.1609
6575.00,1.1572
6574.00,1.1533
6573.00,1.1490
6572.00,1.1441
6571.00,1.1386
6570.00,1.1329
6569.00,1.1271
6568.00,1.1211
6567.00,1.1148
6566.00,1.1080
6565.00,1.1008
6564.00,1.0932
6563.00,1.0852
6562.00,1.0769
6561.00,1.0683
6560.00,1.0595
6559.00,1.0508
6558.00,1.0420
6557.00,1.0333
6556.00,1.0243
6555.00,1.0150
6554.00,1.0053
6553.00,0.9956
6552.00,0.9857
6551.00,0.9757
6550.00,0.9657
6549.00,0.9559
6548.00,0.9461
6547.00,0.9366
6546.00,0.9272
6545.00,0.9180
6544.00,0.9086
6543.00,0.8990
6542.00,0.8893
6541.00,0.8797
6540.00,0.8704
6539.00,0.8613
6538.00,0.8523
6537.00,0.8436
6536.00,0.8353
6535.00,0.8273
6534.00,0.8195
6533.00,0.8118
6532.00,0.8044
6531.00,0.7974
6530.00,0.7910
6529.00,0.7851
6528.00,0.7796
6527.00,0.7744
6526.00,0.7697
6525.00,0.7656
6524.00,0.7619
6523.00,0.7586
6522.00,0.7557
6521.00,0.7534
6520.00,0.7515
6519.00,0.7500
6518.00,0.7491
6517.00,0.7487
6516.00,0.7490
6515.00,0.7499
6514.00,0.7514
6513.00,0.7534
6512.00,0.7559
6511.00,0.7590
6510.00,0.7625
6509.00,0.7664
6508.00,0.7709
6507.00,0.7757
6506.00,0.7809
6505.00,0.7865
6504.00,0.7925
6503.00,0.7990
6502.00,0.8060
6501.00,0.8135
6500.00,0.8214
6499.00,0.8295
6498.00,0.8376
6497.00,0.8459
6496.00,0.8543
6495.00,0.8628
6494.00,0.8715
6493.00,0.8803
6492.00,0.8893
6491.00,0.8985
6490.00,0.9080
6489.00,0.9175
6488.00,0.9268
6487.00,0.9360
6486.00,0.9453
6485.00,0.9546
6484.00,0.9639
6483.00,0.9731
6482.00,0.9823
6481.00,0.9918
6480.00,1.0013
6479.00,1.0108
6478.00,1.0202
6477.00,1.0292
6476.00,1.0380
6475.00,1.0466
6474.00,1.0553
6473.00,1.0640
6472.00,1.0725
6471.00,1.0808
6470.00,1.0888
6469.00,1.0967
6468.00,1.1043
6467.00,1.1113
6466.00,1.1179
6465.00,1.1243
6464.00,1.1306
6463.00,1.1369
6462.00,1.1430
6461.00,1.1492
6460.00,1.1552
6459.00,1.1608
6458.00,1.1658
6457.00,1.1702
6456.00,1.1743
6455.00,1.1782
6454.00,1.1819
6453.00,1.1855
6452.00,1.1889
6451.00,1.1922
6450.00,1.1953
6449.00,1.1977
6448.00,1.1992
6447.00,1.1999
6446.00,1.2000
6445.00,1.2001
6444.00,1.2004
6443.00,1.2010
6442.00,1.2020
6441.00,1.2029
6440.00,1.2032
6439.00,1.2028
6438.00,1.2014
6437.00,1.1989
6436.00,1.1956
6435.00,1.1919
6434.00,1.1881
6433.00,1.1846
6432.00,1.1810
6431.00,1.1773
6430.00,1.1734
6429.00,1.1692
6428.00,1.1647
6427.00,1.1596
6426.00,1.1538
6425.00,1.1474
6424.00,1.1404
6423.00,1.1331
6422.00,1.1257
6421.00,1.1182
6420.00,1.1105
6419.00,1.1025
6418.00,1.0944
6417.00,1.0861
6416.00,1.0773
6415.00,1.0682
6414.00,1.0587
6413.00,1.0490
6412.00,1.0391
6411.00,1.0292
6410.00,1.0192
6409.00,1.0091
6408.00,0.9988
6407.00,0.9883
6406.00,0.9777
6405.00,0.9670
6404.00,0.9562
6403.00,0.9452
6402.00,0.9342
6401.00,0.9233
6400.00,0.9126
6399.00,0.9020
6398.00,0.8916
6397.00,0.8813
6396.00,0.8710
6395.00,0.8610
6394.00,0.8515
6393.00,0.8424
6392.00,0.8337
6391.00,0.8252
6390.00,0.8172
6389.00,0.8097
6388.00,0.8025
6387.00,0.7956
6386.00,0.7890
6385.00,0.7830
6384.00,0.7775
6383.00,0.7725
6382.00,0.7681
6381.00,0.7642
6380.00,0.7610
6379.00,0.7582
6378.00,0.7560
6377.00,0.7543
6376.00,0.7531
6375.00,0.7525
6374.00,0.7526
6373.00,0.7534
6372.00,0.7549
6371.00,0.7570
6370.00,0.7596
6369.00,0.7629
6368.00,0.7667
6367.00,0.7708
6366.00,0.7753
6365.00,0.7803
6364.00,0.7858
6363.00,0.7917
6362.00,0.7981
6361.00,0.8049
6360.00,0.8119
6359.00,0.8193
6358.00,0.8269
6357.00,0.8349
6356.00,0.8430
6355.00,0.8513
6354.00,0.8598
6353.00,0.8687
6352.00,0.8779
6351.00,0.8870
6350.00,0.8961
6349.00,0.9054
6348.00,0.9148
6347.00,0.9242
6346.00,0.9335
6345.00,0.9428
6344.00,0.9524
6343.00,0.9621
6342.00,0.9718
6341.00,0.9814
6340.00,0.9908
6339.00,1.0001
6338.00,1.0093
6337.00,1.0185
6336.00,1.0273
6335.00,1.0360
6334.00,1.0448
6333.00,1.0538
6332.00,1.0628
6331.00,1.0715
6330.00,1.0797
6329.00,1.0877
6328.00,1.0955
6327.00,1.1030
6326.00,1.1104
6325.00,1.1177
6324.00,1.1248
6323.00,1.1315
6322.00,1.1376
6321.00,1.1431
6320.00,1.1484
6319.00,1.1533
6318.00,1.1579
6317.00,1.1625
6316.00,1.1672
6315.00,1.1719
6314.00,1.1762
6313.00,1.1798
6312.00,1.1827
6311.00,1.1852
6310.00,1.1873
6309.00,1.1891
6308.00,1.1906
6307.00,1.1919
6306.00,1.1930
6305.00,1.1937
6304.00,1.1941
6303.00,1.1940
6302.00,1.1936
6301.00,1.1929
6300.00,1.1917
6299.00,1.1900
6298.00,1.1880
6297.00,1.1857
6296.00,1.1830
6295.00,1.1799
6294.00,1.1765
6293.00,1.1730
6292.00,1.1694
6291.00,1.1655
6290.00,1.1613
6289.00,1.1565
6288.00,1.1508
6287.00,1.1444
6286.00,1.1375
6285.00,1.1306
6284.00,1.1236
6283.00,1.1166
6282.00,1.1094
6281.00,1.1020
6280.00,1.0944
6279.00,1.0865
6278.00,1.0782
6277.00,1.0696
6276.00,1.0609
6275.00,1.0518
6274.00,1.0425
6273.00,1.0328
6272.00,1.0227
6271.00,1.0123
6270.00,1.0020
6269.00,0.9916
6268.00,0.9811
6267.00,0.9704
6266.00,0.9598
6265.00,0.9494
6264.00,0.9390
6263.00,0.9283
6262.00,0.9176
6261.00,0.9070
6260.00,0.8967
6259.00,0.8865
6258.00,0.8763
6257.00,0.8662
6256.00,0.8562
6255.00,0.8464
6254.00,0.8366
6253.00,0.8269
6252.00,0.8176
6251.00,0.8087
6250.00,0.8004
6249.00,0.7924
6248.00,0.7847
6247.00,0.7773
6246.00,0.7703
6245.00,0.7638
6244.00,0.7577
6243.00,0.7522
6242.00,0.7473
6241.00,0.7429
6240.00,0.7389
6239.00,0.7353
6238.00,0.7321
6237.00,0.7295
6236.00,0.7278
6235.00,0.7267
6234.00,0.7265
6233.00,0.7269
6232.00,0.7278
6231.00,0.7292
6230.00,0.7311
6229.00,0.7335
6228.00,0.7363
6227.00,0.7397
6226.00,0.7437
6225.00,0.7484
6224.00,0.7536
6223.00,0.7593
6222.00,0.7655
6221.00,0.7721
6220.00,0.7790
6219.00,0.7862
6218.00,0.7937
6217.00,0.8014
6216.00,0.8094
6215.00,0.8177
6214.00,0.8264
6213.00,0.8354
6212.00,0.8447
6211.00,0.8541
6210.00,0.8638
6209.00,0.8736
6208.00,0.8833
6207.00,0.8931
6206.00,0.9030
6205.00,0.9129
6204.00,0.9228
6203.00,0.9326
6202.00,0.9426
6201.00,0.9528
6200.00,0.9629
6199.00,0.9729
6198.00,0.9829
6197.00,0.9928
6196.00,1.0025
6195.00,1.0120
6194.00,1.0212
6193.00,1.0304
6192.00,1.0396
6191.00,1.0488
6190.00,1.0578
6189.00,1.0665
6188.00,1.0749
6187.00,1.0832
6186.00,1.0914
6185.00,1.0994
6184.00,1.1070
6183.00,1.1142
6182.00,1.1214
6181.00,1.1284
6180.00,1.1352
6179.00,1.1414
6178.00,1.1473
6177.00,1.1530
6176.00,1.1586
6175.00,1.1638
6174.00,1.1686
6173.00,1.1734
6172.00,1.1781
6171.00,1.1825
6170.00,1.1863
6169.00,1.1895
6168.00,1.1918
6167.00,1.1936
6166.00,1.1950
6165.00,1.1962
6164.00,1.1974
6163.00,1.1986
6162.00,1.1997
6161.00,1.2008
6160.00,1.2016
6159.00,1.2018
6158.00,1.2016
6157.00,1.2011
6156.00,1.2002
6155.00,1.1987
6154.00,1.1966
6153.00,1.1941
6152.00,1.1912
6151.00,1.1880
6150.00,1.1845
6149.00,1.1806
6148.00,1.1761
6147.00,1.1711
6146.00,1.1657
6145.00,1.1601
6144.00,1.1541
6143.00,1.1478
6142.00,1.1412
6141.00,1.1345
6140.00,1.1275
6139.00,1.1202
6138.00,1.1125
6137.00,1.1046
6136.00,1.0964
6135.00,1.0879
6134.00,1.0792
6133.00,1.0702
6132.00,1.0607
6131.00,1.0508
6130.00,1.0406
6129.00,1.0303
6128.00,1.0198
6127.00,1.0090
6126.00,0.9979
6125.00,0.9867
6124.00,0.9754
6123.00,0.9639
6122.00,0.9523
6121.00,0.9405
6120.00,0.9289
6119.00,0.9173
6118.00,0.9058
6117.00,0.8944
6116.00,0.8831
6115.00,0.8718
6114.00,0.8606
6113.00,0.8497
6112.00,0.8390
6111.00,0.8286
6110.00,0.8185
6109.00,0.8089
6108.00,0.7996
6107.00,0.7907
6106.00,0.7821
6105.00,0.7740
6104.00,0.7663
6103.00,0.7591
6102.00,0.7524
6101.00,0.7463
6100.00,0.7407
6099.00,0.7357
6098.00,0.7314
6097.00,0.7277
6096.00,0.7247
6095.00,0.7222
6094.00,0.7204
6093.00,0.7192
6092.00,0.7187
6091.00,0.7189
6090.00,0.7198
6089.00,0.7215
6088.00,0.7238
6087.00,0.7267
6086.00,0.7301
6085.00,0.7340
6084.00,0.7384
6083.00,0.7434
6082.00,0.7490
6081.00,0.7551
6080.00,0.7617
6079.00,0.7686
6078.00,0.7759
6077.00,0.7836
6076.00,0.7915
6075.00,0.7997
6074.00,0.8082
6073.00,0.8169
6072.00,0.8259
6071.00,0.8352
6070.00,0.8447
6069.00,0.8545
6068.00,0.8644
6067.00,0.8744
6066.00,0.8844
6065.00,0.8944
6064.00,0.9044
6063.00,0.9144
6062.00,0.9246
6061.00,0.9349
6060.00,0.9451
6059.00,0.9552
6058.00,0.9652
6057.00,0.9752
6056.00,0.9850
6055.00,0.9947
6054.00,1.0046
6053.00,1.0144
6052.00,1.0240
6051.00,1.0333
6050.00,1.0424
6049.00,1.0515
6048.00,1.0603
6047.00,1.0687
6046.00,1.0768
6045.00,1.0849
6044.00,1.0930
6043.00,1.1008
6042.00,1.1082
6041.00,1.1152
6040.00,1.1218
6039.00,1.1281
6038.00,1.1340
6037.00,1.1399
6036.00,1.1458
6035.00,1.1514
6034.00,1.1567
6033.00,1.1616
6032.00,1.1662
6031.00,1.1704
6030.00,1.1743
6029.00,1.1778
6028.00,1.1809
6027.00,1.1836
6026.00,1.1859
6025.00,1.1879
6024.00,1.1896
6023.00,1.1912
6022.00,1.1926
6021.00,1.1938
6020.00,1.1945
6019.00,1.1947
6018.00,1.1946
6017.00,1.1943
6016.00,1.1936
6015.00,1.1921
6014.00,1.1899
6013.00,1.1871
6012.00,1.1839
6011.00,1.1805
6010.00,1.1770
6009.00,1.1738
6008.00,1.1707
6007.00,1.1673
6006.00,1.1635
6005.00,1.1594
6004.00,1.1546
6003.00,1.1491
6002.00,1.1429
6001.00,1.1364
6000.00,1.1295
5999.00,1.1223
5998.00,1.1147
5997.00,1.1069
5996.00,1.0987
5995.00,1.0902
5994.00,1.0814
5993.00,1.0724
5992.00,1.0630
5991.00,1.0532
5990.00,1.0431
5989.00,1.0328
5988.00,1.0224
5987.00,1.0116
5986.00,1.0005
5985.00,0.9892
5984.00,0.9779
5983.00,0.9663
5982.00,0.9545
5981.00,0.9428
5980.00,0.9313
5979.00,0.9197
5978.00,0.9080
5977.00,0.8962
5976.00,0.8845
5975.00,0.8729
5974.00,0.8616
5973.00,0.8506
5972.00,0.8399
5971.00,0.8293
5970.00,0.8192
5969.00,0.8093
5968.00,0.7999
5967.00,0.7907
5966.00,0.7820
5965.00,0.7738
5964.00,0.7662
5963.00,0.7592
5962.00,0.7528
5961.00,0.7471
5960.00,0.7421
5959.00,0.7377
5958.00,0.7340
5957.00,0.7309
5956.00,0.7282
5955.00,0.7260
5954.00,0.7244
5953.00,0.7231
5952.00,0.7222
5951.00,0.7214
5950.00,0.7208
5949.00,0.7207
5948.00,0.7210
5947.00,0.7219
5946.00,0.7232
5945.00,0.7251
5944.00,0.7276
5943.00,0.7307
5942.00,0.7345
5941.00,0.7388
5940.00,0.7438
5939.00,0.7493
5938.00,0.7554
5937.00,0.7620
5936.00,0.7691
5935.00,0.7766
5934.00,0.7846
5933.00,0.7931
5932.00,0.8020
5931.00,0.8114
5930.00,0.8210
5929.00,0.8308
5928.00,0.8408
5927.00,0.8508
5926.00,0.8608
5925.00,0.8709
5924.00,0.8810
5923.00,0.8913
5922.00,0.9019
5921.00,0.9126
5920.00,0.9235
5919.00,0.9343
5918.00,0.9452
5917.00,0.9562
5916.00,0.9670
5915.00,0.9776
5914.00,0.9880
5913.00,0.9982
5912.00,1.0084
5911.00,1.0183
5910.00,1.0282
5909.00,1.0382
5908.00,1.0481
5907.00,1.0577
5906.00,1.0672
5905.00,1.0764
5904.00,1.0853
5903.00,1.0938
5902.00,1.1019
5901.00,1.1098
5900.00,1.1174
5899.00,1.1249
5898.00,1.1321
5897.00,1.1392
5896.00,1.1461
5895.00,1.1527
5894.00,1.1590
5893.00,1.1651
5892.00,1.1706
5891.00,1.1755
5890.00,1.1801
5889.00,1.1842
5888.00,1.1879
5887.00,1.1912
5886.00,1.1944
5885.00,1.1976
5884.00,1.2005
5883.00,1.2030
5882.00,1.2050
5881.00,1.2064
5880.00,1.2074
5879.00,1.2080
5878.00,1.2082
5877.00,1.2082
5876.00,1.2082
5875.00,1.2080
5874.00,1.2074
5873.00,1.2063
5872.00,1.2047
5871.00,1.2024
5870.00,1.1997
5869.00,1.1966
5868.00,1.1930
5867.00,1.1892
5866.00,1.1851
5865.00,1.1807
5864.00,1.1758
5863.00,1.1704
5862.00,1.1647
5861.00,1.1588
5860.00,1.1527
5859.00,1.1462
5858.00,1.1393
5857.00,1.1323
5856.00,1.1251
5855.00,1.1174
5854.00,1.1091
5853.00,1.1004
5852.00,1.0915
5851.00,1.0826
5850.00,1.0733
5849.00,1.0636
5848.00,1.0536
5847.00,1.0434
5846.00,1.0330
5845.00,1.0223
5844.00,1.0111
5843.00,0.9998
5842.00,0.9885
5841.00,0.9772
5840.00,0.9659
5839.00,0.9544
5838.00,0.9429
5837.00,0.9315
5836.00,0.9200
5835.00,0.9085
5834.00,0.8969
5833.00,0.8855
5832.00,0.8744
5831.00,0.8633
5830.00,0.8523
5829.00,0.8413
5828.00,0.8305
5827.00,0.8197
5826.00,0.8092
5825.00,0.7991
5824.00,0.7893
5823.00,0.7799
5822.00,0.7709
5821.00,0.7625
5820.00,0.7545
5819.00,0.7469
5818.00,0.7400
5817.00,0.7337
5816.00,0.7280
5815.00,0.7229
5814.00,0.7185
5813.00,0.7149
5812.00,0.7119
5811.00,0.7095
5810.00,0.7078
5809.00,0.7068
5808.00,0.7065
5807.00,0.7069
5806.00,0.7080
5805.00,0.7099
5804.00,0.7125
5803.00,0.7157
5802.00,0.7194
5801.00,0.7237
5800.00,0.7286
5799.00,0.7340
5798.00,0.7399
5797.00,0.7464
5796.00,0.7533
5795.00,0.7608
5794.00,0.7688
5793.00,0.7772
5792.00,0.7859
5791.00,0.7947
5790.00,0.8038
5789.00,0.8131
5788.00,0.8225
5787.00,0.8322
5786.00,0.8422
5785.00,0.8525
5784.00,0.8630
5783.00,0.8737
5782.00,0.8844
5781.00,0.8953
5780.00,0.9063
5779.00,0.9172
5778.00,0.9283
5777.00,0.9395
5776.00,0.9507
5775.00,0.9617
5774.00,0.9724
5773.00,0.9830
5772.00,0.9935
5771.00,1.0040
5770.00,1.0143
5769.00,1.0245
5768.00,1.0347
5767.00,1.0448
5766.00,1.0548
5765.00,1.0646
5764.00,1.0743
5763.00,1.0838
5762.00,1.0929
5761.00,1.1014
5760.00,1.1095
5759.00,1.1175
5758.00,1.1253
5757.00,1.1330
5756.00,1.1404
5755.00,1.1474
5754.00,1.1540
5753.00,1.1603
5752.00,1.1664
5751.00,1.1724
5750.00,1.1783
5749.00,1.1838
5748.00,1.1889
5747.00,1.1934
5746.00,1.1974
5745.00,1.2011
5744.00,1.2044
5743.00,1.2073
5742.00,1.2098
5741.00,1.2120
5740.00,1.2140
5739.00,1.2157
5738.00,1.2171
5737.00,1.2182
5736.00,1.2191
5735.00,1.2196
5734.00,1.2194
5733.00,1.2186
5732.00,1.2173
5731.00,1.2156
5730.00,1.2136
5729.00,1.2112
5728.00,1.2084
5727.00,1.2054
5726.00,1.2019
5725.00,1.1981
5724.00,1.1939
5723.00,1.1892
5722.00,1.1842
5721.00,1.1791
5720.00,1.1737
5719.00,1.1679
5718.00,1.1616
5717.00,1.1550
5716.00,1.1479
5715.00,1.1404
5714.00,1.1325
5713.00,1.1242
5712.00,1.1155
5711.00,1.1064
5710.00,1.0970
5709.00,1.0872
5708.00,1.0771
5707.00,1.0667
5706.00,1.0562
5705.00,1.0453
5704.00,1.0341
5703.00,1.0224
5702.00,1.0105
5701.00,0.9984
5700.00,0.9863
5699.00,0.9740
5698.00,0.9615
5697.00,0.9488
5696.00,0.9357
5695.00,0.9225
5694.00,0.9092
5693.00,0.8960
5692.00,0.8830
5691.00,0.8701
5690.00,0.8574
5689.00,0.8449
5688.00,0.8326
5687.00,0.8205
5686.00,0.8087
5685.00,0.7972
5684.00,0.7860
5683.00,0.7751
5682.00,0.7646
5681.00,0.7545
5680.00,0.7451
5679.00,0.7361
5678.00,0.7278
5677.00,0.7200
5676.00,0.7128
5675.00,0.7061
5674.00,0.7002
5673.00,0.6950
5672.00,0.6906
5671.00,0.6870
5670.00,0.6840
5669.00,0.6818
5668.00,0.6804
5667.00,0.6798
5666.00,0.6799
5665.00,0.6808
5664.00,0.6824
5663.00,0.6845
5662.00,0.6873
5661.00,0.6908
5660.00,0.6950
5659.00,0.6999
5658.00,0.7056
5657.00,0.7120
5656.00,0.7189
5655.00,0.7262
5654.00,0.7339
5653.00,0.7421
5652.00,0.7508
5651.00,0.7600
5650.00,0.7695
5649.00,0.7795
5648.00,0.7897
5647.00,0.8002
5646.00,0.8110
5645.00,0.8220
5644.00,0.8331
5643.00,0.8444
5642.00,0.8558
5641.00,0.8674
5640.00,0.8789
5639.00,0.8905
5638.00,0.9022
5637.00,0.9140
5636.00,0.9258
5635.00,0.9374
5634.00,0.9489
5633.00,0.9604
5632.00,0.9718
5631.00,0.9832
5630.00,0.9945
5629.00,1.0057
5628.00,1.0169
5627.00,1.0278
5626.00,1.0386
5625.00,1.0490
5624.00,1.0593
5623.00,1.0694
5622.00,1.0795
5621.00,1.0894
5620.00,1.0991
5619.00,1.1085
5618.00,1.1176
5617.00,1.1263
5616.00,1.1344
5615.00,1.1420
5614.00,1.1494
5613.00,1.1567
5612.00,1.1639
5611.00,1.1708
5610.00,1.1774
5609.00,1.1836
5608.00,1.1893
5607.00,1.1945
5606.00,1.1993
5605.00,1.2039
5604.00,1.2083
5603.00,1.2124
5602.00,1.2162
5601.00,1.2197
5600.00,1.2228
5599.00,1.2257
5598.00,1.2281
5597.00,1.2300
5596.00,1.2313
5595.00,1.2321
5594.00,1.2324
5593.00,1.2323
5592.00,1.2318
5591.00,1.2310
5590.00,1.2299
5589.00,1.2285
5588.00,1.2267
5587.00,1.2245
5586.00,1.2220
5585.00,1.2193
5584.00,1.2161
5583.00,1.2125
5582.00,1.2083
5581.00,1.2037
5580.00,1.1987
5579.00,1.1935
5578.00,1.1880
5577.00,1.1822
5576.00,1.1760
5575.00,1.1694
5574.00,1.1623
5573.00,1.1546
5572.00,1.1464
5571.00,1.1377
5570.00,1.1287
5569.00,1.1195
5568.00,1.1099
5567.00,1.1000
5566.00,1.0899
5565.00,1.0794
5564.00,1.0686
5563.00,1.0572
5562.00,1.0454
5561.00,1.0332
5560.00,1.0207
5559.00,1.0079
5558.00,0.9950
5557.00,0.9821
5556.00,0.9690
5555.00,0.9560
5554.00,0.9429
5553.00,0.9297
5552.00,0.9163
5551.00,0.9029
5550.00,0.8895
5549.00,0.8761
5548.00,0.8629
5547.00,0.8497
5546.00,0.8368
5545.00,0.8242
5544.00,0.8119
5543.00,0.7998
5542.00,0.7882
5541.00,0.7770
5540.00,0.7665
5539.00,0.7564
5538.00,0.7468
5537.00,0.7377
5536.00,0.7292
5535.00,0.7214
5534.00,0.7142
5533.00,0.7078
5532.00,0.7022
5531.00,0.6974
5530.00,0.6934
5529.00,0.6902
5528.00,0.6876
5527.00,0.6858
5526.00,0.6849
5525.00,0.6848
5524.00,0.6855
5523.00,0.6872
5522.00,0.6896
5521.00,0.6928
5520.00,0.6968
5519.00,0.7014
5518.00,0.7067
5517.00,0.7128
5516.00,0.7195
5515.00,0.7268
5514.00,0.7347
5513.00,0.7431
5512.00,0.7521
5511.00,0.7615
5510.00,0.7713
5509.00,0.7815
5508.00,0.7921
5507.00,0.8029
5506.00,0.8140
5505.00,0.8253
5504.00,0.8367
5503.00,0.8482
5502.00,0.8600
5501.00,0.8719
5500.00,0.8840
5499.00,0.8963
5498.00,0.9086
5497.00,0.9210
5496.00,0.9332
5495.00,0.9453
5494.00,0.9575
5493.00,0.9697
5492.00,0.9820
5491.00,0.9941
5490.00,1.0062
5489.00,1.0180
5488.00,1.0296
5487.00,1.0409
5486.00,1.0521
5485.00,1.0632
5484.00,1.0741
5483.00,1.0848
5482.00,1.0953
5481.00,1.1056
5480.00,1.1155
5479.00,1.1252
5478.00,1.1345
5477.00,1.1436
5476.00,1.1524
5475.00,1.1608
5474.00,1.1689
5473.00,1.1768
5472.00,1.1844
5471.00,1.1917
5470.00,1.1988
5469.00,1.2056
5468.00,1.2120
5467.00,1.2178
5466.00,1.2230
5465.00,1.2278
5464.00,1.2320
5463.00,1.2358
5462.00,1.2393
5461.00,1.2426
5460.00,1.2459
5459.00,1.2488
5458.00,1.2513
5457.00,1.2532
5456.00,1.2546
5455.00,1.2557
5454.00,1.2566
5453.00,1.2574
5452.00,1.2578
5451.00,1.2578
5450.00,1.2574
5449.00,1.2563
5448.00,1.2545
5447.00,1.2522
5446.00,1.2497
5445.00,1.2471
5444.00,1.2441
5443.00,1.2405
5442.00,1.2365
5441.00,1.2321
5440.00,1.2272
5439.00,1.2216
5438.00,1.2156
5437.00,1.2092
5436.00,1.2026
5435.00,1.1955
5434.00,1.1882
5433.00,1.1808
5432.00,1.1734
5431.00,1.1656
5430.00,1.1572
5429.00,1.1481
5428.00,1.1386
5427.00,1.1287
5426.00,1.1185
5425.00,1.1080
5424.00,1.0970
5423.00,1.0856
5422.00,1.0737
5421.00,1.0613
5420.00,1.0486
5419.00,1.0355
5418.00,1.0225
5417.00,1.0093
5416.00,0.9958
5415.00,0.9819
5414.00,0.9677
5413.00,0.9534
5412.00,0.9390
5411.00,0.9247
5410.00,0.9104
5409.00,0.8962
5408.00,0.8820
5407.00,0.8679
5406.00,0.8540
5405.00,0.8403
5404.00,0.8269
5403.00,0.8139
5402.00,0.8012
5401.00,0.7890
5400.00,0.7770
5399.00,0.7654
5398.00,0.7542
5397.00,0.7438
5396.00,0.7339
5395.00,0.7248
5394.00,0.7162
5393.00,0.7085
5392.00,0.7016
5391.00,0.6956
5390.00,0.6904
5389.00,0.6862
5388.00,0.6828
5387.00,0.6802
5386.00,0.6785
5385.00,0.6775
5384.00,0.6774
5383.00,0.6780
5382.00,0.6794
5381.00,0.6818
5380.00,0.6850
5379.00,0.6890
5378.00,0.6938
5377.00,0.6995
5376.00,0.7059
5375.00,0.7129
5374.00,0.7206
5373.00,0.7289
5372.00,0.7378
5371.00,0.7471
5370.00,0.7570
5369.00,0.7672
5368.00,0.7778
5367.00,0.7888
5366.00,0.8001
5365.00,0.8117
5364.00,0.8237
5363.00,0.8358
5362.00,0.8481
5361.00,0.8605
5360.00,0.8729
5359.00,0.8854
5358.00,0.8982
5357.00,0.9110
5356.00,0.9239
5355.00,0.9366
5354.00,0.9495
5353.00,0.9624
5352.00,0.9752
5351.00,0.9879
5350.00,1.0006
5349.00,1.0132
5348.00,1.0256
5347.00,1.0376
5346.00,1.0494
5345.00,1.0611
5344.00,1.0727
5343.00,1.0842
5342.00,1.0956
5341.00,1.1067
5340.00,1.1175
5339.00,1.1281
5338.00,1.1387
5337.00,1.1494
5336.00,1.1598
5335.00,1.1698
5334.00,1.1791
5333.00,1.1879
5332.00,1.1962
5331.00,1.2043
5330.00,1.2121
5329.00,1.2197
5328.00,1.2270
5327.00,1.2339
5326.00,1.2404
5325.00,1.2465
5324.00,1.2523
5323.00,1.2577
5322.00,1.2627
5321.00,1.2674
5320.00,1.2716
5319.00,1.2754
5318.00,1.2787
5317.00,1.2816
5316.00,1.2840
5315.00,1.2859
5314.00,1.2872
5313.00,1.2880
5312.00,1.2883
5311.00,1.2884
5310.00,1.2884
5309.00,1.2883
5308.00,1.2879
5307.00,1.2871
5306.00,1.2860
5305.00,1.2844
5304.00,1.2821
5303.00,1.2792
5302.00,1.2757
5301.00,1.2719
5300.00,1.2678
5299.00,1.2636
5298.00,1.2590
5297.00,1.2539
5296.00,1.2483
5295.00,1.2424
5294.00,1.2361
5293.00,1.2294
5292.00,1.2223
5291.00,1.2147
5290.00,1.2065
5289.00,1.1979
5288.00,1.1890
5287.00,1.1797
5286.00,1.1702
5285.00,1.1602
5284.00,1.1498
5283.00,1.1389
5282.00,1.1277
5281.00,1.1160
5280.00,1.1040
5279.00,1.0916
5278.00,1.0789
5277.00,1.0660
5276.00,1.0530
5275.00,1.0396
5274.00,1.0261
5273.00,1.0122
5272.00,0.9981
5271.00,0.9837
5270.00,0.9690
5269.00,0.9542
5268.00,0.9396
5267.00,0.9252
5266.00,0.9111
5265.00,0.8970
5264.00,0.8829
5263.00,0.8689
5262.00,0.8551
5261.00,0.8416
5260.00,0.8285
5259.00,0.8161
5258.00,0.8043
5257.00,0.7930
5256.00,0.7822
5255.00,0.7717
5254.00,0.7617
5253.00,0.7523
5252.00,0.7438
5251.00,0.7361
5250.00,0.7292
5249.00,0.7231
5248.00,0.7178
5247.00,0.7132
5246.00,0.7093
5245.00,0.7063
5244.00,0.7042
5243.00,0.7029
5242.00,0.7025
5241.00,0.7031
5240.00,0.7047
5239.00,0.7072
5238.00,0.7105
5237.00,0.7148
5236.00,0.7198
5235.00,0.7255
5234.00,0.7319
5233.00,0.7389
5232.00,0.7466
5231.00,0.7550
5230.00,0.7641
5229.00,0.7737
5228.00,0.7839
5227.00,0.7945
5226.00,0.8056
5225.00,0.8171
5224.00,0.8291
5223.00,0.8413
5222.00,0.8538
5221.00,0.8664
5220.00,0.8791
5219.00,0.8921
5218.00,0.9052
5217.00,0.9185
5216.00,0.9320
5215.00,0.9455
5214.00,0.9590
5213.00,0.9724
5212.00,0.9857
5211.00,0.9988
5210.00,1.0119
5209.00,1.0249
5208.00,1.0378
5207.00,1.0508
5206.00,1.0639
5205.00,1.0770
5204.00,1.0899
5203.00,1.1026
5202.00,1.1149
5201.00,1.1268
5200.00,1.1383
5199.00,1.1495
5198.00,1.1605
5197.00,1.1713
5196.00,1.1816
5195.00,1.1915
5194.00,1.2010
5193.00,1.2101
5192.00,1.2189
5191.00,1.2275
5190.00,1.2360
5189.00,1.2439
5188.00,1.2513
5187.00,1.2581
5186.00,1.2644
5185.00,1.2706
5184.00,1.2765
5183.00,1.2822
5182.00,1.2874
5181.00,1.2922
5180.00,1.2963
5179.00,1.3000
5178.00,1.3036
5177.00,1.3069
5176.00,1.3101
5175.00,1.3129
5174.00,1.3153
5173.00,1.3172
5172.00,1.3184
5171.00,1.3190
5170.00,1.3191
5169.00,1.3190
5168.00,1.3186
5167.00,1.3182
5166.00,1.3175
5165.00,1.3163
5164.00,1.3147
5163.00,1.3125
5162.00,1.3097
5161.00,1.3064
5160.00,1.3026
5159.00,1.2985
5158.00,1.2940
5157.00,1.2892
5156.00,1.2840
5155.00,1.2783
5154.00,1.2721
5153.00,1.2654
5152.00,1.2582
5151.00,1.2506
5150.00,1.2426
5149.00,1.2344
5148.00,1.2257
5147.00,1.2166
5146.00,1.2072
5145.00,1.1973
5144.00,1.1871
5143.00,1.1763
5142.00,1.1651
5141.00,1.1534
5140.00,1.1412
5139.00,1.1285
5138.00,1.1155
5137.00,1.1021
5136.00,1.0884
5135.00,1.0744
5134.00,1.0600
5133.00,1.0454
5132.00,1.0305
5131.00,1.0154
5130.00,1.0001
5129.00,0.9847
5128.00,0.9692
5127.00,0.9535
5126.00,0.9378
5125.00,0.9221
5124.00,0.9064
5123.00,0.8909
5122.00,0.8754
5121.00,0.8602
5120.00,0.8454
5119.00,0.8309
5118.00,0.8170
5117.00,0.8037
5116.00,0.7908
5115.00,0.7785
5114.00,0.7668
5113.00,0.7558
5112.00,0.7455
5111.00,0.7360
5110.00,0.7273
5109.00,0.7194
5108.00,0.7124
5107.00,0.7063
5106.00,0.7012
5105.00,0.6971
5104.00,0.6939
5103.00,0.6916
5102.00,0.6904
5101.00,0.6901
5100.00,0.6908
5099.00,0.6925
5098.00,0.6952
5097.00,0.6988
5096.00,0.7033
5095.00,0.7086
5094.00,0.7148
5093.00,0.7219
5092.00,0.7297
5091.00,0.7383
5090.00,0.7476
5089.00,0.7575
5088.00,0.7681
5087.00,0.7792
5086.00,0.7909
5085.00,0.8029
5084.00,0.8154
5083.00,0.8281
5082.00,0.8411
5081.00,0.8543
5080.00,0.8677
5079.00,0.8814
5078.00,0.8952
5077.00,0.9092
5076.00,0.9233
5075.00,0.9376
5074.00,0.9519
5073.00,0.9663
5072.00,0.9807
5071.00,0.9950
5070.00,1.0092
5069.00,1.0234
5068.00,1.0374
5067.00,1.0514
5066.00,1.0651
5065.00,1.0787
5064.00,1.0921
5063.00,1.1053
5062.00,1.1183
5061.00,1.1310
5060.00,1.1435
5059.00,1.1556
5058.00,1.1673
5057.00,1.1787
5056.00,1.1899
5055.00,1.2007
5054.00,1.2114
5053.00,1.2217
5052.00,1.2317
5051.00,1.2414
5050.00,1.2509
5049.00,1.2600
5048.00,1.2688
5047.00,1.2773
5046.00,1.2853
5045.00,1.2929
5044.00,1.2999
5043.00,1.3064
5042.00,1.3124
5041.00,1.3181
5040.00,1.3234
5039.00,1.3283
5038.00,1.3327
5037.00,1.3367
5036.00,1.3402
5035.00,1.3433
5034.00,1.3460
5033.00,1.3486
5032.00,1.3508
5031.00,1.3526
5030.00,1.3541
5029.00,1.3551
5028.00,1.3556
5027.00,1.3556
5026.00,1.3552
5025.00,1.3545
5024.00,1.3532
5023.00,1.3515
5022.00,1.3493
5021.00,1.3469
5020.00,1.3441
5019.00,1.3411
5018.00,1.3377
5017.00,1.3338
5016.00,1.3293
5015.00,1.3242
5014.00,1.3187
5013.00,1.3129
5012.00,1.3067
5011.00,1.3001
5010.00,1.2931
5009.00,1.2857
5008.00,1.2778
5007.00,1.2694
5006.00,1.2605
5005.00,1.2511
5004.00,1.2413
5003.00,1.2310
5002.00,1.2204
5001.00,1.2094
5000.00,1.1981
4999.00,1.1863
4998.00,1.1741
4997.00,1.1615
4996.00,1.1485
4995.00,1.1349
4994.00,1.1208
4993.00,1.1062
4992.00,1.0913
4991.00,1.0760
4990.00,1.0605
4989.00,1.0449
4988.00,1.0289
4987.00,1.0128
4986.00,0.9965
4985.00,0.9801
4984.00,0.9635
4983.00,0.9470
4982.00,0.9305
4981.00,0.9142
4980.00,0.8981
4979.00,0.8822
4978.00,0.8667
4977.00,0.8515
4976.00,0.8366
4975.00,0.8223
4974.00,0.8085
4973.00,0.7954
4972.00,0.7830
4971.00,0.7712
4970.00,0.7601
4969.00,0.7499
4968.00,0.7405
4967.00,0.7321
4966.00,0.7247
4965.00,0.7183
4964.00,0.7129
4963.00,0.7085
4962.00,0.7053
4961.00,0.7032
4960.00,0.7022
4959.00,0.7023
4958.00,0.7036
4957.00,0.7058
4956.00,0.7092
4955.00,0.7135
4954.00,0.7188
4953.00,0.7251
4952.00,0.7322
4951.00,0.7401
4950.00,0.7489
4949.00,0.7584
4948.00,0.7686
4947.00,0.7795
4946.00,0.7909
4945.00,0.8029
4944.00,0.8154
4943.00,0.8283
4942.00,0.8415
4941.00,0.8551
4940.00,0.8689
4939.00,0.8830
4938.00,0.8974
4937.00,0.9120
4936.00,0.9268
4935.00,0.9417
4934.00,0.9565
4933.00,0.9713
4932.00,0.9861
4931.00,1.0009
4930.00,1.0157
4929.00,1.0305
4928.00,1.0452
4927.00,1.0599
4926.00,1.0744
4925.00,1.0888
4924.00,1.1031
4923.00,1.1172
4922.00,1.1311
4921.00,1.1446
4920.00,1.1577
4919.00,1.1704
4918.00,1.1830
4917.00,1.1952
4916.00,1.2073
4915.00,1.2191
4914.00,1.2307
4913.00,1.2420
4912.00,1.2528
4911.00,1.2631
4910.00,1.2731
4909.00,1.2826
4908.00,1.2919
4907.00,1.3008
4906.00,1.3093
4905.00,1.3173
4904.00,1.3249
4903.00,1.3319
4902.00,1.3386
4901.00,1.3449
4900.00,1.3509
4899.00,1.3566
4898.00,1.3618
4897.00,1.3665
4896.00,1.3708
4895.00,1.3746
4894.00,1.3780
4893.00,1.3810
4892.00,1.3835
4891.00,1.3855
4890.00,1.3871
4889.00,1.3882
4888.00,1.3888
4887.00,1.3890
4886.00,1.3890
4885.00,1.3887
4884.00,1.3881
4883.00,1.3870
4882.00,1.3856
4881.00,1.3836
4880.00,1.3811
4879.00,1.3780
4878.00,1.3744
4877.00,1.3704
4876.00,1.3662
4875.00,1.3615
4874.00,1.3564
4873.00,1.3509
4872.00,1.3448
4871.00,1.3382
4870.00,1.3312
4869.00,1.3239
4868.00,1.3162
4867.00,1.3080
4866.00,1.2993
4865.00,1.2901
4864.00,1.2804
4863.00,1.2702
4862.00,1.2593
4861.00,1.2479
4860.00,1.2360
4859.00,1.2238
4858.00,1.2112
4857.00,1.1982
4856.00,1.1848
4855.00,1.1710
4854.00,1.1568
4853.00,1.1422
4852.00,1.1272
4851.00,1.1118
4850.00,1.0960
4849.00,1.0800
4848.00,1.0636
4847.00,1.0471
4846.00,1.0304
4845.00,1.0135
4844.00,0.9964
4843.00,0.9793
4842.00,0.9621
4841.00,0.9450
4840.00,0.9280
4839.00,0.9110
4838.00,0.8943
4837.00,0.8779
4836.00,0.8619
4835.00,0.8463
4834.00,0.8312
4833.00,0.8168
4832.00,0.8029
4831.00,0.7897
4830.00,0.7772
4829.00,0.7655
4828.00,0.7546
4827.00,0.7447
4826.00,0.7358
4825.00,0.7278
4824.00,0.7209
4823.00,0.7150
4822.00,0.7102
4821.00,0.7066
4820.00,0.7041
4819.00,0.7029
4818.00,0.7029
4817.00,0.7041
4816.00,0.7064
4815.00,0.7097
4814.00,0.7142
4813.00,0.7196
4812.00,0.7261
4811.00,0.7336
4810.00,0.7421
4809.00,0.7515
4808.00,0.7616
4807.00,0.7725
4806.00,0.7840
4805.00,0.7962
4804.00,0.8090
4803.00,0.8224
4802.00,0.8361
4801.00,0.8503
4800.00,0.8646
4799.00,0.8793
4798.00,0.8943
4797.00,0.9096
4796.00,0.9251
4795.00,0.9408
4794.00,0.9566
4793.00,0.9726
4792.00,0.9887
4791.00,1.0047
4790.00,1.0205
4789.00,1.0361
4788.00,1.0515
4787.00,1.0667
4786.00,1.0819
4785.00,1.0972
4784.00,1.1124
4783.00,1.1276
4782.00,1.1424
4781.00,1.1570
4780.00,1.1712
4779.00,1.1850
4778.00,1.1986
4777.00,1.2119
4776.00,1.2250
4775.00,1.2377
4774.00,1.2500
4773.00,1.2620
4772.00,1.2737
4771.00,1.2851
4770.00,1.2961
4769.00,1.3066
4768.00,1.3167
4767.00,1.3264
4766.00,1.3357
4765.00,1.3447
4764.00,1.3530
4763.00,1.3608
4762.00,1.3681
4761.00,1.3751
4760.00,1.3818
4759.00,1.3882
4758.00,1.3942
4757.00,1.3998
4756.00,1.4049
4755.00,1.4097
4754.00,1.4140
4753.00,1.4177
4752.00,1.4208
4751.00,1.4234
4750.00,1.4255
4749.00,1.4275
4748.00,1.4292
4747.00,1.4305
4746.00,1.4312
4745.00,1.4312
4744.00,1.4307
4743.00,1.4299
4742.00,1.4287
4741.00,1.4274
4740.00,1.4258
4739.00,1.4238
4738.00,1.4213
4737.00,1.4181
4736.00,1.4143
4735.00,1.4100
4734.00,1.4053
4733.00,1.4005
4732.00,1.3953
4731.00,1.3898
4730.00,1.3837
4729.00,1.3772
4728.00,1.3702
4727.00,1.3628
4726.00,1.3551
4725.00,1.3468
4724.00,1.3379
4723.00,1.3282
4722.00,1.3179
4721.00,1.3071
4720.00,1.2958
4719.00,1.2842
4718.00,1.2721
4717.00,1.2598
4716.00,1.2470
4715.00,1.2338
4714.00,1.2200
4713.00,1.2058
4712.00,1.1909
4711.00,1.1754
4710.00,1.1594
4709.00,1.1430
4708.00,1.1262
4707.00,1.1093
4706.00,1.0921
4705.00,1.0746
4704.00,1.0569
4703.00,1.0389
4702.00,1.0207
4701.00,1.0024
4700.00,0.9841
4699.00,0.9658
4698.00,0.9475
4697.00,0.9295
4696.00,0.9116
4695.00,0.8941
4694.00,0.8769
4693.00,0.8602
4692.00,0.8440
4691.00,0.8285
4690.00,0.8137
4689.00,0.7998
4688.00,0.7867
4687.00,0.7747
4686.00,0.7636
4685.00,0.7536
4684.00,0.7447
4683.00,0.7368
4682.00,0.7300
4681.00,0.7246
4680.00,0.7203
4679.00,0.7174
4678.00,0.7157
4677.00,0.7154
4676.00,0.7162
4675.00,0.7184
4674.00,0.7218
4673.00,0.7264
4672.00,0.7321
4671.00,0.7390
4670.00,0.7468
4669.00,0.7557
4668.00,0.7655
4667.00,0.7762
4666.00,0.7877
4665.00,0.8000
4664.00,0.8128
4663.00,0.8262
4662.00,0.8402
4661.00,0.8547
4660.00,0.8696
4659.00,0.8850
4658.00,0.9006
4657.00,0.9165
4656.00,0.9325
4655.00,0.9488
4654.00,0.9651
4653.00,0.9816
4652.00,0.9982
4651.00,1.0148
4650.00,1.0314
4649.00,1.0480
4648.00,1.0646
4647.00,1.0811
4646.00,1.0975
4645.00,1.1137
4644.00,1.1296
4643.00,1.1452
4642.00,1.1606
4641.00,1.1759
4640.00,1.1910
4639.00,1.2059
4638.00,1.2206
4637.00,1.2349
4636.00,1.2489
4635.00,1.2623
4634.00,1.2753
4633.00,1.2878
4632.00,1.3000
4631.00,1.3119
4630.00,1.3234
4629.00,1.3348
4628.00,1.3458
4627.00,1.3563
4626.00,1.3664
4625.00,1.3759
4624.00,1.3849
4623.00,1.3936
4622.00,1.4018
4621.00,1.4095
4620.00,1.4165
4619.00,1.4229
4618.00,1.4287
4617.00,1.4341
4616.00,1.4393
4615.00,1.4442
4614.00,1.4489
4613.00,1.4531
4612.00,1.4569
4611.00,1.4601
4610.00,1.4627
4609.00,1.4648
4608.00,1.4663
4607.00,1.4675
4606.00,1.4683
4605.00,1.4688
4604.00,1.4690
4603.00,1.4689
4602.00,1.4686
4601.00,1.4680
4600.00,1.4670
4599.00,1.4653
4598.00,1.4631
4597.00,1.4605
4596.00,1.4577
4595.00,1.4545
4594.00,1.4509
4593.00,1.4466
4592.00,1.4418
4591.00,1.4366
4590.00,1.4310
4589.00,1.4249
4588.00,1.4185
4587.00,1.4115
4586.00,1.4039
4585.00,1.3957
4584.00,1.3870
4583.00,1.3776
4582.00,1.3678
4581.00,1.3574
4580.00,1.3466
4579.00,1.3353
4578.00,1.3234
4577.00,1.3110
4576.00,1.2980
4575.00,1.2846
4574.00,1.2706
4573.00,1.2562
4572.00,1.2411
4571.00,1.2256
4570.00,1.2095
4569.00,1.1930
4568.00,1.1760
4567.00,1.1587
4566.00,1.1409
4565.00,1.1226
4564.00,1.1040
4563.00,1.0850
4562.00,1.0659
4561.00,1.0467
4560.00,1.0273
4559.00,1.0080
4558.00,0.9886
4557.00,0.9694
4556.00,0.9504
4555.00,0.9317
4554.00,0.9134
4553.00,0.8954
4552.00,0.8779
4551.00,0.8609
4550.00,0.8446
4549.00,0.8291
4548.00,0.8144
4547.00,0.8006
4546.00,0.7879
4545.00,0.7763
4544.00,0.7657
4543.00,0.7562
4542.00,0.7480
4541.00,0.7411
4540.00,0.7355
4539.00,0.7314
4538.00,0.7287
4537.00,0.7274
4536.00,0.7274
4535.00,0.7288
4534.00,0.7316
4533.00,0.7357
4532.00,0.7412
4531.00,0.7479
4530.00,0.7559
4529.00,0.7649
4528.00,0.7750
4527.00,0.7861
4526.00,0.7982
4525.00,0.8111
4524.00,0.8247
4523.00,0.8390
4522.00,0.8538
4521.00,0.8692
4520.00,0.8850
4519.00,0.9013
4518.00,0.9180
4517.00,0.9349
4516.00,0.9522
4515.00,0.9697
4514.00,0.9872
4513.00,1.0049
4512.00,1.0226
4511.00,1.0404
4510.00,1.0583
4509.00,1.0761
4508.00,1.0939
4507.00,1.1115
4506.00,1.1288
4505.00,1.1459
4504.00,1.1627
4503.00,1.1793
4502.00,1.1957
4501.00,1.2119
4500.00,1.2280
4499.00,1.2439
4498.00,1.2595
4497.00,1.2749
4496.00,1.2897
4495.00,1.3040
4494.00,1.3176
4493.00,1.3307
4492.00,1.3433
4491.00,1.3556
4490.00,1.3675
4489.00,1.3792
4488.00,1.3904
4487.00,1.4012
4486.00,1.4114
4485.00,1.4209
4484.00,1.4297
4483.00,1.4378
4482.00,1.4453
4481.00,1.4524
4480.00,1.4592
4479.00,1.4658
4478.00,1.4722
4477.00,1.4784
4476.00,1.4841
4475.00,1.4895
4474.00,1.4943
4473.00,1.4988
4472.00,1.5030
4471.00,1.5072
4470.00,1.5113
4469.00,1.5150
4468.00,1.5179
4467.00,1.5198
4466.00,1.5209
4465.00,1.5216
4464.00,1.5221
4463.00,1.5224
4462.00,1.5225
4461.00,1.5221
4460.00,1.5212
4459.00,1.5198
4458.00,1.5181
4457.00,1.5164
4456.00,1.5144
4455.00,1.5120
4454.00,1.5090
4453.00,1.5053
4452.00,1.5010
4451.00,1.4962
4450.00,1.4912
4449.00,1.4859
4448.00,1.4804
4447.00,1.4746
4446.00,1.4687
4445.00,1.4625
4444.00,1.4561
4443.00,1.4494
4442.00,1.4423
4441.00,1.4349
4440.00,1.4271
4439.00,1.4188
4438.00,1.4102
4437.00,1.4011
4436.00,1.3914
4435.00,1.3809
4434.00,1.3697
4433.00,1.3576
4432.00,1.3446
4431.00,1.3309
4430.00,1.3165
4429.00,1.3013
4428.00,1.2852
4427.00,1.2684
4426.00,1.2508
4425.00,1.2328
4424.00,1.2142
4423.00,1.1952
4422.00,1.1759
4421.00,1.1562
4420.00,1.1362
4419.00,1.1161
4418.00,1.0959
4417.00,1.0759
4416.00,1.0560
4415.00,1.0364
4414.00,1.0172
4413.00,0.9983
4412.00,0.9800
4411.00,0.9624
4410.00,0.9456
4409.00,0.9299
4408.00,0.9153
4407.00,0.9021
4406.00,0.8902
4405.00,0.8797
4404.00,0.8705
4403.00,0.8627
4402.00,0.8560
4401.00,0.8506
4400.00,0.8461
4399.00,0.8426
4398.00,0.8399
4397.00,0.8380
4396.00,0.8368
4395.00,0.8364
4394.00,0.8367
4393.00,0.8379
4392.00,0.8401
4391.00,0.8434
4390.00,0.8478
4389.00,0.8533
4388.00,0.8600
4387.00,0.8679
4386.00,0.8769
4385.00,0.8871
4384.00,0.8983
4383.00,0.9105
4382.00,0.9236
4381.00,0.9375
4380.00,0.9522
4379.00,0.9674
4378.00,0.9830
4377.00,0.9991
4376.00,1.0155
4375.00,1.0321
4374.00,1.0489
4373.00,1.0658
4372.00,1.0826
4371.00,1.0992
4370.00,1.1157
4369.00,1.1318
4368.00,1.1475
4367.00,1.1629
4366.00,1.1778
4365.00,1.1924
4364.00,1.2067
4363.00,1.2205
4362.00,1.2338
4361.00,1.2467
4360.00,1.2593
4359.00,1.2719
4358.00,1.2845
4357.00,1.2970
4356.00,1.3093
4355.00,1.3214
4354.00,1.3336
4353.00,1.3457
4352.00,1.3580
4351.00,1.3702
4350.00,1.3822
4349.00,1.3940
4348.00,1.4057
4347.00,1.4171
4346.00,1.4283
4345.00,1.4391
4344.00,1.4496
4343.00,1.4598
4342.00,1.4696
4341.00,1.4789
4340.00,1.4878
4339.00,1.4964
4338.00,1.5046
4337.00,1.5125
4336.00,1.5199
4335.00,1.5267
4334.00,1.5331
4333.00,1.5390
4332.00,1.5446
4331.00,1.5499
4330.00,1.5548
4329.00,1.5592
4328.00,1.5630
4327.00,1.5663
4326.00,1.5691
4325.00,1.5716
4324.00,1.5739
4323.00,1.5759
4322.00,1.5775
4321.00,1.5783
4320.00,1.5782
4319.00,1.5775
4318.00,1.5763
4317.00,1.5749
4316.00,1.5735
4315.00,1.5718
4314.00,1.5698
4313.00,1.5671
4312.00,1.5639
4311.00,1.5601
4310.00,1.5558
4309.00,1.5511
4308.00,1.5458
4307.00,1.5399
4306.00,1.5336
4305.00,1.5269
4304.00,1.5199
4303.00,1.5124
4302.00,1.5045
4301.00,1.4961
4300.00,1.4873
4299.00,1.4780
4298.00,1.4681
4297.00,1.4576
4296.00,1.4465
4295.00,1.4348
4294.00,1.4226
4293.00,1.4098
4292.00,1.3963
4291.00,1.3823
4290.00,1.3678
4289.00,1.3529
4288.00,1.3374
4287.00,1.3213
4286.00,1.3045
4285.00,1.2871
4284.00,1.2691
4283.00,1.2506
4282.00,1.2315
4281.00,1.2119
4280.00,1.1917
4279.00,1.1712
4278.00,1.1503
4277.00,1.1290
4276.00,1.1075
4275.00,1.0857
4274.00,1.0639
4273.00,1.0420
4272.00,1.0200
4271.00,0.9982
4270.00,0.9767
4269.00,0.9555
4268.00,0.9349
4267.00,0.9148
4266.00,0.8955
4265.00,0.8769
4264.00,0.8591
4263.00,0.8424
4262.00,0.8268
4261.00,0.8124
4260.00,0.7994
4259.00,0.7877
4258.00,0.7776
4257.00,0.7689
4256.00,0.7619
4255.00,0.7565
4254.00,0.7527
4253.00,0.7507
4252.00,0.7505
4251.00,0.7519
4250.00,0.7550
4249.00,0.7596
4248.00,0.7658
4247.00,0.7735
4246.00,0.7826
4245.00,0.7930
4244.00,0.8047
4243.00,0.8175
4242.00,0.8313
4241.00,0.8460
4240.00,0.8615
4239.00,0.8778
4238.00,0.8947
4237.00,0.9122
4236.00,0.9301
4235.00,0.9485
4234.00,0.9673
4233.00,0.9865
4232.00,1.0058
4231.00,1.0254
4230.00,1.0451
4229.00,1.0649
4228.00,1.0847
4227.00,1.1045
4226.00,1.1242
4225.00,1.1437
4224.00,1.1630
4223.00,1.1823
4222.00,1.2014
4221.00,1.2205
4220.00,1.2392
4219.00,1.2576
4218.00,1.2756
4217.00,1.2930
4216.00,1.3102
4215.00,1.3272
4214.00,1.3440
4213.00,1.3604
4212.00,1.3765
4211.00,1.3922
4210.00,1.4073
4209.00,1.4218
4208.00,1.4357
4207.00,1.4491
4206.00,1.4620
4205.00,1.4746
4204.00,1.4868
4203.00,1.4984
4202.00,1.5094
4201.00,1.5199
4200.00,1.5298
4199.00,1.5392
4198.00,1.5482
4197.00,1.5565
4196.00,1.5644
4195.00,1.5718
4194.00,1.5790
4193.00,1.5858
4192.00,1.5921
4191.00,1.5977
4190.00,1.6024
4189.00,1.6067
4188.00,1.6106
4187.00,1.6144
4186.00,1.6177
4185.00,1.6204
4184.00,1.6225
4183.00,1.6240
4182.00,1.6251
4181.00,1.6259
4180.00,1.6263
4179.00,1.6264
4178.00,1.6262
4177.00,1.6256
4176.00,1.6246
4175.00,1.6233
4174.00,1.6216
4173.00,1.6192
4172.00,1.6162
4171.00,1.6127
4170.00,1.6089
4169.00,1.6048
4168.00,1.6003
4167.00,1.5953
4166.00,1.5896
4165.00,1.5832
4164.00,1.5761
4163.00,1.5683
4162.00,1.5601
4161.00,1.5515
4160.00,1.5427
4159.00,1.5336
4158.00,1.5240
4157.00,1.5140
4156.00,1.5034
4155.00,1.4922
4154.00,1.4804
4153.00,1.4679
4152.00,1.4547
4151.00,1.4409
4150.00,1.4265
4149.00,1.4116
4148.00,1.3962
4147.00,1.3801
4146.00,1.3633
4145.00,1.3458
4144.00,1.3276
4143.00,1.3087
4142.00,1.2891
4141.00,1.2689
4140.00,1.2482
4139.00,1.2272
4138.00,1.2058
4137.00,1.1840
4136.00,1.1619
4135.00,1.1394
4134.00,1.1165
4133.00,1.0934
4132.00,1.0702
4131.00,1.0470
4130.00,1.0240
4129.00,1.0013
4128.00,0.9790
4127.00,0.9573
4126.00,0.9362
4125.00,0.9160
4124.00,0.8967
4123.00,0.8784
4122.00,0.8612
4121.00,0.8452
4120.00,0.8306
4119.00,0.8174
4118.00,0.8058
4117.00,0.7959
4116.00,0.7876
4115.00,0.7810
4114.00,0.7763
4113.00,0.7735
4112.00,0.7726
4111.00,0.7735
4110.00,0.7762
4109.00,0.7808
4108.00,0.7870
4107.00,0.7948
4106.00,0.8042
4105.00,0.8150
4104.00,0.8271
4103.00,0.8404
4102.00,0.8548
4101.00,0.8703
4100.00,0.8866
4099.00,0.9037
4098.00,0.9215
4097.00,0.9399
4096.00,0.9588
4095.00,0.9783
4094.00,0.9981
4093.00,1.0182
4092.00,1.0386
4091.00,1.0592
4090.00,1.0800
4089.00,1.1008
4088.00,1.1218
4087.00,1.1428
4086.00,1.1638
4085.00,1.1847
4084.00,1.2054
4083.00,1.2257
4082.00,1.2457
4081.00,1.2655
4080.00,1.2849
4079.00,1.3043
4078.00,1.3233
4077.00,1.3421
4076.00,1.3603
4075.00,1.3780
4074.00,1.3953
4073.00,1.4123
4072.00,1.4289
4071.00,1.4450
4070.00,1.4606
4069.00,1.4755
4068.00,1.4898
4067.00,1.5036
4066.00,1.5168
4065.00,1.5296
4064.00,1.5420
4063.00,1.5541
4062.00,1.5657
4061.00,1.5767
4060.00,1.5869
4059.00,1.5962
4058.00,1.6049
4057.00,1.6132
4056.00,1.6215
4055.00,1.6297
4054.00,1.6376
4053.00,1.6449
4052.00,1.6513
4051.00,1.6567
4050.00,1.6615
4049.00,1.6659
4048.00,1.6702
4047.00,1.6742
4046.00,1.6780
4045.00,1.6813
4044.00,1.6840
4043.00,1.6863
4042.00,1.6881
4041.00,1.6895
4040.00,1.6905
4039.00,1.6909
4038.00,1.6909
4037.00,1.6905
4036.00,1.6896
4035.00,1.6883
4034.00,1.6867
4033.00,1.6846
4032.00,1.6821
4031.00,1.6791
4030.00,1.6756
4029.00,1.6718
4028.00,1.6677
4027.00,1.6635
4026.00,1.6589
4025.00,1.6538
4024.00,1.6481
4023.00,1.6417
4022.00,1.6346
4021.00,1.6267
4020.00,1.6182
4019.00,1.6091
4018.00,1.5996
4017.00,1.5896
4016.00,1.5792
4015.00,1.5681
4014.00,1.5563
4013.00,1.5439
4012.00,1.5310
4011.00,1.5174
4010.00,1.5033
4009.00,1.4885
4008.00,1.4730
4007.00,1.4570
4006.00,1.4406
4005.00,1.4236
4004.00,1.4057
4003.00,1.3870
4002.00,1.3673
4001.00,1.3469
4000.00,1.3260
3999.00,1.3046
3998.00,1.2827
3997.00,1.2602
3996.00,1.2371
3995.00,1.2135
3994.00,1.1895
3993.00,1.1653
3992.00,1.1411
3991.00,1.1169
3990.00,1.0930
3989.00,1.0692
3988.00,1.0460
3987.00,1.0234
3986.00,1.0016
3985.00,0.9808
3984.00,0.9612
3983.00,0.9427
3982.00,0.9254
3981.00,0.9094
3980.00,0.8948
3979.00,0.8817
3978.00,0.8700
3977.00,0.8597
3976.00,0.8507
3975.00,0.8430
3974.00,0.8364
3973.00,0.8311
3972.00,0.8270
3971.00,0.8243
3970.00,0.8230
3969.00,0.8232
3968.00,0.8250
3967.00,0.8283
3966.00,0.8333
3965.00,0.8399
3964.00,0.8483
3963.00,0.8583
3962.00,0.8700
3961.00,0.8831
3960.00,0.8975
3959.00,0.9129
3958.00,0.9294
3957.00,0.9469
3956.00,0.9652
3955.00,0.9841
3954.00,1.0035
3953.00,1.0232
3952.00,1.0434
3951.00,1.0641
3950.00,1.0852
3949.00,1.1068
3948.00,1.1287
3947.00,1.1507
3946.00,1.1725
3945.00,1.1940
3944.00,1.2154
3943.00,1.2370
3942.00,1.2590
3941.00,1.2811
3940.00,1.3029
3939.00,1.3239
3938.00,1.3440
3937.00,1.3634
3936.00,1.3821
3935.00,1.4003
3934.00,1.4183
3933.00,1.4362
3932.00,1.4543
3931.00,1.4724
3930.00,1.4901
3929.00,1.5070
3928.00,1.5228
3927.00,1.5379
3926.00,1.5525
3925.00,1.5668
3924.00,1.5808
3923.00,1.5941
3922.00,1.6064
3921.00,1.6175
3920.00,1.6280
3919.00,1.6384
3918.00,1.6491
3917.00,1.6597
3916.00,1.6699
3915.00,1.6793
3914.00,1.6876
3913.00,1.6949
3912.00,1.7016
3911.00,1.7077
3910.00,1.7133
3909.00,1.7181
3908.00,1.7218
3907.00,1.7246
3906.00,1.7267
3905.00,1.7286
3904.00,1.7306
3903.00,1.7330
3902.00,1.7358
3901.00,1.7386
3900.00,1.7411
3899.00,1.7432
3898.00,1.7449
3897.00,1.7460
3896.00,1.7464
3895.00,1.7459
3894.00,1.7448
3893.00,1.7430
3892.00,1.7405
3891.00,1.7372
3890.00,1.7334
3889.00,1.7295
3888.00,1.7253
3887.00,1.7206
3886.00,1.7149
3885.00,1.7087
3884.00,1.7025
3883.00,1.6962
3882.00,1.6894
3881.00,1.6821
3880.00,1.6744
3879.00,1.6665
3878.00,1.6586
3877.00,1.6500
3876.00,1.6402
3875.00,1.6288
3874.00,1.6162
3873.00,1.6034
3872.00,1.5907
3871.00,1.5770
3870.00,1.5621
3869.00,1.5465
3868.00,1.5313
3867.00,1.5161
3866.00,1.5004
3865.00,1.4838
3864.00,1.4665
3863.00,1.4485
3862.00,1.4297
3861.00,1.4098
3860.00,1.3886
3859.00,1.3658
3858.00,1.3419
3857.00,1.3176
3856.00,1.2936
3855.00,1.2682
3854.00,1.2398
3853.00,1.2092
3852.00,1.1792
3851.00,1.1519
3850.00,1.1272
3849.00,1.1037
3848.00,1.0806
3847.00,1.0574
3846.00,1.0336
3845.00,1.0090
3844.00,0.9836
3843.00,0.9581
3842.00,0.9332
3841.00,0.9098
3840.00,0.8881
3839.00,0.8679
3838.00,0.8491
3837.00,0.8319
3836.00,0.8171
3835.00,0.8052
3834.00,0.7963
3833.00,0.7901
3832.00,0.7862
3831.00,0.7845
3830.00,0.7850
3829.00,0.7877
3828.00,0.7924
3827.00,0.7988
3826.00,0.8066
3825.00,0.8160
3824.00,0.8271
3823.00,0.8401
3822.00,0.8551
3821.00,0.8723
3820.00,0.8909
3819.00,0.9098
3818.00,0.9287
3817.00,0.9491
3816.00,0.9727
3815.00,0.9993
3814.00,1.0265
3813.00,1.0519
3812.00,1.0750
3811.00,1.0969
3810.00,1.1183
3809.00,1.1398
3808.00,1.1620
3807.00,1.1857
3806.00,1.2108
3805.00,1.2356
3804.00,1.2586
3803.00,1.2798
3802.00,1.3013
3801.00,1.3254
3800.00,1.3519
3799.00,1.3781
3798.00,1.4024
3797.00,1.4249
3796.00,1.4465
3795.00,1.4679
3794.00,1.4888
3793.00,1.5088
3792.00,1.5278
3791.00,1.5460
3790.00,1.5635
3789.00,1.5802
3788.00,1.5962
3787.00,1.6116
3786.00,1.6263
3785.00,1.6405
3784.00,1.6542
3783.00,1.6675
3782.00,1.6800
3781.00,1.6916
3780.00,1.7025
3779.00,1.7130
3778.00,1.7235
3777.00,1.7337
3776.00,1.7430
3775.00,1.7512
3774.00,1.7586
3773.00,1.7655
3772.00,1.7718
3771.00,1.7775
3770.00,1.7829
3769.00,1.7882
3768.00,1.7934
3767.00,1.7981
3766.00,1.8021
3765.00,1.8058
3764.00,1.8091
3763.00,1.8119
3762.00,1.8139
3761.00,1.8153
3760.00,1.8160
3759.00,1.8161
3758.00,1.8154
3757.00,1.8135
3756.00,1.8107
3755.00,1.8072
3754.00,1.8032
3753.00,1.7988
3752.00,1.7942
3751.00,1.7895
3750.00,1.7845
3749.00,1.7790
3748.00,1.7734
3747.00,1.7685
3746.00,1.7640
3745.00,1.7593
3744.00,1.7540
3743.00,1.7485
3742.00,1.7425
3741.00,1.7357
3740.00,1.7283
3739.00,1.7204
3738.00,1.7116
3737.00,1.7014
3736.00,1.6896
3735.00,1.6773
3734.00,1.6651
3733.00,1.6526
3732.00,1.6394
3731.00,1.6255
3730.00,1.6114
3729.00,1.5971
3728.00,1.5818
3727.00,1.5652
3726.00,1.5473
3725.00,1.5283
3724.00,1.5082
3723.00,1.4870
3722.00,1.4650
3721.00,1.4424
3720.00,1.4192
3719.00,1.3952
3718.00,1.3698
3717.00,1.3434
3716.00,1.3167
3715.00,1.2900
3714.00,1.2629
3713.00,1.2347
3712.00,1.2048
3711.00,1.1743
3710.00,1.1445
3709.00,1.1160
3708.00,1.0891
3707.00,1.0637
3706.00,1.0397
3705.00,1.0171
3704.00,0.9956
3703.00,0.9750
3702.00,0.9555
3701.00,0.9375
3700.00,0.9218
3699.00,0.9089
3698.00,0.8988
3697.00,0.8912
3696.00,0.8860
3695.00,0.8832
3694.00,0.8828
3693.00,0.8845
3692.00,0.8886
3691.00,0.8954
3690.00,0.9054
3689.00,0.9190
3688.00,0.9359
3687.00,0.9552
3686.00,0.9755
3685.00,0.9963
3684.00,1.0178
3683.00,1.0405
3682.00,1.0638
3681.00,1.0869
3680.00,1.1093
3679.00,1.1312
3678.00,1.1530
3677.00,1.1756
3676.00,1.2003
3675.00,1.2278
3674.00,1.2562
3673.00,1.2830
3672.00,1.3075
3671.00,1.3315
3670.00,1.3573
3669.00,1.3850
3668.00,1.4129
3667.00,1.4391
3666.00,1.4632
3665.00,1.4856
3664.00,1.5069
3663.00,1.5275
3662.00,1.5472
3661.00,1.5657
3660.00,1.5832
3659.00,1.5998
3658.00,1.6158
3657.00,1.6317
3656.00,1.6480
3655.00,1.6643
3654.00,1.6791
3653.00,1.6915
3652.00,1.7021
3651.00,1.7123
3650.00,1.7237
3649.00,1.7371
3648.00,1.7522
3647.00,1.7680
3646.00,1.7834
3645.00,1.7975
3644.00,1.8100
3643.00,1.8213
3642.00,1.8315
3641.00,1.8410
3640.00,1.8499
3639.00,1.8582
3638.00,1.8660
3637.00,1.8735
3636.00,1.8805
3635.00,1.8865
3634.00,1.8911
3633.00,1.8944
3632.00,1.8970
3631.00,1.8998
3630.00,1.9033
3629.00,1.9080
3628.00,1.9141
3627.00,1.9205
3626.00,1.9260
3625.00,1.9304
3624.00,1.9337
3623.00,1.9361
3622.00,1.9375
3621.00,1.9381
3620.00,1.9385
3619.00,1.9394
3618.00,1.9406
3617.00,1.9415
3616.00,1.9414
3615.00,1.9403
3614.00,1.9384
3613.00,1.9361
3612.00,1.9338
3611.00,1.9315
3610.00,1.9292
3609.00,1.9269
3608.00,1.9247
3607.00,1.9221
3606.00,1.9188
3605.00,1.9152
3604.00,1.9115
3603.00,1.9077
3602.00,1.9030
3601.00,1.8971
3600.00,1.8900
3599.00,1.8822
3598.00,1.8740
3597.00,1.8657
3596.00,1.8572
3595.00,1.8482
3594.00,1.8384
3593.00,1.8278
3592.00,1.8167
3591.00,1.8053
3590.00,1.7937
3589.00,1.7815
3588.00,1.7686
3587.00,1.7551
3586.00,1.7415
3585.00,1.7278
3584.00,1.7140
3583.00,1.6998
3582.00,1.6851
3581.00,1.6698
3580.00,1.6539
3579.00,1.6373
3578.00,1.6200
3577.00,1.6019
3576.00,1.5832
3575.00,1.5639
3574.00,1.5441
3573.00,1.5238
3572.00,1.5032
3571.00,1.4823
3570.00,1.4614
3569.00,1.4405
3568.00,1.4195
3567.00,1.3988
3566.00,1.3787
3565.00,1.3595
3564.00,1.3415
3563.00,1.3244
3562.00,1.3081
3561.00,1.2926
3560.00,1.2779
3559.00,1.2639
3558.00,1.2509
3557.00,1.2387
3556.00,1.2277
3555.00,1.2182
3554.00,1.2101
3553.00,1.2032
3552.00,1.1975
3551.00,1.1929
3550.00,1.1895
3549.00,1.1875
3548.00,1.1869
3547.00,1.1880
3546.00,1.1905
3545.00,1.1941
3544.00,1.1988
3543.00,1.2044
3542.00,1.2108
3541.00,1.2181
3540.00,1.2262
3539.00,1.2352
3538.00,1.2448
3537.00,1.2552
3536.00,1.2664
3535.00,1.2783
3534.00,1.2908
3533.00,1.3037
3532.00,1.3169
3531.00,1.3306
3530.00,1.3448
3529.00,1.3594
3528.00,1.3745
3527.00,1.3901
3526.00,1.4062
3525.00,1.4229
3524.00,1.4400
3523.00,1.4574
3522.00,1.4750
3521.00,1.4927
3520.00,1.5103
3519.00,1.5281
3518.00,1.5459
3517.00,1.5636
3516.00,1.5812
3515.00,1.5986
3514.00,1.6156
3513.00,1.6324
3512.00,1.6489
3511.00,1.6654
3510.00,1.6820
3509.00,1.6986
3508.00,1.7151
3507.00,1.7311
3506.00,1.7462
3505.00,1.7605
3504.00,1.7745
3503.00,1.7884
3502.00,1.8022
3501.00,1.8156
3500.00,1.8284
3499.00,1.8405
3498.00,1.8521
3497.00,1.8633
3496.00,1.8742
3495.00,1.8845
3494.00,1.8940
3493.00,1.9027
3492.00,1.9111
3491.00,1.9192
3490.00,1.9267
3489.00,1.9335
3488.00,1.9398
3487.00,1.9459
3486.00,1.9520
3485.00,1.9578
3484.00,1.9633
3483.00,1.9682
3482.00,1.9725
3481.00,1.9760
3480.00,1.9790
3479.00,1.9815
3478.00,1.9836
3477.00,1.9853
3476.00,1.9867
3475.00,1.9879
3474.00,1.9888
3473.00,1.9893
3472.00,1.9893
3471.00,1.9890
3470.00,1.9883
3469.00,1.9871
3468.00,1.9852
3467.00,1.9827
3466.00,1.9797
3465.00,1.9763
3464.00,1.9725
3463.00,1.9685
3462.00,1.9641
3461.00,1.9593
3460.00,1.9538
3459.00,1.9480
3458.00,1.9419
3457.00,1.9358
3456.00,1.9290
3455.00,1.9214
3454.00,1.9129
3453.00,1.9040
3452.00,1.8947
3451.00,1.8848
3450.00,1.8743
3449.00,1.8632
3448.00,1.8517
3447.00,1.8399
3446.00,1.8275
3445.00,1.8143
3444.00,1.8003
3443.00,1.7855
3442.00,1.7701
3441.00,1.7539
3440.00,1.7370
3439.00,1.7192
3438.00,1.7005
3437.00,1.6813
3436.00,1.6615
3435.00,1.6412
3434.00,1.6202
3433.00,1.5984
3432.00,1.5759
3431.00,1.5526
3430.00,1.5287
3429.00,1.5042
3428.00,1.4790
3427.00,1.4532
3426.00,1.4270
3425.00,1.4005
3424.00,1.3739
3423.00,1.3474
3422.00,1.3211
3421.00,1.2952
3420.00,1.2698
3419.00,1.2453
3418.00,1.2219
3417.00,1.1996
3416.00,1.1786
3415.00,1.1590
3414.00,1.1409
3413.00,1.1246
3412.00,1.1102
3411.00,1.0978
3410.00,1.0877
3409.00,1.0798
3408.00,1.0741
3407.00,1.0707
3406.00,1.0694
3405.00,1.0702
3404.00,1.0730
3403.00,1.0776
3402.00,1.0840
3401.00,1.0921
3400.00,1.1018
3399.00,1.1131
3398.00,1.1260
3397.00,1.1403
3396.00,1.1560
3395.00,1.1729
3394.00,1.1909
3393.00,1.2099
3392.00,1.2298
3391.00,1.2507
3390.00,1.2722
3389.00,1.2942
3388.00,1.3166
3387.00,1.3394
3386.00,1.3625
3385.00,1.3859
3384.00,1.4093
3383.00,1.4326
3382.00,1.4558
3381.00,1.4788
3380.00,1.5018
3379.00,1.5247
3378.00,1.5475
3377.00,1.5700
3376.00,1.5920
3375.00,1.6136
3374.00,1.6348
3373.00,1.6557
3372.00,1.6763
3371.00,1.6963
3370.00,1.7159
3369.00,1.7349
3368.00,1.7535
3367.00,1.7717
3366.00,1.7891
3365.00,1.8059
3364.00,1.8220
3363.00,1.8374
3362.00,1.8522
3361.00,1.8666
3360.00,1.8804
3359.00,1.8935
3358.00,1.9057
3357.00,1.9174
3356.00,1.9286
3355.00,1.9393
3354.00,1.9493
3353.00,1.9589
3352.00,1.9683
3351.00,1.9772
3350.00,1.9852
3349.00,1.9921
3348.00,1.9985
3347.00,2.0047
3346.00,2.0107
3345.00,2.0162
3344.00,2.0213
3343.00,2.0257
3342.00,2.0294
3341.00,2.0325
3340.00,2.0352
3339.00,2.0380
3338.00,2.0410
3337.00,2.0439
3336.00,2.0463
3335.00,2.0479
3334.00,2.0486
3333.00,2.0485
3332.00,2.0482
3331.00,2.0477
3330.00,2.0471
3329.00,2.0459
3328.00,2.0439
3327.00,2.0413
3326.00,2.0382
3325.00,2.0349
3324.00,2.0315
3323.00,2.0276
3322.00,2.0231
3321.00,2.0180
3320.00,2.0128
3319.00,2.0074
3318.00,2.0015
3317.00,1.9948
3316.00,1.9873
3315.00,1.9790
3314.00,1.9699
3313.00,1.9602
3312.00,1.9502
3311.00,1.9401
3310.00,1.9297
3309.00,1.9187
3308.00,1.9072
3307.00,1.8949
3306.00,1.8822
3305.00,1.8688
3304.00,1.8549
3303.00,1.8404
3302.00,1.8252
3301.00,1.8091
3300.00,1.7921
3299.00,1.7742
3298.00,1.7555
3297.00,1.7362
3296.00,1.7164
3295.00,1.6959
3294.00,1.6746
3293.00,1.6525
3292.00,1.6296
3291.00,1.6062
3290.00,1.5823
3289.00,1.5578
3288.00,1.5327
3287.00,1.5071
3286.00,1.4808
3285.00,1.4540
3284.00,1.4270
3283.00,1.3999
3282.00,1.3729
3281.00,1.3461
3280.00,1.3197
3279.00,1.2939
3278.00,1.2690
3277.00,1.2450
3276.00,1.2221
3275.00,1.2005
3274.00,1.1805
3273.00,1.1622
3272.00,1.1459
3271.00,1.1317
3270.00,1.1198
3269.00,1.1104
3268.00,1.1034
3267.00,1.0987
3266.00,1.0965
3265.00,1.0968
3264.00,1.0995
3263.00,1.1047
3262.00,1.1123
3261.00,1.1221
3260.00,1.1340
3259.00,1.1478
3258.00,1.1634
3257.00,1.1805
3256.00,1.1989
3255.00,1.2187
3254.00,1.2396
3253.00,1.2614
3252.00,1.2840
3251.00,1.3073
3250.00,1.3312
3249.00,1.3555
3248.00,1.3802
3247.00,1.4050
3246.00,1.4300
3245.00,1.4552
3244.00,1.4806
3243.00,1.5060
3242.00,1.5310
3241.00,1.5557
3240.00,1.5801
3239.00,1.6041
3238.00,1.6276
3237.00,1.6507
3236.00,1.6734
3235.00,1.6957
3234.00,1.7176
3233.00,1.7392
3232.00,1.7603
3231.00,1.7810
3230.00,1.8012
3229.00,1.8208
3228.00,1.8395
3227.00,1.8574
3226.00,1.8746
3225.00,1.8912
3224.00,1.9071
3223.00,1.9224
3222.00,1.9372
3221.00,1.9515
3220.00,1.9652
3219.00,1.9780
3218.00,1.9897
3217.00,2.0008
3216.00,2.0114
3215.00,2.0215
3214.00,2.0313
3213.00,2.0407
3212.00,2.0499
3211.00,2.0587
3210.00,2.0672
3209.00,2.0754
3208.00,2.0829
3207.00,2.0897
3206.00,2.0957
3205.00,2.1010
3204.00,2.1059
3203.00,2.1104
3202.00,2.1143
3201.00,2.1177
3200.00,2.1204
3199.00,2.1225
3198.00,2.1239
3197.00,2.1246
3196.00,2.1248
3195.00,2.1247
3194.00,2.1246
3193.00,2.1244
3192.00,2.1241
3191.00,2.1238
3190.00,2.1233
3189.00,2.1224
3188.00,2.1205
3187.00,2.1173
3186.00,2.1132
3185.00,2.1089
3184.00,2.1047
3183.00,2.1003
3182.00,2.0951
3181.00,2.0893
3180.00,2.0828
3179.00,2.0759
3178.00,2.0683
3177.00,2.0603
3176.00,2.0521
3175.00,2.0438
3174.00,2.0354
3173.00,2.0266
3172.00,2.0178
3171.00,2.0094
3170.00,2.0022
3169.00,1.9971
3168.00,1.9948
3167.00,1.9954
3166.00,1.9982
3165.00,2.0017
3164.00,2.0038
3163.00,2.0021
3162.00,1.9949
3161.00,1.9824
3160.00,1.9656
3159.00,1.9459
3158.00,1.9244
3157.00,1.9016
3156.00,1.8779
3155.00,1.8535
3154.00,1.8289
3153.00,1.8041
3152.00,1.7791
3151.00,1.7537
3150.00,1.7277
3149.00,1.7012
3148.00,1.6743
3147.00,1.6471
3146.00,1.6196
3145.00,1.5920
3144.00,1.5645
3143.00,1.5368
3142.00,1.5091
3141.00,1.4813
3140.00,1.4538
3139.00,1.4266
3138.00,1.4002
3137.00,1.3748
3136.00,1.3506
3135.00,1.3277
3134.00,1.3065
3133.00,1.2870
3132.00,1.2694
3131.00,1.2540
3130.00,1.2407
3129.00,1.2298
3128.00,1.2213
3127.00,1.2155
3126.00,1.2122
3125.00,1.2116
3124.00,1.2137
3123.00,1.2183
3122.00,1.2255
3121.00,1.2350
3120.00,1.2467
3119.00,1.2606
3118.00,1.2763
3117.00,1.2937
3116.00,1.3126
3115.00,1.3327
3114.00,1.3537
3113.00,1.3753
3112.00,1.3976
3111.00,1.4203
3110.00,1.4437
3109.00,1.4675
3108.00,1.4917
3107.00,1.5162
3106.00,1.5408
3105.00,1.5655
3104.00,1.5902
3103.00,1.6149
3102.00,1.6394
3101.00,1.6637
3100.00,1.6879
3099.00,1.7119
3098.00,1.7355
3097.00,1.7584
3096.00,1.7806
3095.00,1.8021
3094.00,1.8233
3093.00,1.8442
3092.00,1.8649
3091.00,1.8852
3090.00,1.9047
3089.00,1.9233
3088.00,1.9410
3087.00,1.9578
3086.00,1.9738
3085.00,1.9893
3084.00,2.0046
3083.00,2.0196
3082.00,2.0340
3081.00,2.0476
3080.00,2.0604
3079.00,2.0727
3078.00,2.0848
3077.00,2.0967
3076.00,2.1083
3075.00,2.1193
3074.00,2.1295
3073.00,2.1389
3072.00,2.1477
3071.00,2.1560
3070.00,2.1633
3069.00,2.1696
3068.00,2.1751
3067.00,2.1801
3066.00,2.1849
3065.00,2.1898
3064.00,2.1948
3063.00,2.1997
3062.00,2.2042
3061.00,2.2078
3060.00,2.2107
3059.00,2.2135
3058.00,2.2166
3057.00,2.2194
3056.00,2.2214
3055.00,2.2222
3054.00,2.2220
3053.00,2.2213
3052.00,2.2207
3051.00,2.2202
3050.00,2.2196
3049.00,2.2186
3048.00,2.2166
3047.00,2.2130
3046.00,2.2084
3045.00,2.2037
3044.00,2.1999
3043.00,2.1966
3042.00,2.1930
3041.00,2.1884
3040.00,2.1827
3039.00,2.1763
3038.00,2.1694
3037.00,2.1619
3036.00,2.1537
3035.00,2.1450
3034.00,2.1358
3033.00,2.1264
3032.00,2.1170
3031.00,2.1076
3030.00,2.0977
3029.00,2.0873
3028.00,2.0761
3027.00,2.0642
3026.00,2.0520
3025.00,2.0395
3024.00,2.0270
3023.00,2.0144
3022.00,2.0017
3021.00,1.9892
3020.00,1.9770
3019.00,1.9650
3018.00,1.9532
3017.00,1.9417
3016.00,1.9310
3015.00,1.9214
3014.00,1.9129
3013.00,1.9055
3012.00,1.8993
3011.00,1.8946
3010.00,1.8913
3009.00,1.8892
3008.00,1.8879
3007.00,1.8871
3006.00,1.8865
3005.00,1.8859
3004.00,1.8849
3003.00,1.8831
3002.00,1.8798
3001.00,1.8742
3000.00,1.8659
2999.00,1.8550
2998.00,1.8417
2997.00,1.8265
2996.00,1.8096
2995.00,1.7914
2994.00,1.7722
2993.00,1.7525
2992.00,1.7326
2991.00,1.7133
2990.00,1.6954
2989.00,1.6795
2988.00,1.6663
2987.00,1.6558
2986.00,1.6484
2985.00,1.6443
2984.00,1.6437
2983.00,1.6468
2982.00,1.6536
2981.00,1.6642
2980.00,1.6784
2979.00,1.6957
2978.00,1.7159
2977.00,1.7385
2976.00,1.7631
2975.00,1.7895
2974.00,1.8173
2973.00,1.8461
2972.00,1.8753
2971.00,1.9043
2970.00,1.9330
2969.00,1.9612
2968.00,1.9890
2967.00,2.0160
2966.00,2.0415
2965.00,2.0650
2964.00,2.0870
2963.00,2.1083
2962.00,2.1292
2961.00,2.1501
2960.00,2.1709
2959.00,2.1915
2958.00,2.2118
2957.00,2.2321
2956.00,2.2526
2955.00,2.2734
2954.00,2.2940
2953.00,2.3141
2952.00,2.3342
2951.00,2.3549
2950.00,2.3763
2949.00,2.3976
2948.00,2.4181
2947.00,2.4373
2946.00,2.4538
2945.00,2.4649
2944.00,2.4674
2943.00,2.4605
2942.00,2.4456
2941.00,2.4252
2940.00,2.4018
2939.00,2.3771
2938.00,2.3532
2937.00,2.3317
2936.00,2.3133
2935.00,2.2976
2934.00,2.2834
2933.00,2.2702
2932.00,2.2580
2931.00,2.2475
2930.00,2.2391
2929.00,2.2329
2928.00,2.2290
2927.00,2.2268
2926.00,2.2259
2925.00,2.2258
2924.00,2.2267
2923.00,2.2296
2922.00,2.2345
2921.00,2.2407
2920.00,2.2466
2919.00,2.2517
2918.00,2.2565
2917.00,2.2615
2916.00,2.2668
2915.00,2.2723
2914.00,2.2783
2913.00,2.2848
2912.00,2.2914
2911.00,2.2975
2910.00,2.3032
2909.00,2.3091
2908.00,2.3150
2907.00,2.3199
2906.00,2.3236
2905.00,2.3268
2904.00,2.3303
2903.00,2.3344
2902.00,2.3382
2901.00,2.3408
2900.00,2.3418
2899.00,2.3416
2898.00,2.3409
2897.00,2.3402
2896.00,2.3398
2895.00,2.3399
2894.00,2.3402
2893.00,2.3401
2892.00,2.3384
2891.00,2.3347
2890.00,2.3296
2889.00,2.3246
2888.00,2.3207
2887.00,2.3171
2886.00,2.3125
2885.00,2.3068
2884.00,2.3002
2883.00,2.2934
2882.00,2.2868
2881.00,2.2806
2880.00,2.2751
2879.00,2.2700
2878.00,2.2651
2877.00,2.2600
2876.00,2.2548
2875.00,2.2500
2874.00,2.2458
2873.00,2.2427
2872.00,2.2410
2871.00,2.2403
2870.00,2.2392
2869.00,2.2365
2868.00,2.2321
2867.00,2.2266
2866.00,2.2204
2865.00,2.2135
2864.00,2.2056
2863.00,2.1965
2862.00,2.1858
2861.00,2.1726
2860.00,2.1565
2859.00,2.1377
2858.00,2.1172
2857.00,2.0956
2856.00,2.0728
2855.00,2.0485
2854.00,2.0223
2853.00,1.9944
2852.00,1.9650
2851.00,1.9344
2850.00,1.9027
2849.00,1.8700
2848.00,1.8365
2847.00,1.8023
2846.00,1.7672
2845.00,1.7314
2844.00,1.6951
2843.00,1.6586
2842.00,1.6222
2841.00,1.5863
2840.00,1.5510
2839.00,1.5163
2838.00,1.4824
2837.00,1.4498
2836.00,1.4187
2835.00,1.3897
2834.00,1.3630
2833.00,1.3390
2832.00,1.3177
2831.00,1.2992
2830.00,1.2838
2829.00,1.2718
2828.00,1.2634
2827.00,1.2587
2826.00,1.2578
2825.00,1.2607
2824.00,1.2674
2823.00,1.2775
2822.00,1.2909
2821.00,1.3073
2820.00,1.3266
2819.00,1.3482
2818.00,1.3721
2817.00,1.3978
2816.00,1.4251
2815.00,1.4538
2814.00,1.4836
2813.00,1.5141
2812.00,1.5451
2811.00,1.5764
2810.00,1.6079
2809.00,1.6395
2808.00,1.6713
2807.00,1.7030
2806.00,1.7343
2805.00,1.7651
2804.00,1.7953
2803.00,1.8250
2802.00,1.8540
2801.00,1.8824
2800.00,1.9101
2799.00,1.9369
2798.00,1.9627
2797.00,1.9875
2796.00,2.0117
2795.00,2.0352
2794.00,2.0578
2793.00,2.0793
2792.00,2.0997
2791.00,2.1190
2790.00,2.1373
2789.00,2.1546
2788.00,2.1712
2787.00,2.1870
2786.00,2.2021
2785.00,2.2166
2784.00,2.2305
2783.00,2.2438
2782.00,2.2562
2781.00,2.2678
2780.00,2.2792
2779.00,2.2902
2778.00,2.3007
2777.00,2.3101
2776.00,2.3188
2775.00,2.3271
2774.00,2.3350
2773.00,2.3417
2772.00,2.3472
2771.00,2.3519
2770.00,2.3568
2769.00,2.3626
2768.00,2.3689
2767.00,2.3746
2766.00,2.3787
2765.00,2.3809
2764.00,2.3824
2763.00,2.3843
2762.00,2.3869
2761.00,2.3892
2760.00,2.3898
2759.00,2.3884
2758.00,2.3864
2757.00,2.3851
2756.00,2.3850
2755.00,2.3849
2754.00,2.3840
2753.00,2.3817
2752.00,2.3787
2751.00,2.3754
2750.00,2.3720
2749.00,2.3683
2748.00,2.3638
2747.00,2.3583
2746.00,2.3521
2745.00,2.3453
2744.00,2.3384
2743.00,2.3310
2742.00,2.3227
2741.00,2.3135
2740.00,2.3037
2739.00,2.2939
2738.00,2.2844
2737.00,2.2748
2736.00,2.2646
2735.00,2.2533
2734.00,2.2410
2733.00,2.2276
2732.00,2.2134
2731.00,2.1987
2730.00,2.1835
2729.00,2.1676
2728.00,2.1504
2727.00,2.1322
2726.00,2.1131
2725.00,2.0935
2724.00,2.0731
2723.00,2.0512
2722.00,2.0275
2721.00,2.0024
2720.00,1.9765
2719.00,1.9497
2718.00,1.9220
2717.00,1.8927
2716.00,1.8616
2715.00,1.8286
2714.00,1.7941
2713.00,1.7581
2712.00,1.7208
2711.00,1.6820
2710.00,1.6417
2709.00,1.6001
2708.00,1.5575
2707.00,1.5142
2706.00,1.4708
2705.00,1.4278
2704.00,1.3855
2703.00,1.3445
2702.00,1.3053
2701.00,1.2687
2700.00,1.2351
2699.00,1.2050
2698.00,1.1787
2697.00,1.1566
2696.00,1.1389
2695.00,1.1262
2694.00,1.1185
2693.00,1.1162
2692.00,1.1192
2691.00,1.1275
2690.00,1.1407
2689.00,1.1585
2688.00,1.1805
2687.00,1.2061
2686.00,1.2349
2685.00,1.2662
2684.00,1.2994
2683.00,1.3340
2682.00,1.3697
2681.00,1.4061
2680.00,1.4429
2679.00,1.4798
2678.00,1.5165
2677.00,1.5530
2676.00,1.5891
2675.00,1.6250
2674.00,1.6605
2673.00,1.6955
2672.00,1.7299
2671.00,1.7636
2670.00,1.7966
2669.00,1.8288
2668.00,1.8604
2667.00,1.8916
2666.00,1.9224
2665.00,1.9527
2664.00,1.9823
2663.00,2.0108
2662.00,2.0384
2661.00,2.0650
2660.00,2.0906
2659.00,2.1148
2658.00,2.1376
2657.00,2.1592
2656.00,2.1799
2655.00,2.1994
2654.00,2.2176
2653.00,2.2349
2652.00,2.2521
2651.00,2.2691
2650.00,2.2856
2649.00,2.3013
2648.00,2.3161
2647.00,2.3300
2646.00,2.3425
2645.00,2.3539
2644.00,2.3647
2643.00,2.3759
2642.00,2.3874
2641.00,2.3988
2640.00,2.4096
2639.00,2.4192
2638.00,2.4276
2637.00,2.4350
2636.00,2.4416
2635.00,2.4473
2634.00,2.4523
2633.00,2.4569
2632.00,2.4622
2631.00,2.4684
2630.00,2.4751
2629.00,2.4812
2628.00,2.4857
2627.00,2.4885
2626.00,2.4903
2625.00,2.4922
2624.00,2.4951
2623.00,2.4982
2622.00,2.5002
2621.00,2.5002
2620.00,2.4986
2619.00,2.4963
2618.00,2.4939
2617.00,2.4914
2616.00,2.4888
2615.00,2.4858
2614.00,2.4824
2613.00,2.4787
2612.00,2.4746
2611.00,2.4702
2610.00,2.4657
2609.00,2.4609
2608.00,2.4557
2607.00,2.4497
2606.00,2.4424
2605.00,2.4342
2604.00,2.4257
2603.00,2.4172
2602.00,2.4086
2601.00,2.3999
2600.00,2.3909
2599.00,2.3816
2598.00,2.3718
2597.00,2.3615
2596.00,2.3503
2595.00,2.3377
2594.00,2.3236
2593.00,2.3082
2592.00,2.2922
2591.00,2.2756
2590.00,2.2583
2589.00,2.2403
2588.00,2.2216
2587.00,2.2023
2586.00,2.1820
2585.00,2.1606
2584.00,2.1383
2583.00,2.1152
2582.00,2.0907
2581.00,2.0644
2580.00,2.0362
2579.00,2.0065
2578.00,1.9757
2577.00,1.9439
2576.00,1.9109
2575.00,1.8763
2574.00,1.8399
2573.00,1.8018
2572.00,1.7621
2571.00,1.7207
2570.00,1.6777
2569.00,1.6333
2568.00,1.5880
2567.00,1.5423
2566.00,1.4966
2565.00,1.4514
2564.00,1.4072
2563.00,1.3648
2562.00,1.3247
2561.00,1.2876
2560.00,1.2540
2559.00,1.2243
2558.00,1.1992
2557.00,1.1791
2556.00,1.1643
2555.00,1.1553
2554.00,1.1522
2553.00,1.1550
2552.00,1.1635
2551.00,1.1776
2550.00,1.1966
2549.00,1.2200
2548.00,1.2472
2547.00,1.2776
2546.00,1.3106
2545.00,1.3456
2544.00,1.3823
2543.00,1.4204
2542.00,1.4595
2541.00,1.4993
2540.00,1.5395
2539.00,1.5799
2538.00,1.6201
2537.00,1.6600
2536.00,1.6995
2535.00,1.7385
2534.00,1.7771
2533.00,1.8151
2532.00,1.8525
2531.00,1.8890
2530.00,1.9246
2529.00,1.9594
2528.00,1.9935
2527.00,2.0264
2526.00,2.0583
2525.00,2.0887
2524.00,2.1177
2523.00,2.1450
2522.00,2.1708
2521.00,2.1955
2520.00,2.2194
2519.00,2.2425
2518.00,2.2647
2517.00,2.2858
2516.00,2.3060
2515.00,2.3250
2514.00,2.3430
2513.00,2.3602
2512.00,2.3768
2511.00,2.3928
2510.00,2.4074
2509.00,2.4207
2508.00,2.4331
2507.00,2.4449
2506.00,2.4559
2505.00,2.4664
2504.00,2.4768
2503.00,2.4876
2502.00,2.4983
2501.00,2.5078
2500.00,2.5161
2499.00,2.5237
2498.00,2.5314
2497.00,2.5391
2496.00,2.5457
2495.00,2.5506
2494.00,2.5541
2493.00,2.5572
2492.00,2.5610
2491.00,2.5658
2490.00,2.5710
2489.00,2.5762
2488.00,2.5812
2487.00,2.5855
2486.00,2.5883
2485.00,2.5893
2484.00,2.5895
2483.00,2.5897
2482.00,2.5895
2481.00,2.5885
2480.00,2.5872
2479.00,2.5865
2478.00,2.5866
2477.00,2.5862
2476.00,2.5843
2475.00,2.5811
2474.00,2.5775
2473.00,2.5740
2472.00,2.5705
2471.00,2.5666
2470.00,2.5617
2469.00,2.5557
2468.00,2.5492
2467.00,2.5427
2466.00,2.5362
2465.00,2.5291
2464.00,2.5209
2463.00,2.5116
2462.00,2.5016
2461.00,2.4911
2460.00,2.4801
2459.00,2.4682
2458.00,2.4554
2457.00,2.4422
2456.00,2.4290
2455.00,2.4160
2454.00,2.4020
2453.00,2.3865
2452.00,2.3699
2451.00,2.3529
2450.00,2.3357
2449.00,2.3176
2448.00,2.2983
2447.00,2.2781
2446.00,2.2570
2445.00,2.2347
2444.00,2.2108
2443.00,2.1855
2442.00,2.1590
2441.00,2.1315
2440.00,2.1032
2439.00,2.0738
2438.00,2.0429
2437.00,2.0101
2436.00,1.9755
2435.00,1.9393
2434.00,1.9017
2433.00,1.8630
2432.00,1.8232
2431.00,1.7825
2430.00,1.7412
2429.00,1.6997
2428.00,1.6584
2427.00,1.6177
2426.00,1.5785
2425.00,1.5414
2424.00,1.5072
2423.00,1.4764
2422.00,1.4495
2421.00,1.4269
2420.00,1.4088
2419.00,1.3954
2418.00,1.3867
2417.00,1.3826
2416.00,1.3830
2415.00,1.3873
2414.00,1.3953
2413.00,1.4064
2412.00,1.4201
2411.00,1.4361
2410.00,1.4537
2409.00,1.4729
2408.00,1.4935
2407.00,1.5154
2406.00,1.5386
2405.00,1.5633
2404.00,1.5896
2403.00,1.6174
2402.00,1.6465
2401.00,1.6769
2400.00,1.7084
2399.00,1.7408
2398.00,1.7742
2397.00,1.8085
2396.00,1.8435
2395.00,1.8788
2394.00,1.9142
2393.00,1.9495
2392.00,1.9848
2391.00,2.0196
2390.00,2.0535
2389.00,2.0858
2388.00,2.1165
2387.00,2.1456
2386.00,2.1733
2385.00,2.1994
2384.00,2.2239
2383.00,2.2472
2382.00,2.2698
2381.00,2.2923
2380.00,2.3148
2379.00,2.3374
2378.00,2.3600
2377.00,2.3819
2376.00,2.4027
2375.00,2.4225
2374.00,2.4420
2373.00,2.4619
2372.00,2.4816
2371.00,2.4995
2370.00,2.5150
2369.00,2.5287
2368.00,2.5420
2367.00,2.5560
2366.00,2.5714
2365.00,2.5873
2364.00,2.6022
2363.00,2.6149
2362.00,2.6249
2361.00,2.6336
2360.00,2.6426
2359.00,2.6514
2358.00,2.6592
2357.00,2.6649
2356.00,2.6688
2355.00,2.6718
2354.00,2.6765
2353.00,2.6844
2352.00,2.6936
2351.00,2.7010
2350.00,2.7048
2349.00,2.7062
2348.00,2.7079
2347.00,2.7102
2346.00,2.7120
2345.00,2.7113
2344.00,2.7091
2343.00,2.7068
2342.00,2.7051
2341.00,2.7033
2340.00,2.7001
2339.00,2.6943
2338.00,2.6857
2337.00,2.6759
2336.00,2.6669
2335.00,2.6604
2334.00,2.6550
2333.00,2.6497
2332.00,2.6425
2331.00,2.6349
2330.00,2.6265
2329.00,2.6175
2328.00,2.6062
2327.00,2.5923
2326.00,2.5773
2325.00,2.5624
2324.00,2.5489
2323.00,2.5365
2322.00,2.5242
2321.00,2.5110
2320.00,2.4958
2319.00,2.4785
2318.00,2.4585
2317.00,2.4369
2316.00,2.4144
2315.00,2.3919
2314.00,2.3687
2313.00,2.3441
2312.00,2.3173
2311.00,2.2890
2310.00,2.2596
2309.00,2.2294
2308.00,2.1976
2307.00,2.1644
2306.00,2.1306
2305.00,2.0983
2304.00,2.0695
2303.00,2.0465
2302.00,2.0315
2301.00,2.0271
2300.00,2.0355
2299.00,2.0581
2298.00,2.0946
2297.00,2.1432
2296.00,2.1997
2295.00,2.2585
2294.00,2.3119
2293.00,2.3511
2292.00,2.3688
2291.00,2.3619
2290.00,2.3335
2289.00,2.2890
2288.00,2.2332
2287.00,2.1684
2286.00,2.0973
2285.00,2.0234
2284.00,1.9506
2283.00,1.8819
2282.00,1.8193
2281.00,1.7646
2280.00,1.7198
2279.00,1.6872
2278.00,1.6683
2277.00,1.6641
2276.00,1.6743
2275.00,1.6978
2274.00,1.7329
2273.00,1.7774
2272.00,1.8293
2271.00,1.8868
2270.00,1.9488
2269.00,2.0150
2268.00,2.0847
2267.00,2.1572
2266.00,2.2316
2265.00,2.3074
2264.00,2.3847
2263.00,2.4641
2262.00,2.5459
2261.00,2.6304
2260.00,2.7187
2259.00,2.8140
2258.00,2.9222
2257.00,3.0496
2256.00,3.2016
2255.00,3.3780
2254.00,3.5569
2253.00,3.6691
2252.00,3.6327
2251.00,3.4779
2250.00,3.2889
2249.00,3.1032
2248.00,2.9279
2247.00,2.7618
2246.00,2.6036
2245.00,2.4544
2244.00,2.3171
2243.00,2.1952
2242.00,2.0923
2241.00,2.0113
2240.00,1.9539
2239.00,1.9205
2238.00,1.9096
2237.00,1.9182
2236.00,1.9424
2235.00,1.9781
2234.00,2.0216
2233.00,2.0697
2232.00,2.1201
2231.00,2.1708
2230.00,2.2205
2229.00,2.2679
2228.00,2.3123
2227.00,2.3529
2226.00,2.3897
2225.00,2.4232
2224.00,2.4542
2223.00,2.4834
2222.00,2.5106
2221.00,2.5352
2220.00,2.5574
2219.00,2.5780
2218.00,2.5973
2217.00,2.6150
2216.00,2.6314
2215.00,2.6476
2214.00,2.6643
2213.00,2.6808
2212.00,2.6960
2211.00,2.7095
2210.00,2.7212
2209.00,2.7310
2208.00,2.7391
2207.00,2.7462
2206.00,2.7535
2205.00,2.7613
2204.00,2.7694
2203.00,2.7768
2202.00,2.7825
2201.00,2.7862
2200.00,2.7884
2199.00,2.7909
2198.00,2.7948
2197.00,2.7993
2196.00,2.8027
2195.00,2.8041
2194.00,2.8040
2193.00,2.8034
2192.00,2.8028
2191.00,2.8020
2190.00,2.8011
2189.00,2.8000
2188.00,2.7992
2187.00,2.7988
2186.00,2.7976
2185.00,2.7939
2184.00,2.7879
2183.00,2.7814
2182.00,2.7755
2181.00,2.7695
2180.00,2.7627
2179.00,2.7552
2178.00,2.7476
2177.00,2.7399
2176.00,2.7319
2175.00,2.7239
2174.00,2.7164
2173.00,2.7087
2172.00,2.7000
2171.00,2.6898
2170.00,2.6783
2169.00,2.6657
2168.00,2.6521
2167.00,2.6377
2166.00,2.6226
2165.00,2.6062
2164.00,2.5882
2163.00,2.5695
2162.00,2.5509
2161.00,2.5327
2160.00,2.5137
2159.00,2.4929
2158.00,2.4705
2157.00,2.4466
2156.00,2.4212
2155.00,2.3943
2154.00,2.3662
2153.00,2.3371
2152.00,2.3070
2151.00,2.2751
2150.00,2.2411
2149.00,2.2048
2148.00,2.1664
2147.00,2.1259
2146.00,2.0829
2145.00,2.0373
2144.00,1.9891
2143.00,1.9384
2142.00,1.8856
2141.00,1.8312
2140.00,1.7757
2139.00,1.7198
2138.00,1.6641
2137.00,1.6094
2136.00,1.5569
2135.00,1.5075
2134.00,1.4624
2133.00,1.4225
2132.00,1.3887
2131.00,1.3617
2130.00,1.3420
2129.00,1.3303
2128.00,1.3270
2127.00,1.3320
2126.00,1.3451
2125.00,1.3659
2124.00,1.3934
2123.00,1.4266
2122.00,1.4643
2121.00,1.5055
2120.00,1.5494
2119.00,1.5953
2118.00,1.6428
2117.00,1.6914
2116.00,1.7406
2115.00,1.7898
2114.00,1.8389
2113.00,1.8878
2112.00,1.9362
2111.00,1.9838
2110.00,2.0303
2109.00,2.0757
2108.00,2.1202
2107.00,2.1636
2106.00,2.2054
2105.00,2.2454
2104.00,2.2831
2103.00,2.3186
2102.00,2.3519
2101.00,2.3835
2100.00,2.4135
2099.00,2.4417
2098.00,2.4683
2097.00,2.4935
2096.00,2.5180
2095.00,2.5420
2094.00,2.5652
2093.00,2.5872
2092.00,2.6078
2091.00,2.6271
2090.00,2.6454
2089.00,2.6628
2088.00,2.6795
2087.00,2.6957
2086.00,2.7111
2085.00,2.7256
2084.00,2.7392
2083.00,2.7525
2082.00,2.7653
2081.00,2.7780
2080.00,2.7910
2079.00,2.8046
2078.00,2.8178
2077.00,2.8286
2076.00,2.8362
2075.00,2.8415
2074.00,2.8455
2073.00,2.8488
2072.00,2.8527
2071.00,2.8587
2070.00,2.8670
2069.00,2.8756
2068.00,2.8830
2067.00,2.8889
2066.00,2.8937
2065.00,2.8971
2064.00,2.8994
2063.00,2.9015
2062.00,2.9039
2061.00,2.9060
2060.00,2.9078
2059.00,2.9100
2058.00,2.9121
2057.00,2.9118
2056.00,2.9082
2055.00,2.9042
2054.00,2.9031
2053.00,2.9047
2052.00,2.9057
2051.00,2.9038
2050.00,2.8989
2049.00,2.8925
2048.00,2.8862
2047.00,2.8816
2046.00,2.8790
2045.00,2.8770
2044.00,2.8741
2043.00,2.8703
2042.00,2.8664
2041.00,2.8618
2040.00,2.8548
2039.00,2.8454
2038.00,2.8353
2037.00,2.8253
2036.00,2.8144
2035.00,2.8017
2034.00,2.7883
2033.00,2.7758
2032.00,2.7643
2031.00,2.7530
2030.00,2.7410
2029.00,2.7282
2028.00,2.7148
2027.00,2.7001
2026.00,2.6831
2025.00,2.6636
2024.00,2.6434
2023.00,2.6242
2022.00,2.6060
2021.00,2.5869
2020.00,2.5658
2019.00,2.5430
2018.00,2.5190
2017.00,2.4934
2016.00,2.4656
2015.00,2.4361
2014.00,2.4053
2013.00,2.3731
2012.00,2.3389
2011.00,2.3029
2010.00,2.2655
2009.00,2.2262
2008.00,2.1846
2007.00,2.1402
2006.00,2.0928
2005.00,2.0425
2004.00,1.9897
2003.00,1.9349
2002.00,1.8786
2001.00,1.8213
2000.00,1.7639
1999.00,1.7072
1998.00,1.6524
1997.00,1.6005
1996.00,1.5525
1995.00,1.5096
1994.00,1.4729
1993.00,1.4436
1992.00,1.4226
1991.00,1.4104
1990.00,1.4073
1989.00,1.4133
1988.00,1.4278
1987.00,1.4501
1986.00,1.4791
1985.00,1.5138
1984.00,1.5531
1983.00,1.5960
1982.00,1.6416
1981.00,1.6891
1980.00,1.7380
1979.00,1.7876
1978.00,1.8377
1977.00,1.8879
1976.00,1.9382
1975.00,1.9879
1974.00,2.0367
1973.00,2.0843
1972.00,2.1311
1971.00,2.1768
1970.00,2.2209
1969.00,2.2628
1968.00,2.3029
1967.00,2.3417
1966.00,2.3795
1965.00,2.4159
1964.00,2.4506
1963.00,2.4836
1962.00,2.5153
1961.00,2.5449
1960.00,2.5721
1959.00,2.5972
1958.00,2.6214
1957.00,2.6451
1956.00,2.6679
1955.00,2.6893
1954.00,2.7097
1953.00,2.7295
1952.00,2.7482
1951.00,2.7656
1950.00,2.7823
1949.00,2.7993
1948.00,2.8155
1947.00,2.8293
1946.00,2.8402
1945.00,2.8504
1944.00,2.8619
1943.00,2.8747
1942.00,2.8876
1941.00,2.8998
1940.00,2.9116
1939.00,2.9235
1938.00,2.9346
1937.00,2.9438
1936.00,2.9505
1935.00,2.9558
1934.00,2.9606
1933.00,2.9647
1932.00,2.9672
1931.00,2.9684
1930.00,2.9705
1929.00,2.9760
1928.00,2.9850
1927.00,2.9952
1926.00,3.0028
1925.00,3.0059
1924.00,3.0058
1923.00,3.0053
1922.00,3.0062
1921.00,3.0080
1920.00,3.0100
1919.00,3.0132
1918.00,3.0194
1917.00,3.0268
1916.00,3.0311
1915.00,3.0292
1914.00,3.0233
1913.00,3.0177
1912.00,3.0149
1911.00,3.0132
1910.00,3.0102
1909.00,3.0048
1908.00,2.9980
1907.00,2.9911
1906.00,2.9851
1905.00,2.9804
1904.00,2.9767
1903.00,2.9730
1902.00,2.9682
1901.00,2.9621
1900.00,2.9554
1899.00,2.9485
1898.00,2.9402
1897.00,2.9296
1896.00,2.9171
1895.00,2.9034
1894.00,2.8882
1893.00,2.8708
1892.00,2.8521
1891.00,2.8341
1890.00,2.8184
1889.00,2.8046
1888.00,2.7912
1887.00,2.7772
1886.00,2.7615
1885.00,2.7433
1884.00,2.7224
1883.00,2.6997
1882.00,2.6762
1881.00,2.6522
1880.00,2.6274
1879.00,2.6018
1878.00,2.5749
1877.00,2.5462
1876.00,2.5157
1875.00,2.4838
1874.00,2.4505
1873.00,2.4151
1872.00,2.3766
1871.00,2.3347
1870.00,2.2896
1869.00,2.2424
1868.00,2.1938
1867.00,2.1445
1866.00,2.0940
1865.00,2.0410
1864.00,1.9851
1863.00,1.9266
1862.00,1.8668
1861.00,1.8075
1860.00,1.7506
1859.00,1.6974
1858.00,1.6492
1857.00,1.6072
1856.00,1.5727
1855.00,1.5465
1854.00,1.5294
1853.00,1.5220
1852.00,1.5244
1851.00,1.5361
1850.00,1.5565
1849.00,1.5842
1848.00,1.6175
1847.00,1.6547
1846.00,1.6959
1845.00,1.7438
1844.00,1.7996
1843.00,1.8597
1842.00,1.9186
1841.00,1.9738
1840.00,2.0264
1839.00,2.0779
1838.00,2.1292
1837.00,2.1804
1836.00,2.2310
1835.00,2.2792
1834.00,2.3231
1833.00,2.3626
1832.00,2.3995
1831.00,2.4366
1830.00,2.4746
1829.00,2.5124
1828.00,2.5479
1827.00,2.5794
1826.00,2.6076
1825.00,2.6359
1824.00,2.6665
1823.00,2.6984
1822.00,2.7285
1821.00,2.7553
1820.00,2.7794
1819.00,2.8016
1818.00,2.8221
1817.00,2.8412
1816.00,2.8586
1815.00,2.8739
1814.00,2.8879
1813.00,2.9037
1812.00,2.9236
1811.00,2.9459
1810.00,2.9654
1809.00,2.9787
1808.00,2.9865
1807.00,2.9926
1806.00,3.0008
1805.00,3.0132
1804.00,3.0282
1803.00,3.0421
1802.00,3.0516
1801.00,3.0576
1800.00,3.0632
1799.00,3.0699
1798.00,3.0766
1797.00,3.0820
1796.00,3.0851
1795.00,3.0862
1794.00,3.0873
1793.00,3.0923
1792.00,3.1038
1791.00,3.1193
1790.00,3.1327
1789.00,3.1389
1788.00,3.1375
1787.00,3.1319
1786.00,3.1274
1785.00,3.1274
1784.00,3.1304
1783.00,3.1326
1782.00,3.1324
1781.00,3.1312
1780.00,3.1301
1779.00,3.1275
1778.00,3.1223
1777.00,3.1162
1776.00,3.1113
1775.00,3.1077
1774.00,3.1030
1773.00,3.0956
1772.00,3.0865
1771.00,3.0781
1770.00,3.0721
1769.00,3.0674
1768.00,3.0621
1767.00,3.0549
1766.00,3.0468
1765.00,3.0384
1764.00,3.0278
1763.00,3.0128
1762.00,2.9947
1761.00,2.9777
1760.00,2.9644
1759.00,2.9522
1758.00,2.9373
1757.00,2.9187
1756.00,2.8984
1755.00,2.8786
1754.00,2.8592
1753.00,2.8381
1752.00,2.8139
1751.00,2.7867
1750.00,2.7582
1749.00,2.7305
1748.00,2.7044
1747.00,2.6798
1746.00,2.6553
1745.00,2.6296
1744.00,2.6020
1743.00,2.5729
1742.00,2.5440
1741.00,2.5168
1740.00,2.4918
1739.00,2.4674
1738.00,2.4426
1737.00,2.4171
1736.00,2.3918
1735.00,2.3684
1734.00,2.3501
1733.00,2.3393
1732.00,2.3374
1731.00,2.3457
1730.00,2.3644
1729.00,2.3937
1728.00,2.4327
1727.00,2.4806
1726.00,2.5369
1725.00,2.6008
1724.00,2.6716
1723.00,2.7479
1722.00,2.8275
1721.00,2.9067
1720.00,2.9827
1719.00,3.0580
1718.00,3.1389
1717.00,3.2292
1716.00,3.3279
1715.00,3.4364
1714.00,3.5571
1713.00,3.6811
1712.00,3.7919
1711.00,3.8847
1710.00,3.9673
1709.00,4.0264
1708.00,4.0227
1707.00,3.9513
1706.00,3.8419
1705.00,3.7150
1704.00,3.5888
1703.00,3.4713
1702.00,3.3532
1701.00,3.2231
1700.00,3.0919
1699.00,2.9784
1698.00,2.8800
1697.00,2.7804
1696.00,2.6712
1695.00,2.5618
1694.00,2.4646
1693.00,2.3820
1692.00,2.3107
1691.00,2.2490
1690.00,2.1992
1689.00,2.1643
1688.00,2.1447
1687.00,2.1392
1686.00,2.1476
1685.00,2.1748
1684.00,2.2233
1683.00,2.2849
1682.00,2.3464
1681.00,2.4021
1680.00,2.4518
1679.00,2.4958
1678.00,2.5338
1677.00,2.5687
1676.00,2.6061
1675.00,2.6488
1674.00,2.6926
1673.00,2.7310
1672.00,2.7632
1671.00,2.7933
1670.00,2.8257
1669.00,2.8615
1668.00,2.8968
1667.00,2.9266
1666.00,2.9490
1665.00,2.9661
1664.00,2.9827
1663.00,3.0030
1662.00,3.0277
1661.00,3.0533
1660.00,3.0752
1659.00,3.0906
1658.00,3.0996
1657.00,3.1049
1656.00,3.1086
1655.00,3.1125
1654.00,3.1212
1653.00,3.1381
1652.00,3.1567
1651.00,3.1688
1650.00,3.1750
1649.00,3.1808
1648.00,3.1910
1647.00,3.2079
1646.00,3.2292
1645.00,3.2491
1644.00,3.2611
1643.00,3.2624
1642.00,3.2560
1641.00,3.2481
1640.00,3.2449
1639.00,3.2484
1638.00,3.2558
1637.00,3.2624
1636.00,3.2659
1635.00,3.2682
1634.00,3.2713
1633.00,3.2752
1632.00,3.2777
1631.00,3.2777
1630.00,3.2776
1629.00,3.2801
1628.00,3.2823
1627.00,3.2768
1626.00,3.2626
1625.00,3.2481
1624.00,3.2423
1623.00,3.2456
1622.00,3.2501
1621.00,3.2499
1620.00,3.2458
1619.00,3.2407
1618.00,3.2352
1617.00,3.2282
1616.00,3.2203
1615.00,3.2149
1614.00,3.2145
1613.00,3.2153
1612.00,3.2089
1611.00,3.1904
1610.00,3.1646
1609.00,3.1425
1608.00,3.1293
1607.00,3.1200
1606.00,3.1058
1605.00,3.0843
1604.00,3.0612
1603.00,3.0424
1602.00,3.0289
1601.00,3.0176
1600.00,3.0051
1599.00,2.9888
1598.00,2.9668
1597.00,2.9393
1596.00,2.9091
1595.00,2.8797
1594.00,2.8520
1593.00,2.8244
1592.00,2.7951
1591.00,2.7630
1590.00,2.7279
1589.00,2.6900
1588.00,2.6506
1587.00,2.6109
1586.00,2.5715
1585.00,2.5317
1584.00,2.4911
1583.00,2.4496
1582.00,2.4070
1581.00,2.3627
1580.00,2.3181
1579.00,2.2754
1578.00,2.2350
1577.00,2.1956
1576.00,2.1574
1575.00,2.1231
1574.00,2.0958
1573.00,2.0753
1572.00,2.0602
1571.00,2.0516
1570.00,2.0534
1569.00,2.0664
1568.00,2.0872
1567.00,2.1122
1566.00,2.1413
1565.00,2.1748
1564.00,2.2109
1563.00,2.2448
1562.00,2.2733
1561.00,2.2971
1560.00,2.3275
1559.00,2.3771
1558.00,2.4409
1557.00,2.5030
1556.00,2.5551
1555.00,2.6006
1554.00,2.6438
1553.00,2.6842
1552.00,2.7198
1551.00,2.7512
1550.00,2.7824
1549.00,2.8157
1548.00,2.8493
1547.00,2.8798
1546.00,2.9068
1545.00,2.9329
1544.00,2.9578
1543.00,2.9786
1542.00,2.9969
1541.00,3.0216
1540.00,3.0585
1539.00,3.0982
1538.00,3.1265
1537.00,3.1429
1536.00,3.1569
1535.00,3.1738
1534.00,3.1907
1533.00,3.2029
1532.00,3.2114
1531.00,3.2222
1530.00,3.2366
1529.00,3.2515
1528.00,3.2642
1527.00,3.2760
1526.00,3.2887
1525.00,3.2998
1524.00,3.3043
1523.00,3.3024
1522.00,3.3034
1521.00,3.3154
1520.00,3.3344
1519.00,3.3496
1518.00,3.3565
1517.00,3.3587
1516.00,3.3618
1515.00,3.3690
1514.00,3.3802
1513.00,3.3917
1512.00,3.3994
1511.00,3.4026
1510.00,3.4049
1509.00,3.4102
1508.00,3.4188
1507.00,3.4280
1506.00,3.4363
1505.00,3.4453
1504.00,3.4539
1503.00,3.4585
1502.00,3.4586
1501.00,3.4583
1500.00,3.4605
1499.00,3.4613
1498.00,3.4571
1497.00,3.4515
1496.00,3.4494
1495.00,3.4477
1494.00,3.4393
1493.00,3.4228
1492.00,3.4048
1491.00,3.3940
1490.00,3.3954
1489.00,3.4084
1488.00,3.4280
1487.00,3.4458
1486.00,3.4526
1485.00,3.4447
1484.00,3.4261
1483.00,3.4051
1482.00,3.3890
1481.00,3.3812
1480.00,3.3800
1479.00,3.3815
1478.00,3.3819
1477.00,3.3770
1476.00,3.3617
1475.00,3.3360
1474.00,3.3074
1473.00,3.2866
1472.00,3.2786
1471.00,3.2800
1470.00,3.2835
1469.00,3.2852
1468.00,3.2839
1467.00,3.2790
1466.00,3.2721
1465.00,3.2677
1464.00,3.2704
1463.00,3.2791
1462.00,3.2887
1461.00,3.2953
1460.00,3.3000
1459.00,3.3086
1458.00,3.3294
1457.00,3.3693
1456.00,3.4247
1455.00,3.4853
1454.00,3.5462
1453.00,3.6096
1452.00,3.6735
1451.00,3.7198
1450.00,3.7253
1449.00,3.6934
1448.00,3.6549
1447.00,3.6363
1446.00,3.6416
1445.00,3.6580
1444.00,3.6706
1443.00,3.6698
1442.00,3.6576
1441.00,3.6452
1440.00,3.6360
1439.00,3.6246
1438.00,3.6071
1437.00,3.5859
1436.00,3.5651
1435.00,3.5486
1434.00,3.5393
1433.00,3.5357
1432.00,3.5296
1431.00,3.5108
1430.00,3.4797
1429.00,3.4500
1428.00,3.4341
1427.00,3.4322
1426.00,3.4391
1425.00,3.4527
1424.00,3.4685
1423.00,3.4765
1422.00,3.4710
1421.00,3.4598
1420.00,3.4560
1419.00,3.4609
1418.00,3.4598
1417.00,3.4427
1416.00,3.4193
1415.00,3.4002
1414.00,3.3852
1413.00,3.3684
1412.00,3.3470
1411.00,3.3254
1410.00,3.3093
1409.00,3.2996
1408.00,3.2928
1407.00,3.2849
1406.00,3.2731
1405.00,3.2562
1404.00,3.2376
1403.00,3.2231
1402.00,3.2147
1401.00,3.2085
1400.00,3.1989
1399.00,3.1861
1398.00,3.1779
1397.00,3.1816
1396.00,3.1994
1395.00,3.2286
1394.00,3.2632
1393.00,3.2955
1392.00,3.3187
1391.00,3.3299
1390.00,3.3330
1389.00,3.3385
1388.00,3.3570
1387.00,3.3911
1386.00,3.4348
1385.00,3.4819
1384.00,3.5299
1383.00,3.5760
1382.00,3.6156
1381.00,3.6501
1380.00,3.6869
1379.00,3.7272
1378.00,3.7590
1377.00,3.7714
1376.00,3.7684
1375.00,3.7570
1374.00,3.7311
1373.00,3.6783
1372.00,3.6042
1371.00,3.5252
1370.00,3.4519
1369.00,3.3904
1368.00,3.3455
1367.00,3.3203
1366.00,3.3159
1365.00,3.3316
1364.00,3.3638
1363.00,3.4030
1362.00,3.4348
1361.00,3.4535
1360.00,3.4665
1359.00,3.4825
1358.00,3.4997
1357.00,3.5077
1356.00,3.5011
1355.00,3.4897
1354.00,3.4879
1353.00,3.4998
1352.00,3.5168
1351.00,3.5287
1350.00,3.5346
1349.00,3.5420
1348.00,3.5562
1347.00,3.5741
1346.00,3.5902
1345.00,3.6053
1344.00,3.6261
1343.00,3.6558
1342.00,3.6852
1341.00,3.6965
1340.00,3.6801
1339.00,3.6483
1338.00,3.6240
1337.00,3.6199
1336.00,3.6325
1335.00,3.6467
1334.00,3.6496
1333.00,3.6435
1332.00,3.6391
1331.00,3.6388
1330.00,3.6324
1329.00,3.6101
1328.00,3.5770
1327.00,3.5485
1326.00,3.5380
1325.00,3.5507
1324.00,3.5832
1323.00,3.6249
1322.00,3.6607
1321.00,3.6759
1320.00,3.6676
1319.00,3.6458
1318.00,3.6239
1317.00,3.6095
1316.00,3.6052
1315.00,3.6121
1314.00,3.6236
1313.00,3.6244
1312.00,3.6060
1311.00,3.5759
1310.00,3.5480
1309.00,3.5332
1308.00,3.5316
1307.00,3.5321
1306.00,3.5188
1305.00,3.4873
1304.00,3.4485
1303.00,3.4148
1302.00,3.3889
1301.00,3.3654
1300.00,3.3403
1299.00,3.3138
1298.00,3.2883
1297.00,3.2650
1296.00,3.2435
1295.00,3.2231
1294.00,3.2028
1293.00,3.1819
1292.00,3.1591
1291.00,3.1332
1290.00,3.1046
1289.00,3.0729
1288.00,3.0359
1287.00,2.9920
1286.00,2.9421
1285.00,2.8888
1284.00,2.8357
1283.00,2.7851
1282.00,2.7379
1281.00,2.6939
1280.00,2.6525
1279.00,2.6137
1278.00,2.5783
1277.00,2.5469
1276.00,2.5191
1275.00,2.4925
1274.00,2.4650
1273.00,2.4366
1272.00,2.4105
1271.00,2.3907
1270.00,2.3804
1269.00,2.3800
1268.00,2.3881
1267.00,2.4030
1266.00,2.4233
1265.00,2.4482
1264.00,2.4775
1263.00,2.5118
1262.00,2.5524
1261.00,2.6003
1260.00,2.6549
1259.00,2.7133
1258.00,2.7710
1257.00,2.8245
1256.00,2.8733
1255.00,2.9197
1254.00,2.9657
1253.00,3.0129
1252.00,3.0629
1251.00,3.1167
1250.00,3.1714
1249.00,3.2200
1248.00,3.2561
1247.00,3.2813
1246.00,3.3036
1245.00,3.3298
1244.00,3.3590
1243.00,3.3841
1242.00,3.4002
1241.00,3.4130
1240.00,3.4351
1239.00,3.4723
1238.00,3.5155
1237.00,3.5484
1236.00,3.5678
1235.00,3.5884
1234.00,3.6228
1233.00,3.6667
1232.00,3.7070
1231.00,3.7401
1230.00,3.7690
1229.00,3.7887
1228.00,3.7954
1227.00,3.7968
1226.00,3.8001
1225.00,3.8011
1224.00,3.7928
1223.00,3.7750
1222.00,3.7498
1221.00,3.7249
1220.00,3.7132
1219.00,3.7189
1218.00,3.7319
1217.00,3.7353
1216.00,3.7205
1215.00,3.6991
1214.00,3.6896
1213.00,3.7000
1212.00,3.7300
1211.00,3.7772
1210.00,3.8288
1209.00,3.8585
1208.00,3.8473
1207.00,3.8017
1206.00,3.7516
1205.00,3.7260
1204.00,3.7371
1203.00,3.7844
1202.00,3.8481
1201.00,3.8828
1200.00,3.8585
1199.00,3.8110
1198.00,3.7996
1197.00,3.8529
1196.00,3.9454
1195.00,3.9850
1194.00,3.9122
1193.00,3.7952
1192.00,3.7052
1191.00,3.6537
1190.00,3.6234
1189.00,3.6042
1188.00,3.6074
1187.00,3.6500
1186.00,3.7312
1185.00,3.8143
1184.00,3.8472
1183.00,3.8314
1182.00,3.8069
1181.00,3.7966
1180.00,3.7999
1179.00,3.8014
1178.00,3.7875
1177.00,3.7632
1176.00,3.7552
1175.00,3.7854
1174.00,3.8456
1173.00,3.8958
1172.00,3.8940
1171.00,3.8489
1170.00,3.7901
1169.00,3.7133
1168.00,3.6208
1167.00,3.5466
1166.00,3.5112
1165.00,3.5038
1164.00,3.5010
1163.00,3.4926
1162.00,3.4839
1161.00,3.4739
1160.00,3.4521
1159.00,3.4165
1158.00,3.3786
1157.00,3.3472
1156.00,3.3212
1155.00,3.2958
1154.00,3.2700
1153.00,3.2446
1152.00,3.2173
1151.00,3.1873
1150.00,3.1554
1149.00,3.1190
1148.00,3.0714
1147.00,3.0105
1146.00,2.9434
1145.00,2.8802
1144.00,2.8265
1143.00,2.7824
1142.00,2.7454
1141.00,2.7135
1140.00,2.6864
1139.00,2.6656
1138.00,2.6528
1137.00,2.6486
1136.00,2.6530
1135.00,2.6673
1134.00,2.6938
1133.00,2.7349
1132.00,2.7918
1131.00,2.8640
1130.00,2.9475
1129.00,3.0339
1128.00,3.1121
1127.00,3.1752
1126.00,3.2281
1125.00,3.2814
1124.00,3.3292
1123.00,3.3598
1122.00,3.3817
1121.00,3.4103
1120.00,3.4419
1119.00,3.4517
1118.00,3.4263
1117.00,3.3869
1116.00,3.3635
1115.00,3.3745
1114.00,3.4219
1113.00,3.4895
1112.00,3.5483
1111.00,3.5817
1110.00,3.6052
1109.00,3.6310
1108.00,3.6463
1107.00,3.6435
1106.00,3.6350
1105.00,3.6410
1104.00,3.6703
1103.00,3.7079
1102.00,3.7263
1101.00,3.7215
1100.00,3.7246
1099.00,3.7626
1098.00,3.8307
1097.00,3.9073
1096.00,3.9833
1095.00,4.0573
1094.00,4.1147
1093.00,4.1282
1092.00,4.1093
1091.00,4.1049
1090.00,4.1355
1089.00,4.1706
1088.00,4.1545
1087.00,4.1062
1086.00,4.0923
1085.00,4.1505
1084.00,4.2869
1083.00,4.4962
1082.00,4.6955
1081.00,4.5450
1080.00,4.2913
1079.00,4.1764
1078.00,4.1570
1077.00,4.1787
1076.00,4.2155
1075.00,4.2954
1074.00,4.4500
1073.00,4.4715
1072.00,4.4042
1071.00,4.4410
1070.00,4.5942
1069.00,4.6344
1068.00,4.8282
1067.00,5.1999
1066.00,4.4740
1065.00,4.2621
1064.00,4.1879
1063.00,4.0852
1062.00,4.0249
1061.00,3.9898
1060.00,3.9785
1059.00,3.9686
1058.00,4.0571
1057.00,4.1960
1056.00,4.5014
1055.00,4.9324
1054.00,4.2155
1053.00,4.0066
1052.00,3.9816
1051.00,4.0372
1050.00,4.1734
1049.00,4.1267
1048.00,4.0091
1047.00,3.9822
1046.00,4.0186
1045.00,4.0281
1044.00,4.0312
1043.00,4.0757
1042.00,4.1396
1041.00,4.1622
1040.00,4.1134
1039.00,4.0184
1038.00,3.9334
1037.00,3.9141
1036.00,3.9851
1035.00,4.1610
1034.00,4.3779
1033.00,4.3850
1032.00,4.2531
1031.00,4.1068
1030.00,3.9914
1029.00,3.9473
1028.00,3.9731
1027.00,4.0403
1026.00,4.1583
1025.00,4.3015
1024.00,4.2227
1023.00,4.0934
1022.00,4.1133
1021.00,4.3080
1020.00,4.3688
1019.00,4.1183
1018.00,3.9934
1017.00,3.9908
1016.00,4.0747
1015.00,4.2221
1014.00,4.3631
1013.00,4.3897
1012.00,4.2002
1011.00,3.9898
1010.00,3.8584
1009.00,3.7995
1008.00,3.7895
1007.00,3.8102
1006.00,3.8621
1005.00,3.9455
1004.00,4.0201
1003.00,4.0161
1002.00,3.9317
1001.00,3.8309
1000.00,3.7500
999.00,3.6847
998.00,3.6273
997.00,3.5851
996.00,3.5644
995.00,3.5517
994.00,3.5252
993.00,3.4840
992.00,3.4409
991.00,3.4028
990.00,3.3698
989.00,3.3428
988.00,3.3271
987.00,3.3276
986.00,3.3436
985.00,3.3673
984.00,3.3893
983.00,3.4096
982.00,3.4348
981.00,3.4682
980.00,3.5095
979.00,3.5603
978.00,3.6222
977.00,3.6906
976.00,3.7536
975.00,3.7983
974.00,3.8222
973.00,3.8394
972.00,3.8738
971.00,3.9283
970.00,3.9769
969.00,4.0334
968.00,4.1357
967.00,4.2729
966.00,4.4246
965.00,4.5496
964.00,4.5372
963.00,4.3960
962.00,4.2353
961.00,4.0858
960.00,3.9501
959.00,3.8554
958.00,3.8278
957.00,3.8803
956.00,4.0131
955.00,4.2309
954.00,4.3360
953.00,4.1945
952.00,4.1353
951.00,4.1414
950.00,4.0888
949.00,3.9967
948.00,3.9284
947.00,3.8918
946.00,3.8660
945.00,3.8593
944.00,3.9204
943.00,4.0912
942.00,4.4741
941.00,4.9028
940.00,4.5298
939.00,4.3287
938.00,4.1730
937.00,4.0363
936.00,3.9652
935.00,3.9262
934.00,3.9259
933.00,3.9378
932.00,4.0015
931.00,4.0889
930.00,4.3004
929.00,4.9875
928.00,4.5633
927.00,4.2525
926.00,4.2009
925.00,4.1920
924.00,4.2258
923.00,4.2290
922.00,4.2460
921.00,4.3177
920.00,4.3812
919.00,4.3372
918.00,4.2252
917.00,4.1669
916.00,4.1911
915.00,4.2184
914.00,4.2050
913.00,4.3477
912.00,4.6758
911.00,4.3644
910.00,4.0860
909.00,3.9836
908.00,3.9647
907.00,3.9939
906.00,4.0158
905.00,4.0242
904.00,4.0326
903.00,4.0528
902.00,4.0844
901.00,4.1306
900.00,4.1820
899.00,4.2309
898.00,4.2665
897.00,4.2343
896.00,4.1314
895.00,4.0342
894.00,3.9830
893.00,3.9896
892.00,4.0710
891.00,4.2356
890.00,4.4305
889.00,4.4975
888.00,4.3526
887.00,4.1888
886.00,4.0615
885.00,4.0038
884.00,4.0192
883.00,4.1875
882.00,4.5742
881.00,4.3624
880.00,4.0600
879.00,3.9642
878.00,3.9549
877.00,4.0781
876.00,4.3577
875.00,4.2673
874.00,4.0541
873.00,3.9987
872.00,3.9686
871.00,3.9370
870.00,3.9468
869.00,4.0696
868.00,4.2381
867.00,4.2306
866.00,4.2345
865.00,4.3629
864.00,4.4123
863.00,4.2799
862.00,4.1637
861.00,4.0165
860.00,3.8735
859.00,3.8373
858.00,3.9133
857.00,4.0635
856.00,4.1910
855.00,4.1886
854.00,4.0570
853.00,3.9105
852.00,3.8290
851.00,3.8294
850.00,3.8840
849.00,3.9476
848.00,3.9599
847.00,3.9362
846.00,3.9334
845.00,4.0912
844.00,4.6172
843.00,4.5586
842.00,4.2725
841.00,4.3047
840.00,4.2666
839.00,4.0631
838.00,3.9122
837.00,3.9022
836.00,4.0112
835.00,4.0634
834.00,3.9980
833.00,3.9955
832.00,4.0981
831.00,4.2221
830.00,4.3187
829.00,4.3204
828.00,4.4831
827.00,4.6080
826.00,4.0240
825.00,3.7776
824.00,3.7408
823.00,3.8451
822.00,4.0511
821.00,4.1685
820.00,4.1894
819.00,4.1573
818.00,4.0310
817.00,3.8839
816.00,3.8092
815.00,3.8151
814.00,3.8551
813.00,3.8574
812.00,3.8209
811.00,3.8238
810.00,3.8859
809.00,3.9286
808.00,3.9502
807.00,4.0381
806.00,4.1080
805.00,4.0443
804.00,4.0254
803.00,4.1144
802.00,4.3288
801.00,4.6790
800.00,4.6021
799.00,4.4089
798.00,4.2417
797.00,4.0838
796.00,4.0747
795.00,4.2380
794.00,4.5656
793.00,4.8141
792.00,4.6786
791.00,4.5033
790.00,4.6129
789.00,4.6150
788.00,4.1135
787.00,3.8669
786.00,3.8145
785.00,3.9062
784.00,4.1262
783.00,4.3635
782.00,4.5781
781.00,4.7563
780.00,4.6635
779.00,4.4289
778.00,4.1871
777.00,4.0600
776.00,3.9898
775.00,3.9040
774.00,3.8330
773.00,3.8122
772.00,3.8563
771.00,3.9399
770.00,3.9959
769.00,4.0238
768.00,4.0805
767.00,4.1197
766.00,4.1285
765.00,4.1840
764.00,4.3092
763.00,4.3931
762.00,4.2900
761.00,4.2390
760.00,4.2900
759.00,4.2375
758.00,4.1554
757.00,4.1426
756.00,4.1179
755.00,4.0863
754.00,4.1029
753.00,4.2279
752.00,4.4997
751.00,4.5704
750.00,4.5097
749.00,4.3990
748.00,4.1596
747.00,4.0439
746.00,4.0085
745.00,3.9491
744.00,3.8826
743.00,3.8855
742.00,3.9881
741.00,4.1940
740.00,4.4626
739.00,4.4055
738.00,4.1942
737.00,4.1176
736.00,4.0938
735.00,4.0269
734.00,3.9731
733.00,3.9698
732.00,3.9317
731.00,3.8524
730.00,3.8204
729.00,3.8585
728.00,3.9843
727.00,4.1867
726.00,4.4586
725.00,4.5208
724.00,4.1379
723.00,3.9519
722.00,3.9465
721.00,4.0627
720.00,4.1004
719.00,3.9558
718.00,3.8730
717.00,3.8787
716.00,3.9394
715.00,4.0140
714.00,4.0709
713.00,4.0638
712.00,3.9555
711.00,3.8291
710.00,3.7529
709.00,3.7563
708.00,3.8647
707.00,4.1306
706.00,4.3243
705.00,4.2574
704.00,4.3977
703.00,4.2732
702.00,3.9921
701.00,3.9203
700.00,4.0194
