Created as New Dataset,Sample 160 By Administrator Date Thursday, November 25 2021
cm-1,A
7000.00,0.7774
6999.00,0.7749
6998.00,0.7727
6997.00,0.7704
6996.00,0.7681
6995.00,0.7657
6994.00,0.7635
6993.00,0.7614
6992.00,0.7594
6991.00,0.7575
6990.00,0.7557
6989.00,0.7541
6988.00,0.7525
6987.00,0.7507
6986.00,0.7487
6985.00,0.7466
6984.00,0.7447
6983.00,0.7430
6982.00,0.7416
6981.00,0.7404
6980.00,0.7393
6979.00,0.7383
6978.00,0.7373
6977.00,0.7363
6976.00,0.7353
6975.00,0.7343
6974.00,0.7333
6973.00,0.7325
6972.00,0.7319
6971.00,0.7313
6970.00,0.7308
6969.00,0.7303
6968.00,0.7297
6967.00,0.7291
6966.00,0.7286
6965.00,0.7284
6964.00,0.7283
6963.00,0.7282
6962.00,0.7284
6961.00,0.7287
6960.00,0.7289
6959.00,0.7290
6958.00,0.7292
6957.00,0.7295
6956.00,0.7300
6955.00,0.7305
6954.00,0.7312
6953.00,0.7321
6952.00,0.7332
6951.00,0.7341
6950.00,0.7350
6949.00,0.7360
6948.00,0.7371
6947.00,0.7385
6946.00,0.7398
6945.00,0.7412
6944.00,0.7428
6943.00,0.7445
6942.00,0.7464
6941.00,0.7484
6940.00,0.7502
6939.00,0.7519
6938.00,0.7538
6937.00,0.7558
6936.00,0.7578
6935.00,0.7599
6934.00,0.7620
6933.00,0.7643
6932.00,0.7666
6931.00,0.7688
6930.00,0.7711
6929.00,0.7735
6928.00,0.7761
6927.00,0.7788
6926.00,0.7815
6925.00,0.7844
6924.00,0.7874
6923.00,0.7905
6922.00,0.7936
6921.00,0.7967
6920.00,0.7998
6919.00,0.8029
6918.00,0.8063
6917.00,0.8098
6916.00,0.8133
6915.00,0.8167
6914.00,0.8200
6913.00,0.8233
6912.00,0.8266
6911.00,0.8298
6910.00,0.8331
6909.00,0.8365
6908.00,0.8401
6907.00,0.8439
6906.00,0.8480
6905.00,0.8521
6904.00,0.8561
6903.00,0.8599
6902.00,0.8636
6901.00,0.8673
6900.00,0.8709
6899.00,0.8745
6898.00,0.8783
6897.00,0.8824
6896.00,0.8867
6895.00,0.8910
6894.00,0.8952
6893.00,0.8995
6892.00,0.9038
6891.00,0.9082
6890.00,0.9125
6889.00,0.9168
6888.00,0.9209
6887.00,0.9248
6886.00,0.9287
6885.00,0.9326
6884.00,0.9364
6883.00,0.9402
6882.00,0.9443
6881.00,0.9486
6880.00,0.9531
6879.00,0.9574
6878.00,0.9614
6877.00,0.9654
6876.00,0.9692
6875.00,0.9729
6874.00,0.9767
6873.00,0.9809
6872.00,0.9854
6871.00,0.9900
6870.00,0.9944
6869.00,0.9986
6868.00,1.0027
6867.00,1.0066
6866.00,1.0103
6865.00,1.0140
6864.00,1.0177
6863.00,1.0215
6862.00,1.0253
6861.00,1.0292
6860.00,1.0332
6859.00,1.0372
6858.00,1.0409
6857.00,1.0446
6856.00,1.0483
6855.00,1.0521
6854.00,1.0557
6853.00,1.0590
6852.00,1.0623
6851.00,1.0657
6850.00,1.0695
6849.00,1.0733
6848.00,1.0772
6847.00,1.0809
6846.00,1.0846
6845.00,1.0881
6844.00,1.0913
6843.00,1.0945
6842.00,1.0977
6841.00,1.1010
6840.00,1.1045
6839.00,1.1081
6838.00,1.1116
6837.00,1.1148
6836.00,1.1178
6835.00,1.1207
6834.00,1.1236
6833.00,1.1265
6832.00,1.1293
6831.00,1.1320
6830.00,1.1349
6829.00,1.1382
6828.00,1.1414
6827.00,1.1442
6826.00,1.1467
6825.00,1.1493
6824.00,1.1522
6823.00,1.1552
6822.00,1.1580
6821.00,1.1603
6820.00,1.1624
6819.00,1.1647
6818.00,1.1673
6817.00,1.1699
6816.00,1.1719
6815.00,1.1736
6814.00,1.1754
6813.00,1.1775
6812.00,1.1795
6811.00,1.1813
6810.00,1.1828
6809.00,1.1845
6808.00,1.1865
6807.00,1.1886
6806.00,1.1905
6805.00,1.1924
6804.00,1.1942
6803.00,1.1958
6802.00,1.1972
6801.00,1.1988
6800.00,1.2003
6799.00,1.2018
6798.00,1.2033
6797.00,1.2047
6796.00,1.2060
6795.00,1.2071
6794.00,1.2081
6793.00,1.2092
6792.00,1.2106
6791.00,1.2123
6790.00,1.2140
6789.00,1.2158
6788.00,1.2176
6787.00,1.2193
6786.00,1.2207
6785.00,1.2216
6784.00,1.2222
6783.00,1.2227
6782.00,1.2233
6781.00,1.2238
6780.00,1.2244
6779.00,1.2249
6778.00,1.2254
6777.00,1.2259
6776.00,1.2261
6775.00,1.2262
6774.00,1.2262
6773.00,1.2262
6772.00,1.2263
6771.00,1.2264
6770.00,1.2265
6769.00,1.2265
6768.00,1.2264
6767.00,1.2265
6766.00,1.2267
6765.00,1.2271
6764.00,1.2276
6763.00,1.2280
6762.00,1.2282
6761.00,1.2283
6760.00,1.2281
6759.00,1.2277
6758.00,1.2275
6757.00,1.2278
6756.00,1.2283
6755.00,1.2285
6754.00,1.2284
6753.00,1.2279
6752.00,1.2269
6751.00,1.2255
6750.00,1.2239
6749.00,1.2228
6748.00,1.2222
6747.00,1.2218
6746.00,1.2213
6745.00,1.2208
6744.00,1.2200
6743.00,1.2187
6742.00,1.2171
6741.00,1.2155
6740.00,1.2142
6739.00,1.2133
6738.00,1.2126
6737.00,1.2119
6736.00,1.2111
6735.00,1.2099
6734.00,1.2085
6733.00,1.2070
6732.00,1.2056
6731.00,1.2041
6730.00,1.2025
6729.00,1.2011
6728.00,1.1999
6727.00,1.1987
6726.00,1.1972
6725.00,1.1953
6724.00,1.1932
6723.00,1.1913
6722.00,1.1894
6721.00,1.1874
6720.00,1.1852
6719.00,1.1829
6718.00,1.1808
6717.00,1.1790
6716.00,1.1770
6715.00,1.1749
6714.00,1.1728
6713.00,1.1708
6712.00,1.1687
6711.00,1.1662
6710.00,1.1636
6709.00,1.1611
6708.00,1.1587
6707.00,1.1564
6706.00,1.1542
6705.00,1.1521
6704.00,1.1499
6703.00,1.1473
6702.00,1.1444
6701.00,1.1414
6700.00,1.1384
6699.00,1.1353
6698.00,1.1322
6697.00,1.1293
6696.00,1.1265
6695.00,1.1237
6694.00,1.1208
6693.00,1.1179
6692.00,1.1151
6691.00,1.1123
6690.00,1.1092
6689.00,1.1058
6688.00,1.1023
6687.00,1.0986
6686.00,1.0950
6685.00,1.0915
6684.00,1.0880
6683.00,1.0848
6682.00,1.0818
6681.00,1.0789
6680.00,1.0759
6679.00,1.0726
6678.00,1.0693
6677.00,1.0661
6676.00,1.0630
6675.00,1.0596
6674.00,1.0559
6673.00,1.0519
6672.00,1.0478
6671.00,1.0436
6670.00,1.0394
6669.00,1.0355
6668.00,1.0319
6667.00,1.0286
6666.00,1.0255
6665.00,1.0223
6664.00,1.0189
6663.00,1.0153
6662.00,1.0115
6661.00,1.0076
6660.00,1.0037
6659.00,0.9997
6658.00,0.9958
6657.00,0.9921
6656.00,0.9883
6655.00,0.9844
6654.00,0.9804
6653.00,0.9764
6652.00,0.9724
6651.00,0.9683
6650.00,0.9642
6649.00,0.9601
6648.00,0.9563
6647.00,0.9526
6646.00,0.9490
6645.00,0.9455
6644.00,0.9420
6643.00,0.9384
6642.00,0.9348
6641.00,0.9311
6640.00,0.9273
6639.00,0.9236
6638.00,0.9200
6637.00,0.9162
6636.00,0.9124
6635.00,0.9086
6634.00,0.9047
6633.00,0.9009
6632.00,0.8970
6631.00,0.8931
6630.00,0.8893
6629.00,0.8857
6628.00,0.8823
6627.00,0.8789
6626.00,0.8754
6625.00,0.8718
6624.00,0.8684
6623.00,0.8650
6622.00,0.8617
6621.00,0.8583
6620.00,0.8549
6619.00,0.8517
6618.00,0.8485
6617.00,0.8454
6616.00,0.8422
6615.00,0.8388
6614.00,0.8355
6613.00,0.8323
6612.00,0.8292
6611.00,0.8262
6610.00,0.8231
6609.00,0.8201
6608.00,0.8172
6607.00,0.8143
6606.00,0.8114
6605.00,0.8087
6604.00,0.8060
6603.00,0.8032
6602.00,0.8006
6601.00,0.7981
6600.00,0.7957
6599.00,0.7934
6598.00,0.7912
6597.00,0.7892
6596.00,0.7872
6595.00,0.7851
6594.00,0.7830
6593.00,0.7810
6592.00,0.7790
6591.00,0.7769
6590.00,0.7749
6589.00,0.7730
6588.00,0.7714
6587.00,0.7698
6586.00,0.7683
6585.00,0.7669
6584.00,0.7656
6583.00,0.7645
6582.00,0.7633
6581.00,0.7621
6580.00,0.7609
6579.00,0.7597
6578.00,0.7587
6577.00,0.7579
6576.00,0.7572
6575.00,0.7567
6574.00,0.7563
6573.00,0.7562
6572.00,0.7562
6571.00,0.7562
6570.00,0.7562
6569.00,0.7563
6568.00,0.7565
6567.00,0.7567
6566.00,0.7570
6565.00,0.7574
6564.00,0.7578
6563.00,0.7583
6562.00,0.7589
6561.00,0.7596
6560.00,0.7605
6559.00,0.7614
6558.00,0.7625
6557.00,0.7637
6556.00,0.7650
6555.00,0.7664
6554.00,0.7678
6553.00,0.7694
6552.00,0.7711
6551.00,0.7730
6550.00,0.7751
6549.00,0.7772
6548.00,0.7793
6547.00,0.7814
6546.00,0.7835
6545.00,0.7856
6544.00,0.7878
6543.00,0.7900
6542.00,0.7925
6541.00,0.7953
6540.00,0.7982
6539.00,0.8011
6538.00,0.8042
6537.00,0.8072
6536.00,0.8103
6535.00,0.8134
6534.00,0.8166
6533.00,0.8198
6532.00,0.8230
6531.00,0.8263
6530.00,0.8296
6529.00,0.8331
6528.00,0.8366
6527.00,0.8402
6526.00,0.8439
6525.00,0.8478
6524.00,0.8517
6523.00,0.8555
6522.00,0.8594
6521.00,0.8634
6520.00,0.8674
6519.00,0.8714
6518.00,0.8753
6517.00,0.8793
6516.00,0.8833
6515.00,0.8874
6514.00,0.8915
6513.00,0.8955
6512.00,0.8997
6511.00,0.9039
6510.00,0.9082
6509.00,0.9125
6508.00,0.9168
6507.00,0.9211
6506.00,0.9256
6505.00,0.9302
6504.00,0.9347
6503.00,0.9391
6502.00,0.9434
6501.00,0.9477
6500.00,0.9521
6499.00,0.9564
6498.00,0.9607
6497.00,0.9650
6496.00,0.9693
6495.00,0.9737
6494.00,0.9780
6493.00,0.9823
6492.00,0.9867
6491.00,0.9910
6490.00,0.9953
6489.00,0.9996
6488.00,1.0040
6487.00,1.0083
6486.00,1.0126
6485.00,1.0170
6484.00,1.0215
6483.00,1.0259
6482.00,1.0303
6481.00,1.0346
6480.00,1.0388
6479.00,1.0427
6478.00,1.0465
6477.00,1.0502
6476.00,1.0540
6475.00,1.0581
6474.00,1.0622
6473.00,1.0664
6472.00,1.0704
6471.00,1.0742
6470.00,1.0779
6469.00,1.0815
6468.00,1.0852
6467.00,1.0889
6466.00,1.0927
6465.00,1.0965
6464.00,1.1003
6463.00,1.1039
6462.00,1.1076
6461.00,1.1112
6460.00,1.1146
6459.00,1.1180
6458.00,1.1215
6457.00,1.1252
6456.00,1.1289
6455.00,1.1324
6454.00,1.1357
6453.00,1.1389
6452.00,1.1421
6451.00,1.1453
6450.00,1.1484
6449.00,1.1515
6448.00,1.1546
6447.00,1.1577
6446.00,1.1608
6445.00,1.1638
6444.00,1.1668
6443.00,1.1697
6442.00,1.1726
6441.00,1.1756
6440.00,1.1783
6439.00,1.1808
6438.00,1.1832
6437.00,1.1855
6436.00,1.1876
6435.00,1.1898
6434.00,1.1923
6433.00,1.1952
6432.00,1.1981
6431.00,1.2007
6430.00,1.2029
6429.00,1.2051
6428.00,1.2073
6427.00,1.2093
6426.00,1.2111
6425.00,1.2129
6424.00,1.2148
6423.00,1.2166
6422.00,1.2182
6421.00,1.2197
6420.00,1.2211
6419.00,1.2226
6418.00,1.2243
6417.00,1.2261
6416.00,1.2279
6415.00,1.2295
6414.00,1.2310
6413.00,1.2323
6412.00,1.2336
6411.00,1.2351
6410.00,1.2368
6409.00,1.2384
6408.00,1.2399
6407.00,1.2410
6406.00,1.2419
6405.00,1.2428
6404.00,1.2436
6403.00,1.2445
6402.00,1.2454
6401.00,1.2464
6400.00,1.2473
6399.00,1.2481
6398.00,1.2487
6397.00,1.2493
6396.00,1.2498
6395.00,1.2504
6394.00,1.2510
6393.00,1.2517
6392.00,1.2522
6391.00,1.2523
6390.00,1.2523
6389.00,1.2526
6388.00,1.2531
6387.00,1.2535
6386.00,1.2538
6385.00,1.2541
6384.00,1.2543
6383.00,1.2543
6382.00,1.2542
6381.00,1.2541
6380.00,1.2539
6379.00,1.2537
6378.00,1.2536
6377.00,1.2535
6376.00,1.2533
6375.00,1.2531
6374.00,1.2528
6373.00,1.2527
6372.00,1.2526
6371.00,1.2523
6370.00,1.2517
6369.00,1.2509
6368.00,1.2501
6367.00,1.2495
6366.00,1.2488
6365.00,1.2480
6364.00,1.2471
6363.00,1.2462
6362.00,1.2450
6361.00,1.2438
6360.00,1.2424
6359.00,1.2412
6358.00,1.2401
6357.00,1.2389
6356.00,1.2375
6355.00,1.2359
6354.00,1.2341
6353.00,1.2324
6352.00,1.2309
6351.00,1.2298
6350.00,1.2289
6349.00,1.2279
6348.00,1.2266
6347.00,1.2250
6346.00,1.2231
6345.00,1.2209
6344.00,1.2183
6343.00,1.2158
6342.00,1.2137
6341.00,1.2118
6340.00,1.2099
6339.00,1.2076
6338.00,1.2053
6337.00,1.2031
6336.00,1.2010
6335.00,1.1990
6334.00,1.1970
6333.00,1.1950
6332.00,1.1929
6331.00,1.1907
6330.00,1.1882
6329.00,1.1855
6328.00,1.1826
6327.00,1.1798
6326.00,1.1772
6325.00,1.1748
6324.00,1.1722
6323.00,1.1694
6322.00,1.1664
6321.00,1.1633
6320.00,1.1602
6319.00,1.1571
6318.00,1.1542
6317.00,1.1514
6316.00,1.1484
6315.00,1.1452
6314.00,1.1418
6313.00,1.1384
6312.00,1.1348
6311.00,1.1310
6310.00,1.1274
6309.00,1.1241
6308.00,1.1210
6307.00,1.1179
6306.00,1.1149
6305.00,1.1118
6304.00,1.1084
6303.00,1.1047
6302.00,1.1010
6301.00,1.0972
6300.00,1.0934
6299.00,1.0895
6298.00,1.0857
6297.00,1.0820
6296.00,1.0783
6295.00,1.0744
6294.00,1.0706
6293.00,1.0668
6292.00,1.0630
6291.00,1.0591
6290.00,1.0550
6289.00,1.0510
6288.00,1.0470
6287.00,1.0430
6286.00,1.0390
6285.00,1.0350
6284.00,1.0310
6283.00,1.0268
6282.00,1.0225
6281.00,1.0181
6280.00,1.0137
6279.00,1.0094
6278.00,1.0053
6277.00,1.0013
6276.00,0.9973
6275.00,0.9932
6274.00,0.9890
6273.00,0.9847
6272.00,0.9804
6271.00,0.9762
6270.00,0.9720
6269.00,0.9680
6268.00,0.9640
6267.00,0.9599
6266.00,0.9558
6265.00,0.9517
6264.00,0.9474
6263.00,0.9431
6262.00,0.9389
6261.00,0.9349
6260.00,0.9309
6259.00,0.9269
6258.00,0.9228
6257.00,0.9189
6256.00,0.9149
6255.00,0.9107
6254.00,0.9065
6253.00,0.9025
6252.00,0.8986
6251.00,0.8949
6250.00,0.8912
6249.00,0.8875
6248.00,0.8837
6247.00,0.8798
6246.00,0.8759
6245.00,0.8720
6244.00,0.8681
6243.00,0.8642
6242.00,0.8605
6241.00,0.8570
6240.00,0.8535
6239.00,0.8499
6238.00,0.8464
6237.00,0.8429
6236.00,0.8395
6235.00,0.8360
6234.00,0.8326
6233.00,0.8292
6232.00,0.8258
6231.00,0.8224
6230.00,0.8192
6229.00,0.8162
6228.00,0.8132
6227.00,0.8101
6226.00,0.8071
6225.00,0.8040
6224.00,0.8009
6223.00,0.7978
6222.00,0.7948
6221.00,0.7921
6220.00,0.7894
6219.00,0.7868
6218.00,0.7842
6217.00,0.7816
6216.00,0.7791
6215.00,0.7765
6214.00,0.7740
6213.00,0.7715
6212.00,0.7691
6211.00,0.7667
6210.00,0.7645
6209.00,0.7623
6208.00,0.7601
6207.00,0.7579
6206.00,0.7558
6205.00,0.7538
6204.00,0.7520
6203.00,0.7502
6202.00,0.7484
6201.00,0.7468
6200.00,0.7453
6199.00,0.7439
6198.00,0.7424
6197.00,0.7410
6196.00,0.7397
6195.00,0.7384
6194.00,0.7372
6193.00,0.7362
6192.00,0.7354
6191.00,0.7346
6190.00,0.7339
6189.00,0.7333
6188.00,0.7327
6187.00,0.7322
6186.00,0.7317
6185.00,0.7314
6184.00,0.7312
6183.00,0.7311
6182.00,0.7312
6181.00,0.7314
6180.00,0.7316
6179.00,0.7319
6178.00,0.7322
6177.00,0.7327
6176.00,0.7334
6175.00,0.7342
6174.00,0.7350
6173.00,0.7360
6172.00,0.7371
6171.00,0.7383
6170.00,0.7396
6169.00,0.7411
6168.00,0.7428
6167.00,0.7445
6166.00,0.7464
6165.00,0.7483
6164.00,0.7502
6163.00,0.7522
6162.00,0.7544
6161.00,0.7567
6160.00,0.7592
6159.00,0.7616
6158.00,0.7642
6157.00,0.7669
6156.00,0.7697
6155.00,0.7725
6154.00,0.7754
6153.00,0.7785
6152.00,0.7816
6151.00,0.7848
6150.00,0.7881
6149.00,0.7915
6148.00,0.7951
6147.00,0.7989
6146.00,0.8027
6145.00,0.8065
6144.00,0.8103
6143.00,0.8142
6142.00,0.8182
6141.00,0.8223
6140.00,0.8264
6139.00,0.8306
6138.00,0.8349
6137.00,0.8393
6136.00,0.8435
6135.00,0.8477
6134.00,0.8518
6133.00,0.8560
6132.00,0.8602
6131.00,0.8645
6130.00,0.8689
6129.00,0.8736
6128.00,0.8783
6127.00,0.8830
6126.00,0.8876
6125.00,0.8923
6124.00,0.8971
6123.00,0.9020
6122.00,0.9069
6121.00,0.9118
6120.00,0.9168
6119.00,0.9218
6118.00,0.9266
6117.00,0.9313
6116.00,0.9360
6115.00,0.9408
6114.00,0.9454
6113.00,0.9502
6112.00,0.9550
6111.00,0.9600
6110.00,0.9649
6109.00,0.9700
6108.00,0.9751
6107.00,0.9803
6106.00,0.9853
6105.00,0.9902
6104.00,0.9949
6103.00,0.9995
6102.00,1.0040
6101.00,1.0087
6100.00,1.0133
6099.00,1.0180
6098.00,1.0229
6097.00,1.0277
6096.00,1.0324
6095.00,1.0370
6094.00,1.0415
6093.00,1.0462
6092.00,1.0509
6091.00,1.0556
6090.00,1.0603
6089.00,1.0651
6088.00,1.0698
6087.00,1.0744
6086.00,1.0786
6085.00,1.0827
6084.00,1.0868
6083.00,1.0910
6082.00,1.0953
6081.00,1.0996
6080.00,1.1040
6079.00,1.1084
6078.00,1.1128
6077.00,1.1171
6076.00,1.1211
6075.00,1.1250
6074.00,1.1288
6073.00,1.1328
6072.00,1.1367
6071.00,1.1406
6070.00,1.1444
6069.00,1.1482
6068.00,1.1521
6067.00,1.1560
6066.00,1.1597
6065.00,1.1634
6064.00,1.1671
6063.00,1.1707
6062.00,1.1744
6061.00,1.1781
6060.00,1.1818
6059.00,1.1854
6058.00,1.1890
6057.00,1.1925
6056.00,1.1958
6055.00,1.1989
6054.00,1.2018
6053.00,1.2046
6052.00,1.2075
6051.00,1.2104
6050.00,1.2132
6049.00,1.2160
6048.00,1.2189
6047.00,1.2219
6046.00,1.2248
6045.00,1.2275
6044.00,1.2302
6043.00,1.2330
6042.00,1.2358
6041.00,1.2385
6040.00,1.2412
6039.00,1.2436
6038.00,1.2461
6037.00,1.2485
6036.00,1.2508
6035.00,1.2531
6034.00,1.2554
6033.00,1.2579
6032.00,1.2603
6031.00,1.2624
6030.00,1.2643
6029.00,1.2661
6028.00,1.2677
6027.00,1.2692
6026.00,1.2708
6025.00,1.2726
6024.00,1.2747
6023.00,1.2768
6022.00,1.2787
6021.00,1.2803
6020.00,1.2816
6019.00,1.2826
6018.00,1.2834
6017.00,1.2843
6016.00,1.2854
6015.00,1.2867
6014.00,1.2883
6013.00,1.2899
6012.00,1.2913
6011.00,1.2924
6010.00,1.2933
6009.00,1.2941
6008.00,1.2951
6007.00,1.2961
6006.00,1.2972
6005.00,1.2980
6004.00,1.2988
6003.00,1.2994
6002.00,1.3000
6001.00,1.3006
6000.00,1.3014
5999.00,1.3022
5998.00,1.3031
5997.00,1.3041
5996.00,1.3049
5995.00,1.3054
5994.00,1.3059
5993.00,1.3062
5992.00,1.3065
5991.00,1.3065
5990.00,1.3065
5989.00,1.3063
5988.00,1.3061
5987.00,1.3057
5986.00,1.3053
5985.00,1.3049
5984.00,1.3045
5983.00,1.3040
5982.00,1.3035
5981.00,1.3032
5980.00,1.3032
5979.00,1.3032
5978.00,1.3032
5977.00,1.3030
5976.00,1.3025
5975.00,1.3018
5974.00,1.3010
5973.00,1.3001
5972.00,1.2992
5971.00,1.2982
5970.00,1.2972
5969.00,1.2964
5968.00,1.2955
5967.00,1.2945
5966.00,1.2934
5965.00,1.2926
5964.00,1.2919
5963.00,1.2911
5962.00,1.2899
5961.00,1.2885
5960.00,1.2871
5959.00,1.2854
5958.00,1.2837
5957.00,1.2820
5956.00,1.2803
5955.00,1.2787
5954.00,1.2772
5953.00,1.2759
5952.00,1.2746
5951.00,1.2732
5950.00,1.2715
5949.00,1.2695
5948.00,1.2674
5947.00,1.2652
5946.00,1.2631
5945.00,1.2610
5944.00,1.2591
5943.00,1.2571
5942.00,1.2550
5941.00,1.2527
5940.00,1.2502
5939.00,1.2478
5938.00,1.2456
5937.00,1.2435
5936.00,1.2414
5935.00,1.2391
5934.00,1.2367
5933.00,1.2342
5932.00,1.2317
5931.00,1.2291
5930.00,1.2265
5929.00,1.2239
5928.00,1.2212
5927.00,1.2183
5926.00,1.2152
5925.00,1.2120
5924.00,1.2088
5923.00,1.2055
5922.00,1.2022
5921.00,1.1989
5920.00,1.1956
5919.00,1.1924
5918.00,1.1893
5917.00,1.1861
5916.00,1.1829
5915.00,1.1794
5914.00,1.1759
5913.00,1.1722
5912.00,1.1684
5911.00,1.1645
5910.00,1.1608
5909.00,1.1573
5908.00,1.1538
5907.00,1.1500
5906.00,1.1462
5905.00,1.1425
5904.00,1.1388
5903.00,1.1351
5902.00,1.1312
5901.00,1.1273
5900.00,1.1234
5899.00,1.1195
5898.00,1.1154
5897.00,1.1113
5896.00,1.1071
5895.00,1.1028
5894.00,1.0985
5893.00,1.0942
5892.00,1.0899
5891.00,1.0856
5890.00,1.0813
5889.00,1.0770
5888.00,1.0727
5887.00,1.0683
5886.00,1.0638
5885.00,1.0593
5884.00,1.0549
5883.00,1.0504
5882.00,1.0458
5881.00,1.0412
5880.00,1.0366
5879.00,1.0319
5878.00,1.0273
5877.00,1.0227
5876.00,1.0182
5875.00,1.0137
5874.00,1.0092
5873.00,1.0047
5872.00,1.0001
5871.00,0.9956
5870.00,0.9910
5869.00,0.9866
5868.00,0.9820
5867.00,0.9774
5866.00,0.9728
5865.00,0.9684
5864.00,0.9639
5863.00,0.9594
5862.00,0.9549
5861.00,0.9504
5860.00,0.9459
5859.00,0.9413
5858.00,0.9366
5857.00,0.9320
5856.00,0.9274
5855.00,0.9229
5854.00,0.9184
5853.00,0.9140
5852.00,0.9096
5851.00,0.9052
5850.00,0.9008
5849.00,0.8965
5848.00,0.8922
5847.00,0.8880
5846.00,0.8838
5845.00,0.8797
5844.00,0.8755
5843.00,0.8712
5842.00,0.8669
5841.00,0.8629
5840.00,0.8589
5839.00,0.8549
5838.00,0.8509
5837.00,0.8470
5836.00,0.8432
5835.00,0.8393
5834.00,0.8354
5833.00,0.8316
5832.00,0.8279
5831.00,0.8242
5830.00,0.8206
5829.00,0.8171
5828.00,0.8138
5827.00,0.8105
5826.00,0.8073
5825.00,0.8041
5824.00,0.8010
5823.00,0.7979
5822.00,0.7949
5821.00,0.7921
5820.00,0.7892
5819.00,0.7864
5818.00,0.7837
5817.00,0.7811
5816.00,0.7784
5815.00,0.7758
5814.00,0.7733
5813.00,0.7709
5812.00,0.7687
5811.00,0.7665
5810.00,0.7644
5809.00,0.7625
5808.00,0.7607
5807.00,0.7589
5806.00,0.7572
5805.00,0.7556
5804.00,0.7541
5803.00,0.7529
5802.00,0.7517
5801.00,0.7507
5800.00,0.7497
5799.00,0.7486
5798.00,0.7477
5797.00,0.7469
5796.00,0.7463
5795.00,0.7458
5794.00,0.7455
5793.00,0.7453
5792.00,0.7453
5791.00,0.7453
5790.00,0.7455
5789.00,0.7458
5788.00,0.7463
5787.00,0.7469
5786.00,0.7476
5785.00,0.7484
5784.00,0.7493
5783.00,0.7504
5782.00,0.7516
5781.00,0.7530
5780.00,0.7546
5779.00,0.7563
5778.00,0.7581
5777.00,0.7600
5776.00,0.7620
5775.00,0.7641
5774.00,0.7664
5773.00,0.7688
5772.00,0.7714
5771.00,0.7741
5770.00,0.7770
5769.00,0.7800
5768.00,0.7831
5767.00,0.7862
5766.00,0.7894
5765.00,0.7927
5764.00,0.7962
5763.00,0.7998
5762.00,0.8035
5761.00,0.8072
5760.00,0.8110
5759.00,0.8149
5758.00,0.8189
5757.00,0.8231
5756.00,0.8275
5755.00,0.8319
5754.00,0.8364
5753.00,0.8410
5752.00,0.8456
5751.00,0.8502
5750.00,0.8549
5749.00,0.8596
5748.00,0.8642
5747.00,0.8689
5746.00,0.8737
5745.00,0.8786
5744.00,0.8836
5743.00,0.8887
5742.00,0.8938
5741.00,0.8990
5740.00,0.9041
5739.00,0.9092
5738.00,0.9143
5737.00,0.9194
5736.00,0.9246
5735.00,0.9298
5734.00,0.9350
5733.00,0.9401
5732.00,0.9452
5731.00,0.9503
5730.00,0.9554
5729.00,0.9606
5728.00,0.9658
5727.00,0.9709
5726.00,0.9761
5725.00,0.9813
5724.00,0.9866
5723.00,0.9920
5722.00,0.9974
5721.00,1.0028
5720.00,1.0082
5719.00,1.0134
5718.00,1.0185
5717.00,1.0236
5716.00,1.0286
5715.00,1.0336
5714.00,1.0387
5713.00,1.0439
5712.00,1.0491
5711.00,1.0542
5710.00,1.0594
5709.00,1.0645
5708.00,1.0696
5707.00,1.0746
5706.00,1.0795
5705.00,1.0843
5704.00,1.0890
5703.00,1.0936
5702.00,1.0982
5701.00,1.1030
5700.00,1.1078
5699.00,1.1126
5698.00,1.1172
5697.00,1.1217
5696.00,1.1261
5695.00,1.1305
5694.00,1.1348
5693.00,1.1392
5692.00,1.1437
5691.00,1.1483
5690.00,1.1528
5689.00,1.1572
5688.00,1.1617
5687.00,1.1663
5686.00,1.1709
5685.00,1.1754
5684.00,1.1796
5683.00,1.1836
5682.00,1.1874
5681.00,1.1913
5680.00,1.1952
5679.00,1.1993
5678.00,1.2034
5677.00,1.2074
5676.00,1.2113
5675.00,1.2151
5674.00,1.2189
5673.00,1.2227
5672.00,1.2264
5671.00,1.2301
5670.00,1.2336
5669.00,1.2369
5668.00,1.2400
5667.00,1.2432
5666.00,1.2465
5665.00,1.2501
5664.00,1.2538
5663.00,1.2574
5662.00,1.2607
5661.00,1.2638
5660.00,1.2667
5659.00,1.2695
5658.00,1.2722
5657.00,1.2749
5656.00,1.2777
5655.00,1.2804
5654.00,1.2830
5653.00,1.2857
5652.00,1.2883
5651.00,1.2910
5650.00,1.2936
5649.00,1.2960
5648.00,1.2982
5647.00,1.3001
5646.00,1.3020
5645.00,1.3040
5644.00,1.3064
5643.00,1.3089
5642.00,1.3114
5641.00,1.3139
5640.00,1.3162
5639.00,1.3182
5638.00,1.3200
5637.00,1.3216
5636.00,1.3232
5635.00,1.3247
5634.00,1.3263
5633.00,1.3279
5632.00,1.3294
5631.00,1.3310
5630.00,1.3326
5629.00,1.3342
5628.00,1.3358
5627.00,1.3372
5626.00,1.3384
5625.00,1.3395
5624.00,1.3405
5623.00,1.3414
5622.00,1.3423
5621.00,1.3434
5620.00,1.3446
5619.00,1.3459
5618.00,1.3471
5617.00,1.3482
5616.00,1.3489
5615.00,1.3494
5614.00,1.3499
5613.00,1.3504
5612.00,1.3512
5611.00,1.3519
5610.00,1.3527
5609.00,1.3534
5608.00,1.3538
5607.00,1.3540
5606.00,1.3542
5605.00,1.3545
5604.00,1.3550
5603.00,1.3555
5602.00,1.3558
5601.00,1.3559
5600.00,1.3557
5599.00,1.3553
5598.00,1.3548
5597.00,1.3544
5596.00,1.3542
5595.00,1.3541
5594.00,1.3540
5593.00,1.3539
5592.00,1.3538
5591.00,1.3536
5590.00,1.3533
5589.00,1.3530
5588.00,1.3526
5587.00,1.3520
5586.00,1.3514
5585.00,1.3506
5584.00,1.3496
5583.00,1.3486
5582.00,1.3475
5581.00,1.3464
5580.00,1.3455
5579.00,1.3446
5578.00,1.3438
5577.00,1.3428
5576.00,1.3417
5575.00,1.3404
5574.00,1.3390
5573.00,1.3377
5572.00,1.3366
5571.00,1.3355
5570.00,1.3345
5569.00,1.3333
5568.00,1.3317
5567.00,1.3300
5566.00,1.3280
5565.00,1.3260
5564.00,1.3240
5563.00,1.3219
5562.00,1.3198
5561.00,1.3177
5560.00,1.3156
5559.00,1.3137
5558.00,1.3119
5557.00,1.3101
5556.00,1.3082
5555.00,1.3062
5554.00,1.3039
5553.00,1.3015
5552.00,1.2991
5551.00,1.2966
5550.00,1.2941
5549.00,1.2917
5548.00,1.2892
5547.00,1.2867
5546.00,1.2841
5545.00,1.2814
5544.00,1.2786
5543.00,1.2758
5542.00,1.2729
5541.00,1.2699
5540.00,1.2669
5539.00,1.2638
5538.00,1.2607
5537.00,1.2575
5536.00,1.2542
5535.00,1.2508
5534.00,1.2475
5533.00,1.2442
5532.00,1.2409
5531.00,1.2374
5530.00,1.2338
5529.00,1.2301
5528.00,1.2266
5527.00,1.2231
5526.00,1.2195
5525.00,1.2158
5524.00,1.2121
5523.00,1.2082
5522.00,1.2042
5521.00,1.2003
5520.00,1.1964
5519.00,1.1925
5518.00,1.1886
5517.00,1.1844
5516.00,1.1802
5515.00,1.1758
5514.00,1.1714
5513.00,1.1670
5512.00,1.1626
5511.00,1.1582
5510.00,1.1539
5509.00,1.1495
5508.00,1.1451
5507.00,1.1405
5506.00,1.1358
5505.00,1.1311
5504.00,1.1264
5503.00,1.1217
5502.00,1.1171
5501.00,1.1124
5500.00,1.1076
5499.00,1.1026
5498.00,1.0975
5497.00,1.0926
5496.00,1.0877
5495.00,1.0829
5494.00,1.0781
5493.00,1.0733
5492.00,1.0683
5491.00,1.0631
5490.00,1.0578
5489.00,1.0525
5488.00,1.0472
5487.00,1.0420
5486.00,1.0367
5485.00,1.0315
5484.00,1.0262
5483.00,1.0209
5482.00,1.0157
5481.00,1.0105
5480.00,1.0053
5479.00,1.0002
5478.00,0.9951
5477.00,0.9900
5476.00,0.9849
5475.00,0.9796
5474.00,0.9743
5473.00,0.9690
5472.00,0.9637
5471.00,0.9584
5470.00,0.9531
5469.00,0.9479
5468.00,0.9427
5467.00,0.9375
5466.00,0.9322
5465.00,0.9270
5464.00,0.9220
5463.00,0.9170
5462.00,0.9119
5461.00,0.9070
5460.00,0.9019
5459.00,0.8968
5458.00,0.8917
5457.00,0.8866
5456.00,0.8816
5455.00,0.8765
5454.00,0.8715
5453.00,0.8665
5452.00,0.8617
5451.00,0.8571
5450.00,0.8525
5449.00,0.8481
5448.00,0.8436
5447.00,0.8391
5446.00,0.8346
5445.00,0.8302
5444.00,0.8258
5443.00,0.8215
5442.00,0.8171
5441.00,0.8128
5440.00,0.8085
5439.00,0.8043
5438.00,0.8002
5437.00,0.7963
5436.00,0.7926
5435.00,0.7889
5434.00,0.7853
5433.00,0.7817
5432.00,0.7780
5431.00,0.7744
5430.00,0.7710
5429.00,0.7676
5428.00,0.7644
5427.00,0.7612
5426.00,0.7581
5425.00,0.7552
5424.00,0.7524
5423.00,0.7498
5422.00,0.7472
5421.00,0.7448
5420.00,0.7425
5419.00,0.7404
5418.00,0.7384
5417.00,0.7365
5416.00,0.7349
5415.00,0.7333
5414.00,0.7317
5413.00,0.7303
5412.00,0.7288
5411.00,0.7275
5410.00,0.7263
5409.00,0.7253
5408.00,0.7244
5407.00,0.7236
5406.00,0.7231
5405.00,0.7229
5404.00,0.7228
5403.00,0.7229
5402.00,0.7232
5401.00,0.7235
5400.00,0.7240
5399.00,0.7247
5398.00,0.7255
5397.00,0.7266
5396.00,0.7279
5395.00,0.7293
5394.00,0.7307
5393.00,0.7322
5392.00,0.7338
5391.00,0.7356
5390.00,0.7376
5389.00,0.7398
5388.00,0.7422
5387.00,0.7447
5386.00,0.7475
5385.00,0.7504
5384.00,0.7535
5383.00,0.7566
5382.00,0.7600
5381.00,0.7634
5380.00,0.7670
5379.00,0.7706
5378.00,0.7744
5377.00,0.7783
5376.00,0.7823
5375.00,0.7864
5374.00,0.7906
5373.00,0.7950
5372.00,0.7995
5371.00,0.8041
5370.00,0.8088
5369.00,0.8135
5368.00,0.8184
5367.00,0.8234
5366.00,0.8285
5365.00,0.8337
5364.00,0.8390
5363.00,0.8443
5362.00,0.8497
5361.00,0.8551
5360.00,0.8607
5359.00,0.8663
5358.00,0.8720
5357.00,0.8777
5356.00,0.8834
5355.00,0.8891
5354.00,0.8950
5353.00,0.9010
5352.00,0.9068
5351.00,0.9127
5350.00,0.9184
5349.00,0.9242
5348.00,0.9299
5347.00,0.9356
5346.00,0.9416
5345.00,0.9476
5344.00,0.9538
5343.00,0.9600
5342.00,0.9661
5341.00,0.9721
5340.00,0.9781
5339.00,0.9840
5338.00,0.9899
5337.00,0.9960
5336.00,1.0019
5335.00,1.0078
5334.00,1.0137
5333.00,1.0195
5332.00,1.0252
5331.00,1.0310
5330.00,1.0368
5329.00,1.0426
5328.00,1.0483
5327.00,1.0540
5326.00,1.0598
5325.00,1.0655
5324.00,1.0712
5323.00,1.0769
5322.00,1.0826
5321.00,1.0883
5320.00,1.0939
5319.00,1.0995
5318.00,1.1051
5317.00,1.1106
5316.00,1.1161
5315.00,1.1216
5314.00,1.1270
5313.00,1.1324
5312.00,1.1377
5311.00,1.1429
5310.00,1.1480
5309.00,1.1532
5308.00,1.1586
5307.00,1.1640
5306.00,1.1695
5305.00,1.1749
5304.00,1.1801
5303.00,1.1851
5302.00,1.1901
5301.00,1.1950
5300.00,1.1998
5299.00,1.2045
5298.00,1.2091
5297.00,1.2136
5296.00,1.2180
5295.00,1.2223
5294.00,1.2267
5293.00,1.2312
5292.00,1.2355
5291.00,1.2399
5290.00,1.2443
5289.00,1.2488
5288.00,1.2532
5287.00,1.2573
5286.00,1.2613
5285.00,1.2651
5284.00,1.2690
5283.00,1.2728
5282.00,1.2768
5281.00,1.2809
5280.00,1.2849
5279.00,1.2889
5278.00,1.2926
5277.00,1.2961
5276.00,1.2995
5275.00,1.3029
5274.00,1.3065
5273.00,1.3101
5272.00,1.3136
5271.00,1.3168
5270.00,1.3198
5269.00,1.3227
5268.00,1.3255
5267.00,1.3283
5266.00,1.3312
5265.00,1.3341
5264.00,1.3369
5263.00,1.3398
5262.00,1.3429
5261.00,1.3461
5260.00,1.3492
5259.00,1.3520
5258.00,1.3545
5257.00,1.3566
5256.00,1.3586
5255.00,1.3609
5254.00,1.3635
5253.00,1.3663
5252.00,1.3691
5251.00,1.3716
5250.00,1.3738
5249.00,1.3757
5248.00,1.3776
5247.00,1.3793
5246.00,1.3810
5245.00,1.3827
5244.00,1.3843
5243.00,1.3859
5242.00,1.3876
5241.00,1.3894
5240.00,1.3910
5239.00,1.3926
5238.00,1.3942
5237.00,1.3958
5236.00,1.3974
5235.00,1.3990
5234.00,1.4007
5233.00,1.4023
5232.00,1.4036
5231.00,1.4045
5230.00,1.4053
5229.00,1.4062
5228.00,1.4071
5227.00,1.4081
5226.00,1.4092
5225.00,1.4104
5224.00,1.4115
5223.00,1.4124
5222.00,1.4131
5221.00,1.4137
5220.00,1.4144
5219.00,1.4150
5218.00,1.4155
5217.00,1.4160
5216.00,1.4164
5215.00,1.4166
5214.00,1.4167
5213.00,1.4169
5212.00,1.4170
5211.00,1.4172
5210.00,1.4174
5209.00,1.4175
5208.00,1.4174
5207.00,1.4173
5206.00,1.4172
5205.00,1.4171
5204.00,1.4171
5203.00,1.4169
5202.00,1.4167
5201.00,1.4163
5200.00,1.4156
5199.00,1.4148
5198.00,1.4140
5197.00,1.4132
5196.00,1.4126
5195.00,1.4122
5194.00,1.4119
5193.00,1.4116
5192.00,1.4110
5191.00,1.4102
5190.00,1.4091
5189.00,1.4079
5188.00,1.4065
5187.00,1.4052
5186.00,1.4039
5185.00,1.4027
5184.00,1.4016
5183.00,1.4004
5182.00,1.3992
5181.00,1.3978
5180.00,1.3962
5179.00,1.3945
5178.00,1.3927
5177.00,1.3911
5176.00,1.3895
5175.00,1.3879
5174.00,1.3865
5173.00,1.3850
5172.00,1.3833
5171.00,1.3815
5170.00,1.3796
5169.00,1.3774
5168.00,1.3751
5167.00,1.3726
5166.00,1.3703
5165.00,1.3680
5164.00,1.3657
5163.00,1.3633
5162.00,1.3609
5161.00,1.3585
5160.00,1.3561
5159.00,1.3535
5158.00,1.3508
5157.00,1.3480
5156.00,1.3450
5155.00,1.3420
5154.00,1.3389
5153.00,1.3360
5152.00,1.3330
5151.00,1.3300
5150.00,1.3270
5149.00,1.3239
5148.00,1.3207
5147.00,1.3174
5146.00,1.3140
5145.00,1.3107
5144.00,1.3073
5143.00,1.3038
5142.00,1.3001
5141.00,1.2963
5140.00,1.2925
5139.00,1.2887
5138.00,1.2849
5137.00,1.2812
5136.00,1.2775
5135.00,1.2736
5134.00,1.2696
5133.00,1.2654
5132.00,1.2611
5131.00,1.2568
5130.00,1.2524
5129.00,1.2480
5128.00,1.2435
5127.00,1.2390
5126.00,1.2345
5125.00,1.2299
5124.00,1.2254
5123.00,1.2207
5122.00,1.2161
5121.00,1.2114
5120.00,1.2066
5119.00,1.2016
5118.00,1.1965
5117.00,1.1914
5116.00,1.1862
5115.00,1.1810
5114.00,1.1759
5113.00,1.1708
5112.00,1.1656
5111.00,1.1604
5110.00,1.1551
5109.00,1.1497
5108.00,1.1443
5107.00,1.1388
5106.00,1.1332
5105.00,1.1277
5104.00,1.1221
5103.00,1.1165
5102.00,1.1110
5101.00,1.1054
5100.00,1.0999
5099.00,1.0944
5098.00,1.0887
5097.00,1.0831
5096.00,1.0773
5095.00,1.0715
5094.00,1.0657
5093.00,1.0598
5092.00,1.0538
5091.00,1.0479
5090.00,1.0421
5089.00,1.0363
5088.00,1.0305
5087.00,1.0247
5086.00,1.0188
5085.00,1.0129
5084.00,1.0069
5083.00,1.0009
5082.00,0.9949
5081.00,0.9889
5080.00,0.9830
5079.00,0.9772
5078.00,0.9714
5077.00,0.9658
5076.00,0.9601
5075.00,0.9545
5074.00,0.9488
5073.00,0.9430
5072.00,0.9372
5071.00,0.9314
5070.00,0.9257
5069.00,0.9200
5068.00,0.9144
5067.00,0.9087
5066.00,0.9031
5065.00,0.8976
5064.00,0.8921
5063.00,0.8867
5062.00,0.8813
5061.00,0.8760
5060.00,0.8707
5059.00,0.8654
5058.00,0.8602
5057.00,0.8551
5056.00,0.8501
5055.00,0.8451
5054.00,0.8401
5053.00,0.8352
5052.00,0.8304
5051.00,0.8257
5050.00,0.8211
5049.00,0.8166
5048.00,0.8121
5047.00,0.8078
5046.00,0.8034
5045.00,0.7992
5044.00,0.7951
5043.00,0.7911
5042.00,0.7872
5041.00,0.7835
5040.00,0.7798
5039.00,0.7762
5038.00,0.7728
5037.00,0.7695
5036.00,0.7663
5035.00,0.7632
5034.00,0.7602
5033.00,0.7573
5032.00,0.7546
5031.00,0.7519
5030.00,0.7495
5029.00,0.7473
5028.00,0.7452
5027.00,0.7433
5026.00,0.7416
5025.00,0.7400
5024.00,0.7386
5023.00,0.7372
5022.00,0.7361
5021.00,0.7352
5020.00,0.7344
5019.00,0.7339
5018.00,0.7336
5017.00,0.7334
5016.00,0.7334
5015.00,0.7336
5014.00,0.7340
5013.00,0.7346
5012.00,0.7354
5011.00,0.7363
5010.00,0.7375
5009.00,0.7388
5008.00,0.7403
5007.00,0.7420
5006.00,0.7439
5005.00,0.7459
5004.00,0.7482
5003.00,0.7505
5002.00,0.7531
5001.00,0.7559
5000.00,0.7589
4999.00,0.7620
4998.00,0.7654
4997.00,0.7690
4996.00,0.7727
4995.00,0.7765
4994.00,0.7804
4993.00,0.7844
4992.00,0.7885
4991.00,0.7928
4990.00,0.7973
4989.00,0.8021
4988.00,0.8071
4987.00,0.8122
4986.00,0.8175
4985.00,0.8228
4984.00,0.8283
4983.00,0.8339
4982.00,0.8396
4981.00,0.8454
4980.00,0.8512
4979.00,0.8571
4978.00,0.8630
4977.00,0.8691
4976.00,0.8752
4975.00,0.8815
4974.00,0.8878
4973.00,0.8943
4972.00,0.9009
4971.00,0.9074
4970.00,0.9140
4969.00,0.9206
4968.00,0.9272
4967.00,0.9338
4966.00,0.9404
4965.00,0.9471
4964.00,0.9539
4963.00,0.9607
4962.00,0.9676
4961.00,0.9745
4960.00,0.9814
4959.00,0.9882
4958.00,0.9951
4957.00,1.0019
4956.00,1.0087
4955.00,1.0155
4954.00,1.0224
4953.00,1.0293
4952.00,1.0361
4951.00,1.0429
4950.00,1.0496
4949.00,1.0564
4948.00,1.0631
4947.00,1.0698
4946.00,1.0765
4945.00,1.0832
4944.00,1.0898
4943.00,1.0964
4942.00,1.1031
4941.00,1.1098
4940.00,1.1165
4939.00,1.1231
4938.00,1.1296
4937.00,1.1360
4936.00,1.1423
4935.00,1.1484
4934.00,1.1545
4933.00,1.1607
4932.00,1.1669
4931.00,1.1731
4930.00,1.1793
4929.00,1.1854
4928.00,1.1913
4927.00,1.1972
4926.00,1.2031
4925.00,1.2091
4924.00,1.2150
4923.00,1.2209
4922.00,1.2266
4921.00,1.2321
4920.00,1.2377
4919.00,1.2431
4918.00,1.2486
4917.00,1.2541
4916.00,1.2595
4915.00,1.2647
4914.00,1.2699
4913.00,1.2751
4912.00,1.2803
4911.00,1.2854
4910.00,1.2905
4909.00,1.2955
4908.00,1.3003
4907.00,1.3050
4906.00,1.3095
4905.00,1.3141
4904.00,1.3186
4903.00,1.3231
4902.00,1.3275
4901.00,1.3320
4900.00,1.3365
4899.00,1.3410
4898.00,1.3454
4897.00,1.3496
4896.00,1.3535
4895.00,1.3573
4894.00,1.3610
4893.00,1.3649
4892.00,1.3688
4891.00,1.3728
4890.00,1.3767
4889.00,1.3806
4888.00,1.3844
4887.00,1.3880
4886.00,1.3915
4885.00,1.3948
4884.00,1.3981
4883.00,1.4014
4882.00,1.4048
4881.00,1.4082
4880.00,1.4115
4879.00,1.4144
4878.00,1.4172
4877.00,1.4200
4876.00,1.4227
4875.00,1.4255
4874.00,1.4282
4873.00,1.4309
4872.00,1.4337
4871.00,1.4364
4870.00,1.4392
4869.00,1.4420
4868.00,1.4447
4867.00,1.4471
4866.00,1.4492
4865.00,1.4513
4864.00,1.4534
4863.00,1.4555
4862.00,1.4576
4861.00,1.4596
4860.00,1.4614
4859.00,1.4632
4858.00,1.4651
4857.00,1.4672
4856.00,1.4694
4855.00,1.4714
4854.00,1.4732
4853.00,1.4747
4852.00,1.4760
4851.00,1.4774
4850.00,1.4789
4849.00,1.4805
4848.00,1.4821
4847.00,1.4836
4846.00,1.4851
4845.00,1.4864
4844.00,1.4876
4843.00,1.4886
4842.00,1.4895
4841.00,1.4902
4840.00,1.4909
4839.00,1.4916
4838.00,1.4924
4837.00,1.4934
4836.00,1.4943
4835.00,1.4952
4834.00,1.4959
4833.00,1.4966
4832.00,1.4972
4831.00,1.4978
4830.00,1.4984
4829.00,1.4990
4828.00,1.4993
4827.00,1.4995
4826.00,1.4995
4825.00,1.4995
4824.00,1.4995
4823.00,1.4995
4822.00,1.4995
4821.00,1.4996
4820.00,1.4996
4819.00,1.4996
4818.00,1.4995
4817.00,1.4994
4816.00,1.4991
4815.00,1.4987
4814.00,1.4983
4813.00,1.4978
4812.00,1.4973
4811.00,1.4966
4810.00,1.4958
4809.00,1.4950
4808.00,1.4944
4807.00,1.4937
4806.00,1.4929
4805.00,1.4920
4804.00,1.4911
4803.00,1.4900
4802.00,1.4888
4801.00,1.4875
4800.00,1.4862
4799.00,1.4851
4798.00,1.4840
4797.00,1.4829
4796.00,1.4816
4795.00,1.4801
4794.00,1.4786
4793.00,1.4771
4792.00,1.4757
4791.00,1.4742
4790.00,1.4726
4789.00,1.4707
4788.00,1.4686
4787.00,1.4664
4786.00,1.4642
4785.00,1.4622
4784.00,1.4603
4783.00,1.4583
4782.00,1.4562
4781.00,1.4540
4780.00,1.4518
4779.00,1.4496
4778.00,1.4475
4777.00,1.4455
4776.00,1.4434
4775.00,1.4410
4774.00,1.4382
4773.00,1.4353
4772.00,1.4323
4771.00,1.4295
4770.00,1.4267
4769.00,1.4239
4768.00,1.4209
4767.00,1.4177
4766.00,1.4144
4765.00,1.4111
4764.00,1.4078
4763.00,1.4047
4762.00,1.4015
4761.00,1.3982
4760.00,1.3947
4759.00,1.3911
4758.00,1.3873
4757.00,1.3835
4756.00,1.3796
4755.00,1.3757
4754.00,1.3719
4753.00,1.3680
4752.00,1.3641
4751.00,1.3599
4750.00,1.3557
4749.00,1.3515
4748.00,1.3474
4747.00,1.3432
4746.00,1.3390
4745.00,1.3347
4744.00,1.3303
4743.00,1.3257
4742.00,1.3211
4741.00,1.3163
4740.00,1.3113
4739.00,1.3062
4738.00,1.3012
4737.00,1.2964
4736.00,1.2917
4735.00,1.2870
4734.00,1.2821
4733.00,1.2770
4732.00,1.2716
4731.00,1.2661
4730.00,1.2606
4729.00,1.2550
4728.00,1.2495
4727.00,1.2439
4726.00,1.2383
4725.00,1.2326
4724.00,1.2268
4723.00,1.2209
4722.00,1.2149
4721.00,1.2088
4720.00,1.2027
4719.00,1.1964
4718.00,1.1901
4717.00,1.1838
4716.00,1.1774
4715.00,1.1711
4714.00,1.1648
4713.00,1.1586
4712.00,1.1522
4711.00,1.1458
4710.00,1.1393
4709.00,1.1328
4708.00,1.1262
4707.00,1.1196
4706.00,1.1129
4705.00,1.1061
4704.00,1.0992
4703.00,1.0923
4702.00,1.0853
4701.00,1.0783
4700.00,1.0713
4699.00,1.0643
4698.00,1.0575
4697.00,1.0508
4696.00,1.0442
4695.00,1.0377
4694.00,1.0312
4693.00,1.0248
4692.00,1.0183
4691.00,1.0118
4690.00,1.0053
4689.00,0.9988
4688.00,0.9923
4687.00,0.9858
4686.00,0.9795
4685.00,0.9731
4684.00,0.9669
4683.00,0.9606
4682.00,0.9543
4681.00,0.9481
4680.00,0.9420
4679.00,0.9359
4678.00,0.9299
4677.00,0.9238
4676.00,0.9178
4675.00,0.9116
4674.00,0.9055
4673.00,0.8995
4672.00,0.8935
4671.00,0.8875
4670.00,0.8816
4669.00,0.8758
4668.00,0.8699
4667.00,0.8641
4666.00,0.8583
4665.00,0.8525
4664.00,0.8468
4663.00,0.8412
4662.00,0.8356
4661.00,0.8301
4660.00,0.8246
4659.00,0.8193
4658.00,0.8140
4657.00,0.8089
4656.00,0.8039
4655.00,0.7990
4654.00,0.7941
4653.00,0.7894
4652.00,0.7849
4651.00,0.7805
4650.00,0.7763
4649.00,0.7722
4648.00,0.7683
4647.00,0.7646
4646.00,0.7610
4645.00,0.7576
4644.00,0.7543
4643.00,0.7513
4642.00,0.7485
4641.00,0.7459
4640.00,0.7435
4639.00,0.7413
4638.00,0.7393
4637.00,0.7375
4636.00,0.7360
4635.00,0.7347
4634.00,0.7336
4633.00,0.7328
4632.00,0.7322
4631.00,0.7318
4630.00,0.7316
4629.00,0.7317
4628.00,0.7321
4627.00,0.7326
4626.00,0.7335
4625.00,0.7346
4624.00,0.7359
4623.00,0.7375
4622.00,0.7393
4621.00,0.7414
4620.00,0.7437
4619.00,0.7463
4618.00,0.7491
4617.00,0.7521
4616.00,0.7554
4615.00,0.7588
4614.00,0.7625
4613.00,0.7664
4612.00,0.7705
4611.00,0.7748
4610.00,0.7793
4609.00,0.7839
4608.00,0.7888
4607.00,0.7938
4606.00,0.7991
4605.00,0.8045
4604.00,0.8101
4603.00,0.8158
4602.00,0.8216
4601.00,0.8277
4600.00,0.8339
4599.00,0.8402
4598.00,0.8467
4597.00,0.8533
4596.00,0.8600
4595.00,0.8669
4594.00,0.8738
4593.00,0.8809
4592.00,0.8880
4591.00,0.8952
4590.00,0.9026
4589.00,0.9100
4588.00,0.9174
4587.00,0.9249
4586.00,0.9326
4585.00,0.9403
4584.00,0.9481
4583.00,0.9559
4582.00,0.9638
4581.00,0.9716
4580.00,0.9795
4579.00,0.9874
4578.00,0.9953
4577.00,1.0033
4576.00,1.0112
4575.00,1.0191
4574.00,1.0271
4573.00,1.0351
4572.00,1.0431
4571.00,1.0510
4570.00,1.0591
4569.00,1.0671
4568.00,1.0750
4567.00,1.0829
4566.00,1.0907
4565.00,1.0985
4564.00,1.1062
4563.00,1.1139
4562.00,1.1217
4561.00,1.1295
4560.00,1.1372
4559.00,1.1448
4558.00,1.1524
4557.00,1.1599
4556.00,1.1674
4555.00,1.1748
4554.00,1.1822
4553.00,1.1895
4552.00,1.1967
4551.00,1.2038
4550.00,1.2110
4549.00,1.2182
4548.00,1.2255
4547.00,1.2327
4546.00,1.2397
4545.00,1.2466
4544.00,1.2534
4543.00,1.2601
4542.00,1.2666
4541.00,1.2731
4540.00,1.2796
4539.00,1.2858
4538.00,1.2921
4537.00,1.2983
4536.00,1.3046
4535.00,1.3109
4534.00,1.3172
4533.00,1.3235
4532.00,1.3296
4531.00,1.3356
4530.00,1.3414
4529.00,1.3472
4528.00,1.3529
4527.00,1.3585
4526.00,1.3640
4525.00,1.3694
4524.00,1.3747
4523.00,1.3799
4522.00,1.3851
4521.00,1.3903
4520.00,1.3953
4519.00,1.4003
4518.00,1.4054
4517.00,1.4105
4516.00,1.4155
4515.00,1.4205
4514.00,1.4253
4513.00,1.4300
4512.00,1.4345
4511.00,1.4390
4510.00,1.4433
4509.00,1.4476
4508.00,1.4518
4507.00,1.4559
4506.00,1.4600
4505.00,1.4641
4504.00,1.4682
4503.00,1.4724
4502.00,1.4765
4501.00,1.4803
4500.00,1.4838
4499.00,1.4872
4498.00,1.4907
4497.00,1.4945
4496.00,1.4985
4495.00,1.5023
4494.00,1.5058
4493.00,1.5090
4492.00,1.5121
4491.00,1.5152
4490.00,1.5182
4489.00,1.5211
4488.00,1.5239
4487.00,1.5267
4486.00,1.5296
4485.00,1.5326
4484.00,1.5356
4483.00,1.5386
4482.00,1.5413
4481.00,1.5441
4480.00,1.5467
4479.00,1.5491
4478.00,1.5515
4477.00,1.5537
4476.00,1.5558
4475.00,1.5580
4474.00,1.5603
4473.00,1.5627
4472.00,1.5650
4471.00,1.5671
4470.00,1.5692
4469.00,1.5713
4468.00,1.5733
4467.00,1.5751
4466.00,1.5769
4465.00,1.5787
4464.00,1.5805
4463.00,1.5821
4462.00,1.5835
4461.00,1.5847
4460.00,1.5858
4459.00,1.5868
4458.00,1.5879
4457.00,1.5891
4456.00,1.5902
4455.00,1.5913
4454.00,1.5923
4453.00,1.5935
4452.00,1.5947
4451.00,1.5959
4450.00,1.5969
4449.00,1.5979
4448.00,1.5988
4447.00,1.5996
4446.00,1.6002
4445.00,1.6006
4444.00,1.6007
4443.00,1.6008
4442.00,1.6011
4441.00,1.6016
4440.00,1.6022
4439.00,1.6029
4438.00,1.6035
4437.00,1.6039
4436.00,1.6042
4435.00,1.6044
4434.00,1.6046
4433.00,1.6048
4432.00,1.6049
4431.00,1.6049
4430.00,1.6047
4429.00,1.6042
4428.00,1.6037
4427.00,1.6030
4426.00,1.6024
4425.00,1.6020
4424.00,1.6017
4423.00,1.6013
4422.00,1.6009
4421.00,1.6004
4420.00,1.5998
4419.00,1.5990
4418.00,1.5980
4417.00,1.5969
4416.00,1.5957
4415.00,1.5945
4414.00,1.5935
4413.00,1.5924
4412.00,1.5911
4411.00,1.5898
4410.00,1.5885
4409.00,1.5873
4408.00,1.5862
4407.00,1.5851
4406.00,1.5838
4405.00,1.5824
4404.00,1.5808
4403.00,1.5790
4402.00,1.5771
4401.00,1.5751
4400.00,1.5732
4399.00,1.5714
4398.00,1.5696
4397.00,1.5677
4396.00,1.5656
4395.00,1.5633
4394.00,1.5609
4393.00,1.5585
4392.00,1.5562
4391.00,1.5540
4390.00,1.5518
4389.00,1.5494
4388.00,1.5467
4387.00,1.5440
4386.00,1.5412
4385.00,1.5386
4384.00,1.5360
4383.00,1.5335
4382.00,1.5308
4381.00,1.5279
4380.00,1.5247
4379.00,1.5214
4378.00,1.5183
4377.00,1.5154
4376.00,1.5125
4375.00,1.5096
4374.00,1.5065
4373.00,1.5032
4372.00,1.4999
4371.00,1.4965
4370.00,1.4930
4369.00,1.4894
4368.00,1.4857
4367.00,1.4820
4366.00,1.4783
4365.00,1.4746
4364.00,1.4705
4363.00,1.4662
4362.00,1.4618
4361.00,1.4575
4360.00,1.4532
4359.00,1.4489
4358.00,1.4446
4357.00,1.4401
4356.00,1.4356
4355.00,1.4308
4354.00,1.4259
4353.00,1.4209
4352.00,1.4157
4351.00,1.4105
4350.00,1.4053
4349.00,1.4001
4348.00,1.3948
4347.00,1.3894
4346.00,1.3839
4345.00,1.3784
4344.00,1.3728
4343.00,1.3671
4342.00,1.3613
4341.00,1.3554
4340.00,1.3493
4339.00,1.3430
4338.00,1.3367
4337.00,1.3304
4336.00,1.3240
4335.00,1.3175
4334.00,1.3109
4333.00,1.3041
4332.00,1.2974
4331.00,1.2906
4330.00,1.2838
4329.00,1.2769
4328.00,1.2698
4327.00,1.2627
4326.00,1.2555
4325.00,1.2483
4324.00,1.2411
4323.00,1.2339
4322.00,1.2267
4321.00,1.2194
4320.00,1.2121
4319.00,1.2047
4318.00,1.1971
4317.00,1.1896
4316.00,1.1820
4315.00,1.1745
4314.00,1.1671
4313.00,1.1597
4312.00,1.1523
4311.00,1.1448
4310.00,1.1373
4309.00,1.1297
4308.00,1.1221
4307.00,1.1144
4306.00,1.1066
4305.00,1.0988
4304.00,1.0910
4303.00,1.0833
4302.00,1.0756
4301.00,1.0679
4300.00,1.0603
4299.00,1.0527
4298.00,1.0452
4297.00,1.0377
4296.00,1.0303
4295.00,1.0229
4294.00,1.0156
4293.00,1.0083
4292.00,1.0011
4291.00,0.9940
4290.00,0.9870
4289.00,0.9801
4288.00,0.9732
4287.00,0.9663
4286.00,0.9595
4285.00,0.9529
4284.00,0.9463
4283.00,0.9397
4282.00,0.9332
4281.00,0.9268
4280.00,0.9204
4279.00,0.9140
4278.00,0.9077
4277.00,0.9014
4276.00,0.8951
4275.00,0.8888
4274.00,0.8826
4273.00,0.8765
4272.00,0.8706
4271.00,0.8647
4270.00,0.8589
4269.00,0.8532
4268.00,0.8476
4267.00,0.8421
4266.00,0.8367
4265.00,0.8315
4264.00,0.8264
4263.00,0.8214
4262.00,0.8166
4261.00,0.8119
4260.00,0.8074
4259.00,0.8030
4258.00,0.7988
4257.00,0.7949
4256.00,0.7911
4255.00,0.7876
4254.00,0.7843
4253.00,0.7813
4252.00,0.7785
4251.00,0.7761
4250.00,0.7739
4249.00,0.7720
4248.00,0.7704
4247.00,0.7690
4246.00,0.7680
4245.00,0.7673
4244.00,0.7669
4243.00,0.7668
4242.00,0.7670
4241.00,0.7676
4240.00,0.7685
4239.00,0.7697
4238.00,0.7714
4237.00,0.7733
4236.00,0.7756
4235.00,0.7783
4234.00,0.7813
4233.00,0.7846
4232.00,0.7882
4231.00,0.7921
4230.00,0.7964
4229.00,0.8010
4228.00,0.8058
4227.00,0.8109
4226.00,0.8163
4225.00,0.8219
4224.00,0.8278
4223.00,0.8338
4222.00,0.8401
4221.00,0.8465
4220.00,0.8530
4219.00,0.8597
4218.00,0.8666
4217.00,0.8736
4216.00,0.8807
4215.00,0.8880
4214.00,0.8955
4213.00,0.9031
4212.00,0.9109
4211.00,0.9187
4210.00,0.9267
4209.00,0.9348
4208.00,0.9429
4207.00,0.9513
4206.00,0.9597
4205.00,0.9683
4204.00,0.9769
4203.00,0.9856
4202.00,0.9943
4201.00,1.0031
4200.00,1.0120
4199.00,1.0210
4198.00,1.0301
4197.00,1.0391
4196.00,1.0483
4195.00,1.0575
4194.00,1.0668
4193.00,1.0762
4192.00,1.0854
4191.00,1.0947
4190.00,1.1039
4189.00,1.1131
4188.00,1.1224
4187.00,1.1315
4186.00,1.1406
4185.00,1.1496
4184.00,1.1586
4183.00,1.1676
4182.00,1.1766
4181.00,1.1855
4180.00,1.1942
4179.00,1.2029
4178.00,1.2115
4177.00,1.2201
4176.00,1.2288
4175.00,1.2374
4174.00,1.2460
4173.00,1.2545
4172.00,1.2628
4171.00,1.2710
4170.00,1.2790
4169.00,1.2870
4168.00,1.2949
4167.00,1.3029
4166.00,1.3108
4165.00,1.3188
4164.00,1.3267
4163.00,1.3345
4162.00,1.3421
4161.00,1.3496
4160.00,1.3570
4159.00,1.3642
4158.00,1.3714
4157.00,1.3786
4156.00,1.3857
4155.00,1.3927
4154.00,1.3997
4153.00,1.4066
4152.00,1.4133
4151.00,1.4199
4150.00,1.4264
4149.00,1.4328
4148.00,1.4391
4147.00,1.4455
4146.00,1.4518
4145.00,1.4582
4144.00,1.4644
4143.00,1.4705
4142.00,1.4764
4141.00,1.4823
4140.00,1.4882
4139.00,1.4940
4138.00,1.4997
4137.00,1.5052
4136.00,1.5107
4135.00,1.5161
4134.00,1.5214
4133.00,1.5266
4132.00,1.5317
4131.00,1.5367
4130.00,1.5417
4129.00,1.5466
4128.00,1.5516
4127.00,1.5565
4126.00,1.5614
4125.00,1.5662
4124.00,1.5709
4123.00,1.5753
4122.00,1.5796
4121.00,1.5838
4120.00,1.5880
4119.00,1.5923
4118.00,1.5966
4117.00,1.6008
4116.00,1.6050
4115.00,1.6091
4114.00,1.6131
4113.00,1.6171
4112.00,1.6209
4111.00,1.6245
4110.00,1.6280
4109.00,1.6314
4108.00,1.6347
4107.00,1.6380
4106.00,1.6412
4105.00,1.6445
4104.00,1.6479
4103.00,1.6512
4102.00,1.6544
4101.00,1.6575
4100.00,1.6604
4099.00,1.6632
4098.00,1.6660
4097.00,1.6689
4096.00,1.6718
4095.00,1.6747
4094.00,1.6775
4093.00,1.6803
4092.00,1.6830
4091.00,1.6854
4090.00,1.6877
4089.00,1.6899
4088.00,1.6921
4087.00,1.6942
4086.00,1.6964
4085.00,1.6985
4084.00,1.7007
4083.00,1.7027
4082.00,1.7047
4081.00,1.7067
4080.00,1.7088
4079.00,1.7108
4078.00,1.7124
4077.00,1.7137
4076.00,1.7149
4075.00,1.7161
4074.00,1.7176
4073.00,1.7194
4072.00,1.7210
4071.00,1.7223
4070.00,1.7234
4069.00,1.7245
4068.00,1.7257
4067.00,1.7269
4066.00,1.7280
4065.00,1.7291
4064.00,1.7302
4063.00,1.7313
4062.00,1.7323
4061.00,1.7330
4060.00,1.7334
4059.00,1.7338
4058.00,1.7345
4057.00,1.7355
4056.00,1.7365
4055.00,1.7371
4054.00,1.7373
4053.00,1.7372
4052.00,1.7371
4051.00,1.7371
4050.00,1.7373
4049.00,1.7377
4048.00,1.7381
4047.00,1.7384
4046.00,1.7387
4045.00,1.7389
4044.00,1.7387
4043.00,1.7383
4042.00,1.7375
4041.00,1.7368
4040.00,1.7363
4039.00,1.7361
4038.00,1.7361
4037.00,1.7359
4036.00,1.7353
4035.00,1.7344
4034.00,1.7335
4033.00,1.7327
4032.00,1.7320
4031.00,1.7311
4030.00,1.7302
4029.00,1.7291
4028.00,1.7279
4027.00,1.7266
4026.00,1.7251
4025.00,1.7236
4024.00,1.7223
4023.00,1.7212
4022.00,1.7201
4021.00,1.7188
4020.00,1.7171
4019.00,1.7152
4018.00,1.7135
4017.00,1.7122
4016.00,1.7110
4015.00,1.7097
4014.00,1.7082
4013.00,1.7064
4012.00,1.7045
4011.00,1.7025
4010.00,1.7003
4009.00,1.6978
4008.00,1.6952
4007.00,1.6925
4006.00,1.6899
4005.00,1.6875
4004.00,1.6850
4003.00,1.6823
4002.00,1.6795
4001.00,1.6766
4000.00,1.6738
3999.00,1.6710
3998.00,1.6682
3997.00,1.6653
3996.00,1.6623
3995.00,1.6592
3994.00,1.6560
3993.00,1.6527
3992.00,1.6492
3991.00,1.6456
3990.00,1.6421
3989.00,1.6386
3988.00,1.6351
3987.00,1.6314
3986.00,1.6277
3985.00,1.6238
3984.00,1.6199
3983.00,1.6160
3982.00,1.6120
3981.00,1.6079
3980.00,1.6036
3979.00,1.5991
3978.00,1.5946
3977.00,1.5901
3976.00,1.5857
3975.00,1.5812
3974.00,1.5767
3973.00,1.5719
3972.00,1.5669
3971.00,1.5618
3970.00,1.5566
3969.00,1.5515
3968.00,1.5463
3967.00,1.5411
3966.00,1.5358
3965.00,1.5304
3964.00,1.5248
3963.00,1.5191
3962.00,1.5133
3961.00,1.5076
3960.00,1.5018
3959.00,1.4960
3958.00,1.4900
3957.00,1.4840
3956.00,1.4779
3955.00,1.4717
3954.00,1.4655
3953.00,1.4593
3952.00,1.4530
3951.00,1.4465
3950.00,1.4399
3949.00,1.4331
3948.00,1.4262
3947.00,1.4192
3946.00,1.4120
3945.00,1.4047
3944.00,1.3974
3943.00,1.3898
3942.00,1.3822
3941.00,1.3745
3940.00,1.3668
3939.00,1.3590
3938.00,1.3511
3937.00,1.3432
3936.00,1.3351
3935.00,1.3268
3934.00,1.3185
3933.00,1.3101
3932.00,1.3016
3931.00,1.2930
3930.00,1.2843
3929.00,1.2753
3928.00,1.2662
3927.00,1.2571
3926.00,1.2480
3925.00,1.2390
3924.00,1.2299
3923.00,1.2208
3922.00,1.2115
3921.00,1.2022
3920.00,1.1929
3919.00,1.1835
3918.00,1.1741
3917.00,1.1645
3916.00,1.1549
3915.00,1.1452
3914.00,1.1356
3913.00,1.1259
3912.00,1.1162
3911.00,1.1066
3910.00,1.0971
3909.00,1.0876
3908.00,1.0784
3907.00,1.0695
3906.00,1.0607
3905.00,1.0519
3904.00,1.0431
3903.00,1.0341
3902.00,1.0250
3901.00,1.0159
3900.00,1.0067
3899.00,0.9974
3898.00,0.9881
3897.00,0.9789
3896.00,0.9701
3895.00,0.9617
3894.00,0.9536
3893.00,0.9457
3892.00,0.9377
3891.00,0.9295
3890.00,0.9214
3889.00,0.9137
3888.00,0.9065
3887.00,0.8997
3886.00,0.8926
3885.00,0.8852
3884.00,0.8777
3883.00,0.8707
3882.00,0.8642
3881.00,0.8580
3880.00,0.8516
3879.00,0.8452
3878.00,0.8391
3877.00,0.8335
3876.00,0.8285
3875.00,0.8237
3874.00,0.8190
3873.00,0.8146
3872.00,0.8108
3871.00,0.8073
3870.00,0.8035
3869.00,0.7995
3868.00,0.7957
3867.00,0.7925
3866.00,0.7902
3865.00,0.7883
3864.00,0.7865
3863.00,0.7848
3862.00,0.7833
3861.00,0.7825
3860.00,0.7822
3859.00,0.7824
3858.00,0.7834
3857.00,0.7853
3856.00,0.7883
3855.00,0.7918
3854.00,0.7952
3853.00,0.7977
3852.00,0.7997
3851.00,0.8020
3850.00,0.8051
3849.00,0.8086
3848.00,0.8122
3847.00,0.8159
3846.00,0.8203
3845.00,0.8254
3844.00,0.8313
3843.00,0.8379
3842.00,0.8450
3841.00,0.8525
3840.00,0.8606
3839.00,0.8691
3838.00,0.8781
3837.00,0.8872
3836.00,0.8963
3835.00,0.9053
3834.00,0.9144
3833.00,0.9237
3832.00,0.9332
3831.00,0.9428
3830.00,0.9525
3829.00,0.9624
3828.00,0.9726
3827.00,0.9830
3826.00,0.9935
3825.00,1.0041
3824.00,1.0146
3823.00,1.0253
3822.00,1.0366
3821.00,1.0487
3820.00,1.0611
3819.00,1.0733
3818.00,1.0850
3817.00,1.0966
3816.00,1.1083
3815.00,1.1199
3814.00,1.1312
3813.00,1.1422
3812.00,1.1529
3811.00,1.1634
3810.00,1.1735
3809.00,1.1834
3808.00,1.1937
3807.00,1.2048
3806.00,1.2166
3805.00,1.2284
3804.00,1.2398
3803.00,1.2507
3802.00,1.2617
3801.00,1.2730
3800.00,1.2843
3799.00,1.2953
3798.00,1.3060
3797.00,1.3164
3796.00,1.3266
3795.00,1.3364
3794.00,1.3460
3793.00,1.3555
3792.00,1.3650
3791.00,1.3743
3790.00,1.3835
3789.00,1.3926
3788.00,1.4018
3787.00,1.4108
3786.00,1.4199
3785.00,1.4289
3784.00,1.4380
3783.00,1.4470
3782.00,1.4559
3781.00,1.4649
3780.00,1.4738
3779.00,1.4826
3778.00,1.4912
3777.00,1.4997
3776.00,1.5079
3775.00,1.5159
3774.00,1.5235
3773.00,1.5309
3772.00,1.5384
3771.00,1.5460
3770.00,1.5540
3769.00,1.5620
3768.00,1.5699
3767.00,1.5775
3766.00,1.5849
3765.00,1.5922
3764.00,1.5993
3763.00,1.6062
3762.00,1.6129
3761.00,1.6196
3760.00,1.6265
3759.00,1.6337
3758.00,1.6414
3757.00,1.6495
3756.00,1.6576
3755.00,1.6655
3754.00,1.6731
3753.00,1.6810
3752.00,1.6892
3751.00,1.6979
3750.00,1.7069
3749.00,1.7159
3748.00,1.7244
3747.00,1.7321
3746.00,1.7389
3745.00,1.7454
3744.00,1.7516
3743.00,1.7572
3742.00,1.7623
3741.00,1.7669
3740.00,1.7709
3739.00,1.7743
3738.00,1.7770
3737.00,1.7794
3736.00,1.7816
3735.00,1.7843
3734.00,1.7867
3733.00,1.7907
3732.00,1.7926
3731.00,1.7983
3730.00,1.7921
3729.00,1.7863
3728.00,1.7923
3727.00,1.7941
3726.00,1.7982
3725.00,1.8011
3724.00,1.8046
3723.00,1.8081
3722.00,1.8116
3721.00,1.8160
3720.00,1.8191
3719.00,1.8244
3718.00,1.8250
3717.00,1.8387
3716.00,1.8532
3715.00,1.8543
3714.00,1.8600
3713.00,1.8630
3712.00,1.8671
3711.00,1.8702
3710.00,1.8737
3709.00,1.8770
3708.00,1.8798
3707.00,1.8821
3706.00,1.8838
3705.00,1.8855
3704.00,1.8873
3703.00,1.8889
3702.00,1.8905
3701.00,1.8920
3700.00,1.8935
3699.00,1.8952
3698.00,1.8969
3697.00,1.8982
3696.00,1.8992
3695.00,1.9000
3694.00,1.9012
3693.00,1.9028
3692.00,1.9046
3691.00,1.9064
3690.00,1.9081
3689.00,1.9097
3688.00,1.9111
3687.00,1.9121
3686.00,1.9129
3685.00,1.9136
3684.00,1.9141
3683.00,1.9146
3682.00,1.9148
3681.00,1.9151
3680.00,1.9155
3679.00,1.9162
3678.00,1.9172
3677.00,1.9186
3676.00,1.9202
3675.00,1.9217
3674.00,1.9230
3673.00,1.9241
3672.00,1.9248
3671.00,1.9251
3670.00,1.9249
3669.00,1.9243
3668.00,1.9233
3667.00,1.9226
3666.00,1.9223
3665.00,1.9225
3664.00,1.9226
3663.00,1.9226
3662.00,1.9226
3661.00,1.9228
3660.00,1.9230
3659.00,1.9230
3658.00,1.9230
3657.00,1.9228
3656.00,1.9227
3655.00,1.9225
3654.00,1.9228
3653.00,1.9236
3652.00,1.9247
3651.00,1.9259
3650.00,1.9270
3649.00,1.9276
3648.00,1.9278
3647.00,1.9276
3646.00,1.9276
3645.00,1.9277
3644.00,1.9275
3643.00,1.9268
3642.00,1.9255
3641.00,1.9239
3640.00,1.9221
3639.00,1.9203
3638.00,1.9185
3637.00,1.9165
3636.00,1.9142
3635.00,1.9116
3634.00,1.9092
3633.00,1.9069
3632.00,1.9048
3631.00,1.9026
3630.00,1.9001
3629.00,1.8973
3628.00,1.8940
3627.00,1.8904
3626.00,1.8867
3625.00,1.8826
3624.00,1.8779
3623.00,1.8729
3622.00,1.8690
3621.00,1.8668
3620.00,1.8662
3619.00,1.8662
3618.00,1.8661
3617.00,1.8654
3616.00,1.8641
3615.00,1.8621
3614.00,1.8595
3613.00,1.8567
3612.00,1.8542
3611.00,1.8519
3610.00,1.8496
3609.00,1.8469
3608.00,1.8437
3607.00,1.8401
3606.00,1.8363
3605.00,1.8327
3604.00,1.8289
3603.00,1.8249
3602.00,1.8206
3601.00,1.8160
3600.00,1.8114
3599.00,1.8070
3598.00,1.8026
3597.00,1.7980
3596.00,1.7931
3595.00,1.7878
3594.00,1.7823
3593.00,1.7767
3592.00,1.7711
3591.00,1.7656
3590.00,1.7602
3589.00,1.7547
3588.00,1.7493
3587.00,1.7440
3586.00,1.7388
3585.00,1.7336
3584.00,1.7283
3583.00,1.7225
3582.00,1.7166
3581.00,1.7106
3580.00,1.7045
3579.00,1.6984
3578.00,1.6922
3577.00,1.6861
3576.00,1.6799
3575.00,1.6737
3574.00,1.6671
3573.00,1.6603
3572.00,1.6533
3571.00,1.6465
3570.00,1.6398
3569.00,1.6331
3568.00,1.6261
3567.00,1.6187
3566.00,1.6110
3565.00,1.6031
3564.00,1.5952
3563.00,1.5872
3562.00,1.5792
3561.00,1.5710
3560.00,1.5628
3559.00,1.5544
3558.00,1.5461
3557.00,1.5378
3556.00,1.5294
3555.00,1.5208
3554.00,1.5121
3553.00,1.5031
3552.00,1.4940
3551.00,1.4848
3550.00,1.4755
3549.00,1.4664
3548.00,1.4572
3547.00,1.4478
3546.00,1.4383
3545.00,1.4286
3544.00,1.4189
3543.00,1.4091
3542.00,1.3994
3541.00,1.3896
3540.00,1.3797
3539.00,1.3697
3538.00,1.3596
3537.00,1.3495
3536.00,1.3393
3535.00,1.3292
3534.00,1.3191
3533.00,1.3090
3532.00,1.2989
3531.00,1.2888
3530.00,1.2787
3529.00,1.2688
3528.00,1.2588
3527.00,1.2489
3526.00,1.2388
3525.00,1.2288
3524.00,1.2187
3523.00,1.2088
3522.00,1.1989
3521.00,1.1891
3520.00,1.1794
3519.00,1.1698
3518.00,1.1602
3517.00,1.1507
3516.00,1.1413
3515.00,1.1320
3514.00,1.1229
3513.00,1.1138
3512.00,1.1049
3511.00,1.0960
3510.00,1.0872
3509.00,1.0784
3508.00,1.0697
3507.00,1.0612
3506.00,1.0529
3505.00,1.0448
3504.00,1.0367
3503.00,1.0288
3502.00,1.0210
3501.00,1.0135
3500.00,1.0063
3499.00,0.9993
3498.00,0.9926
3497.00,0.9860
3496.00,0.9797
3495.00,0.9737
3494.00,0.9679
3493.00,0.9625
3492.00,0.9575
3491.00,0.9528
3490.00,0.9484
3489.00,0.9444
3488.00,0.9407
3487.00,0.9374
3486.00,0.9345
3485.00,0.9321
3484.00,0.9302
3483.00,0.9287
3482.00,0.9276
3481.00,0.9269
3480.00,0.9267
3479.00,0.9270
3478.00,0.9278
3477.00,0.9291
3476.00,0.9309
3475.00,0.9332
3474.00,0.9360
3473.00,0.9393
3472.00,0.9431
3471.00,0.9473
3470.00,0.9520
3469.00,0.9573
3468.00,0.9630
3467.00,0.9692
3466.00,0.9760
3465.00,0.9832
3464.00,0.9908
3463.00,0.9989
3462.00,1.0073
3461.00,1.0162
3460.00,1.0254
3459.00,1.0350
3458.00,1.0449
3457.00,1.0551
3456.00,1.0656
3455.00,1.0763
3454.00,1.0874
3453.00,1.0987
3452.00,1.1101
3451.00,1.1218
3450.00,1.1335
3449.00,1.1454
3448.00,1.1575
3447.00,1.1698
3446.00,1.1822
3445.00,1.1946
3444.00,1.2071
3443.00,1.2196
3442.00,1.2323
3441.00,1.2450
3440.00,1.2576
3439.00,1.2702
3438.00,1.2828
3437.00,1.2954
3436.00,1.3080
3435.00,1.3205
3434.00,1.3332
3433.00,1.3459
3432.00,1.3586
3431.00,1.3713
3430.00,1.3839
3429.00,1.3965
3428.00,1.4090
3427.00,1.4215
3426.00,1.4338
3425.00,1.4460
3424.00,1.4580
3423.00,1.4699
3422.00,1.4817
3421.00,1.4934
3420.00,1.5048
3419.00,1.5161
3418.00,1.5270
3417.00,1.5376
3416.00,1.5479
3415.00,1.5578
3414.00,1.5674
3413.00,1.5766
3412.00,1.5855
3411.00,1.5942
3410.00,1.6025
3409.00,1.6104
3408.00,1.6179
3407.00,1.6250
3406.00,1.6319
3405.00,1.6385
3404.00,1.6447
3403.00,1.6504
3402.00,1.6559
3401.00,1.6615
3400.00,1.6672
3399.00,1.6732
3398.00,1.6793
3397.00,1.6855
3396.00,1.6917
3395.00,1.6978
3394.00,1.7040
3393.00,1.7103
3392.00,1.7167
3391.00,1.7233
3390.00,1.7300
3389.00,1.7367
3388.00,1.7435
3387.00,1.7503
3386.00,1.7572
3385.00,1.7640
3384.00,1.7708
3383.00,1.7776
3382.00,1.7845
3381.00,1.7916
3380.00,1.7986
3379.00,1.8055
3378.00,1.8120
3377.00,1.8183
3376.00,1.8246
3375.00,1.8309
3374.00,1.8373
3373.00,1.8437
3372.00,1.8500
3371.00,1.8560
3370.00,1.8617
3369.00,1.8673
3368.00,1.8726
3367.00,1.8777
3366.00,1.8828
3365.00,1.8880
3364.00,1.8935
3363.00,1.8991
3362.00,1.9047
3361.00,1.9100
3360.00,1.9150
3359.00,1.9198
3358.00,1.9247
3357.00,1.9294
3356.00,1.9341
3355.00,1.9385
3354.00,1.9429
3353.00,1.9471
3352.00,1.9512
3351.00,1.9552
3350.00,1.9592
3349.00,1.9634
3348.00,1.9675
3347.00,1.9715
3346.00,1.9753
3345.00,1.9790
3344.00,1.9827
3343.00,1.9864
3342.00,1.9902
3341.00,1.9938
3340.00,1.9972
3339.00,2.0007
3338.00,2.0042
3337.00,2.0077
3336.00,2.0110
3335.00,2.0138
3334.00,2.0166
3333.00,2.0195
3332.00,2.0225
3331.00,2.0256
3330.00,2.0286
3329.00,2.0315
3328.00,2.0341
3327.00,2.0367
3326.00,2.0393
3325.00,2.0418
3324.00,2.0441
3323.00,2.0463
3322.00,2.0486
3321.00,2.0510
3320.00,2.0532
3319.00,2.0552
3318.00,2.0570
3317.00,2.0590
3316.00,2.0609
3315.00,2.0627
3314.00,2.0642
3313.00,2.0656
3312.00,2.0672
3311.00,2.0688
3310.00,2.0706
3309.00,2.0726
3308.00,2.0745
3307.00,2.0764
3306.00,2.0781
3305.00,2.0796
3304.00,2.0808
3303.00,2.0817
3302.00,2.0825
3301.00,2.0833
3300.00,2.0842
3299.00,2.0855
3298.00,2.0869
3297.00,2.0882
3296.00,2.0891
3295.00,2.0898
3294.00,2.0905
3293.00,2.0915
3292.00,2.0924
3291.00,2.0930
3290.00,2.0932
3289.00,2.0933
3288.00,2.0932
3287.00,2.0931
3286.00,2.0933
3285.00,2.0938
3284.00,2.0944
3283.00,2.0947
3282.00,2.0944
3281.00,2.0939
3280.00,2.0934
3279.00,2.0933
3278.00,2.0932
3277.00,2.0928
3276.00,2.0920
3275.00,2.0911
3274.00,2.0906
3273.00,2.0904
3272.00,2.0901
3271.00,2.0893
3270.00,2.0883
3269.00,2.0873
3268.00,2.0865
3267.00,2.0857
3266.00,2.0848
3265.00,2.0839
3264.00,2.0830
3263.00,2.0822
3262.00,2.0814
3261.00,2.0802
3260.00,2.0786
3259.00,2.0767
3258.00,2.0749
3257.00,2.0733
3256.00,2.0718
3255.00,2.0703
3254.00,2.0686
3253.00,2.0668
3252.00,2.0649
3251.00,2.0630
3250.00,2.0611
3249.00,2.0592
3248.00,2.0573
3247.00,2.0553
3246.00,2.0533
3245.00,2.0513
3244.00,2.0490
3243.00,2.0464
3242.00,2.0439
3241.00,2.0414
3240.00,2.0389
3239.00,2.0361
3238.00,2.0329
3237.00,2.0293
3236.00,2.0256
3235.00,2.0221
3234.00,2.0189
3233.00,2.0162
3232.00,2.0135
3231.00,2.0106
3230.00,2.0074
3229.00,2.0038
3228.00,2.0000
3227.00,1.9962
3226.00,1.9927
3225.00,1.9892
3224.00,1.9856
3223.00,1.9819
3222.00,1.9780
3221.00,1.9739
3220.00,1.9695
3219.00,1.9649
3218.00,1.9603
3217.00,1.9558
3216.00,1.9514
3215.00,1.9468
3214.00,1.9419
3213.00,1.9367
3212.00,1.9316
3211.00,1.9263
3210.00,1.9210
3209.00,1.9156
3208.00,1.9101
3207.00,1.9046
3206.00,1.8992
3205.00,1.8937
3204.00,1.8877
3203.00,1.8815
3202.00,1.8751
3201.00,1.8689
3200.00,1.8628
3199.00,1.8565
3198.00,1.8499
3197.00,1.8432
3196.00,1.8364
3195.00,1.8296
3194.00,1.8227
3193.00,1.8157
3192.00,1.8086
3191.00,1.8011
3190.00,1.7935
3189.00,1.7856
3188.00,1.7775
3187.00,1.7692
3186.00,1.7609
3185.00,1.7525
3184.00,1.7439
3183.00,1.7351
3182.00,1.7262
3181.00,1.7172
3180.00,1.7083
3179.00,1.6994
3178.00,1.6905
3177.00,1.6814
3176.00,1.6718
3175.00,1.6618
3174.00,1.6516
3173.00,1.6412
3172.00,1.6306
3171.00,1.6199
3170.00,1.6091
3169.00,1.5984
3168.00,1.5875
3167.00,1.5765
3166.00,1.5652
3165.00,1.5536
3164.00,1.5419
3163.00,1.5301
3162.00,1.5181
3161.00,1.5059
3160.00,1.4937
3159.00,1.4814
3158.00,1.4691
3157.00,1.4568
3156.00,1.4443
3155.00,1.4317
3154.00,1.4190
3153.00,1.4062
3152.00,1.3933
3151.00,1.3804
3150.00,1.3675
3149.00,1.3545
3148.00,1.3416
3147.00,1.3288
3146.00,1.3160
3145.00,1.3033
3144.00,1.2905
3143.00,1.2778
3142.00,1.2651
3141.00,1.2526
3140.00,1.2401
3139.00,1.2277
3138.00,1.2154
3137.00,1.2032
3136.00,1.1912
3135.00,1.1793
3134.00,1.1676
3133.00,1.1560
3132.00,1.1447
3131.00,1.1336
3130.00,1.1226
3129.00,1.1118
3128.00,1.1012
3127.00,1.0909
3126.00,1.0808
3125.00,1.0710
3124.00,1.0616
3123.00,1.0525
3122.00,1.0437
3121.00,1.0354
3120.00,1.0274
3119.00,1.0199
3118.00,1.0128
3117.00,1.0062
3116.00,1.0002
3115.00,0.9947
3114.00,0.9897
3113.00,0.9854
3112.00,0.9818
3111.00,0.9789
3110.00,0.9768
3109.00,0.9754
3108.00,0.9747
3107.00,0.9749
3106.00,0.9758
3105.00,0.9774
3104.00,0.9800
3103.00,0.9833
3102.00,0.9874
3101.00,0.9924
3100.00,0.9982
3099.00,1.0048
3098.00,1.0122
3097.00,1.0204
3096.00,1.0294
3095.00,1.0392
3094.00,1.0497
3093.00,1.0609
3092.00,1.0729
3091.00,1.0854
3090.00,1.0985
3089.00,1.1120
3088.00,1.1261
3087.00,1.1406
3086.00,1.1555
3085.00,1.1707
3084.00,1.1863
3083.00,1.2021
3082.00,1.2181
3081.00,1.2342
3080.00,1.2506
3079.00,1.2670
3078.00,1.2836
3077.00,1.3001
3076.00,1.3167
3075.00,1.3333
3074.00,1.3500
3073.00,1.3668
3072.00,1.3836
3071.00,1.4004
3070.00,1.4172
3069.00,1.4339
3068.00,1.4505
3067.00,1.4669
3066.00,1.4831
3065.00,1.4989
3064.00,1.5145
3063.00,1.5301
3062.00,1.5455
3061.00,1.5608
3060.00,1.5759
3059.00,1.5907
3058.00,1.6055
3057.00,1.6202
3056.00,1.6347
3055.00,1.6488
3054.00,1.6625
3053.00,1.6760
3052.00,1.6895
3051.00,1.7029
3050.00,1.7162
3049.00,1.7293
3048.00,1.7421
3047.00,1.7547
3046.00,1.7673
3045.00,1.7797
3044.00,1.7920
3043.00,1.8043
3042.00,1.8165
3041.00,1.8284
3040.00,1.8402
3039.00,1.8518
3038.00,1.8634
3037.00,1.8750
3036.00,1.8864
3035.00,1.8973
3034.00,1.9081
3033.00,1.9189
3032.00,1.9296
3031.00,1.9400
3030.00,1.9500
3029.00,1.9598
3028.00,1.9693
3027.00,1.9788
3026.00,1.9884
3025.00,1.9979
3024.00,2.0071
3023.00,2.0160
3022.00,2.0247
3021.00,2.0335
3020.00,2.0423
3019.00,2.0510
3018.00,2.0594
3017.00,2.0676
3016.00,2.0758
3015.00,2.0842
3014.00,2.0926
3013.00,2.1011
3012.00,2.1094
3011.00,2.1173
3010.00,2.1248
3009.00,2.1320
3008.00,2.1394
3007.00,2.1471
3006.00,2.1549
3005.00,2.1626
3004.00,2.1700
3003.00,2.1771
3002.00,2.1840
3001.00,2.1907
3000.00,2.1971
2999.00,2.2031
2998.00,2.2091
2997.00,2.2151
2996.00,2.2215
2995.00,2.2281
2994.00,2.2346
2993.00,2.2409
2992.00,2.2467
2991.00,2.2523
2990.00,2.2581
2989.00,2.2639
2988.00,2.2698
2987.00,2.2754
2986.00,2.2806
2985.00,2.2855
2984.00,2.2904
2983.00,2.2955
2982.00,2.3007
2981.00,2.3057
2980.00,2.3104
2979.00,2.3151
2978.00,2.3204
2977.00,2.3265
2976.00,2.3332
2975.00,2.3402
2974.00,2.3477
2973.00,2.3563
2972.00,2.3664
2971.00,2.3789
2970.00,2.3941
2969.00,2.4119
2968.00,2.4314
2967.00,2.4521
2966.00,2.4743
2965.00,2.4985
2964.00,2.5250
2963.00,2.5533
2962.00,2.5826
2961.00,2.6121
2960.00,2.6418
2959.00,2.6721
2958.00,2.7027
2957.00,2.7326
2956.00,2.7601
2955.00,2.7843
2954.00,2.8052
2953.00,2.8230
2952.00,2.8393
2951.00,2.8567
2950.00,2.8777
2949.00,2.9030
2948.00,2.9320
2947.00,2.9635
2946.00,2.9958
2945.00,3.0261
2944.00,3.0519
2943.00,3.0731
2942.00,3.0917
2941.00,3.1080
2940.00,3.1210
2939.00,3.1303
2938.00,3.1362
2937.00,3.1369
2936.00,3.1296
2935.00,3.1143
2934.00,3.0937
2933.00,3.0690
2932.00,3.0396
2931.00,3.0055
2930.00,2.9686
2929.00,2.9299
2928.00,2.8887
2927.00,2.8447
2926.00,2.7991
2925.00,2.7542
2924.00,2.7113
2923.00,2.6712
2922.00,2.6343
2921.00,2.6004
2920.00,2.5689
2919.00,2.5390
2918.00,2.5111
2917.00,2.4856
2916.00,2.4634
2915.00,2.4449
2914.00,2.4301
2913.00,2.4185
2912.00,2.4097
2911.00,2.4036
2910.00,2.3998
2909.00,2.3977
2908.00,2.3966
2907.00,2.3962
2906.00,2.3963
2905.00,2.3966
2904.00,2.3968
2903.00,2.3963
2902.00,2.3950
2901.00,2.3935
2900.00,2.3923
2899.00,2.3919
2898.00,2.3927
2897.00,2.3945
2896.00,2.3967
2895.00,2.3989
2894.00,2.4009
2893.00,2.4026
2892.00,2.4041
2891.00,2.4055
2890.00,2.4073
2889.00,2.4094
2888.00,2.4116
2887.00,2.4138
2886.00,2.4165
2885.00,2.4201
2884.00,2.4247
2883.00,2.4298
2882.00,2.4349
2881.00,2.4397
2880.00,2.4446
2879.00,2.4497
2878.00,2.4556
2877.00,2.4625
2876.00,2.4707
2875.00,2.4807
2874.00,2.4928
2873.00,2.5068
2872.00,2.5223
2871.00,2.5392
2870.00,2.5582
2869.00,2.5793
2868.00,2.6018
2867.00,2.6243
2866.00,2.6452
2865.00,2.6628
2864.00,2.6745
2863.00,2.6783
2862.00,2.6743
2861.00,2.6642
2860.00,2.6496
2859.00,2.6308
2858.00,2.6080
2857.00,2.5821
2856.00,2.5550
2855.00,2.5283
2854.00,2.5029
2853.00,2.4790
2852.00,2.4569
2851.00,2.4376
2850.00,2.4220
2849.00,2.4099
2848.00,2.4009
2847.00,2.3940
2846.00,2.3887
2845.00,2.3844
2844.00,2.3810
2843.00,2.3783
2842.00,2.3766
2841.00,2.3760
2840.00,2.3760
2839.00,2.3762
2838.00,2.3762
2837.00,2.3758
2836.00,2.3748
2835.00,2.3734
2834.00,2.3722
2833.00,2.3714
2832.00,2.3707
2831.00,2.3697
2830.00,2.3685
2829.00,2.3672
2828.00,2.3659
2827.00,2.3648
2826.00,2.3638
2825.00,2.3628
2824.00,2.3617
2823.00,2.3603
2822.00,2.3586
2821.00,2.3568
2820.00,2.3547
2819.00,2.3525
2818.00,2.3497
2817.00,2.3462
2816.00,2.3421
2815.00,2.3379
2814.00,2.3343
2813.00,2.3313
2812.00,2.3287
2811.00,2.3262
2810.00,2.3235
2809.00,2.3205
2808.00,2.3173
2807.00,2.3138
2806.00,2.3100
2805.00,2.3057
2804.00,2.3009
2803.00,2.2957
2802.00,2.2908
2801.00,2.2865
2800.00,2.2825
2799.00,2.2786
2798.00,2.2746
2797.00,2.2709
2796.00,2.2671
2795.00,2.2630
2794.00,2.2585
2793.00,2.2537
2792.00,2.2487
2791.00,2.2434
2790.00,2.2379
2789.00,2.2325
2788.00,2.2269
2787.00,2.2209
2786.00,2.2143
2785.00,2.2075
2784.00,2.2008
2783.00,2.1944
2782.00,2.1880
2781.00,2.1814
2780.00,2.1747
2779.00,2.1679
2778.00,2.1611
2777.00,2.1542
2776.00,2.1470
2775.00,2.1397
2774.00,2.1324
2773.00,2.1254
2772.00,2.1185
2771.00,2.1113
2770.00,2.1035
2769.00,2.0951
2768.00,2.0863
2767.00,2.0774
2766.00,2.0686
2765.00,2.0600
2764.00,2.0515
2763.00,2.0431
2762.00,2.0343
2761.00,2.0252
2760.00,2.0156
2759.00,2.0057
2758.00,1.9957
2757.00,1.9856
2756.00,1.9753
2755.00,1.9648
2754.00,1.9540
2753.00,1.9429
2752.00,1.9315
2751.00,1.9198
2750.00,1.9078
2749.00,1.8954
2748.00,1.8828
2747.00,1.8702
2746.00,1.8574
2745.00,1.8442
2744.00,1.8307
2743.00,1.8169
2742.00,1.8028
2741.00,1.7886
2740.00,1.7744
2739.00,1.7602
2738.00,1.7458
2737.00,1.7311
2736.00,1.7161
2735.00,1.7009
2734.00,1.6854
2733.00,1.6698
2732.00,1.6540
2731.00,1.6378
2730.00,1.6214
2729.00,1.6049
2728.00,1.5883
2727.00,1.5714
2726.00,1.5544
2725.00,1.5371
2724.00,1.5198
2723.00,1.5024
2722.00,1.4851
2721.00,1.4678
2720.00,1.4507
2719.00,1.4337
2718.00,1.4170
2717.00,1.4004
2716.00,1.3840
2715.00,1.3677
2714.00,1.3515
2713.00,1.3354
2712.00,1.3196
2711.00,1.3039
2710.00,1.2885
2709.00,1.2734
2708.00,1.2586
2707.00,1.2441
2706.00,1.2300
2705.00,1.2163
2704.00,1.2030
2703.00,1.1902
2702.00,1.1779
2701.00,1.1661
2700.00,1.1549
2699.00,1.1443
2698.00,1.1345
2697.00,1.1253
2696.00,1.1171
2695.00,1.1096
2694.00,1.1030
2693.00,1.0973
2692.00,1.0928
2691.00,1.0894
2690.00,1.0872
2689.00,1.0866
2688.00,1.0874
2687.00,1.0901
2686.00,1.0945
2685.00,1.1008
2684.00,1.1089
2683.00,1.1187
2682.00,1.1301
2681.00,1.1428
2680.00,1.1564
2679.00,1.1705
2678.00,1.1844
2677.00,1.1978
2676.00,1.2105
2675.00,1.2223
2674.00,1.2334
2673.00,1.2440
2672.00,1.2543
2671.00,1.2644
2670.00,1.2742
2669.00,1.2833
2668.00,1.2918
2667.00,1.2996
2666.00,1.3071
2665.00,1.3147
2664.00,1.3231
2663.00,1.3327
2662.00,1.3438
2661.00,1.3565
2660.00,1.3707
2659.00,1.3861
2658.00,1.4024
2657.00,1.4195
2656.00,1.4370
2655.00,1.4547
2654.00,1.4724
2653.00,1.4899
2652.00,1.5073
2651.00,1.5243
2650.00,1.5412
2649.00,1.5578
2648.00,1.5740
2647.00,1.5900
2646.00,1.6058
2645.00,1.6214
2644.00,1.6369
2643.00,1.6522
2642.00,1.6674
2641.00,1.6827
2640.00,1.6981
2639.00,1.7136
2638.00,1.7292
2637.00,1.7448
2636.00,1.7606
2635.00,1.7764
2634.00,1.7922
2633.00,1.8078
2632.00,1.8233
2631.00,1.8383
2630.00,1.8530
2629.00,1.8675
2628.00,1.8817
2627.00,1.8956
2626.00,1.9094
2625.00,1.9230
2624.00,1.9363
2623.00,1.9493
2622.00,1.9620
2621.00,1.9743
2620.00,1.9862
2619.00,1.9979
2618.00,2.0094
2617.00,2.0209
2616.00,2.0322
2615.00,2.0432
2614.00,2.0537
2613.00,2.0639
2612.00,2.0739
2611.00,2.0836
2610.00,2.0929
2609.00,2.1019
2608.00,2.1108
2607.00,2.1198
2606.00,2.1287
2605.00,2.1374
2604.00,2.1460
2603.00,2.1548
2602.00,2.1638
2601.00,2.1730
2600.00,2.1819
2599.00,2.1902
2598.00,2.1983
2597.00,2.2063
2596.00,2.2143
2595.00,2.2224
2594.00,2.2304
2593.00,2.2381
2592.00,2.2455
2591.00,2.2526
2590.00,2.2598
2589.00,2.2670
2588.00,2.2744
2587.00,2.2817
2586.00,2.2888
2585.00,2.2955
2584.00,2.3018
2583.00,2.3079
2582.00,2.3139
2581.00,2.3198
2580.00,2.3256
2579.00,2.3312
2578.00,2.3368
2577.00,2.3427
2576.00,2.3489
2575.00,2.3552
2574.00,2.3611
2573.00,2.3665
2572.00,2.3716
2571.00,2.3762
2570.00,2.3804
2569.00,2.3847
2568.00,2.3894
2567.00,2.3947
2566.00,2.4004
2565.00,2.4058
2564.00,2.4105
2563.00,2.4147
2562.00,2.4187
2561.00,2.4227
2560.00,2.4270
2559.00,2.4319
2558.00,2.4371
2557.00,2.4420
2556.00,2.4461
2555.00,2.4498
2554.00,2.4535
2553.00,2.4576
2552.00,2.4618
2551.00,2.4661
2550.00,2.4703
2549.00,2.4744
2548.00,2.4784
2547.00,2.4820
2546.00,2.4850
2545.00,2.4874
2544.00,2.4892
2543.00,2.4911
2542.00,2.4936
2541.00,2.4967
2540.00,2.4998
2539.00,2.5024
2538.00,2.5048
2537.00,2.5075
2536.00,2.5107
2535.00,2.5143
2534.00,2.5177
2533.00,2.5206
2532.00,2.5230
2531.00,2.5249
2530.00,2.5264
2529.00,2.5281
2528.00,2.5300
2527.00,2.5326
2526.00,2.5356
2525.00,2.5388
2524.00,2.5414
2523.00,2.5433
2522.00,2.5447
2521.00,2.5458
2520.00,2.5465
2519.00,2.5469
2518.00,2.5475
2517.00,2.5485
2516.00,2.5494
2515.00,2.5499
2514.00,2.5504
2513.00,2.5517
2512.00,2.5540
2511.00,2.5567
2510.00,2.5591
2509.00,2.5606
2508.00,2.5612
2507.00,2.5617
2506.00,2.5625
2505.00,2.5635
2504.00,2.5640
2503.00,2.5638
2502.00,2.5630
2501.00,2.5624
2500.00,2.5622
2499.00,2.5627
2498.00,2.5639
2497.00,2.5655
2496.00,2.5670
2495.00,2.5679
2494.00,2.5685
2493.00,2.5689
2492.00,2.5692
2491.00,2.5691
2490.00,2.5687
2489.00,2.5683
2488.00,2.5682
2487.00,2.5684
2486.00,2.5685
2485.00,2.5679
2484.00,2.5665
2483.00,2.5648
2482.00,2.5639
2481.00,2.5640
2480.00,2.5641
2479.00,2.5631
2478.00,2.5610
2477.00,2.5588
2476.00,2.5574
2475.00,2.5571
2474.00,2.5573
2473.00,2.5575
2472.00,2.5573
2471.00,2.5566
2470.00,2.5552
2469.00,2.5531
2468.00,2.5503
2467.00,2.5476
2466.00,2.5458
2465.00,2.5450
2464.00,2.5444
2463.00,2.5430
2462.00,2.5406
2461.00,2.5379
2460.00,2.5357
2459.00,2.5342
2458.00,2.5328
2457.00,2.5310
2456.00,2.5290
2455.00,2.5272
2454.00,2.5257
2453.00,2.5243
2452.00,2.5225
2451.00,2.5198
2450.00,2.5162
2449.00,2.5119
2448.00,2.5078
2447.00,2.5049
2446.00,2.5033
2445.00,2.5019
2444.00,2.4995
2443.00,2.4959
2442.00,2.4921
2441.00,2.4888
2440.00,2.4857
2439.00,2.4826
2438.00,2.4791
2437.00,2.4750
2436.00,2.4703
2435.00,2.4653
2434.00,2.4609
2433.00,2.4576
2432.00,2.4549
2431.00,2.4517
2430.00,2.4477
2429.00,2.4435
2428.00,2.4398
2427.00,2.4363
2426.00,2.4323
2425.00,2.4274
2424.00,2.4219
2423.00,2.4166
2422.00,2.4117
2421.00,2.4071
2420.00,2.4024
2419.00,2.3973
2418.00,2.3918
2417.00,2.3861
2416.00,2.3802
2415.00,2.3741
2414.00,2.3680
2413.00,2.3623
2412.00,2.3566
2411.00,2.3507
2410.00,2.3442
2409.00,2.3372
2408.00,2.3300
2407.00,2.3231
2406.00,2.3167
2405.00,2.3105
2404.00,2.3039
2403.00,2.2967
2402.00,2.2891
2401.00,2.2813
2400.00,2.2737
2399.00,2.2661
2398.00,2.2584
2397.00,2.2502
2396.00,2.2416
2395.00,2.2326
2394.00,2.2234
2393.00,2.2141
2392.00,2.2048
2391.00,2.1954
2390.00,2.1862
2389.00,2.1771
2388.00,2.1678
2387.00,2.1579
2386.00,2.1476
2385.00,2.1368
2384.00,2.1256
2383.00,2.1139
2382.00,2.1016
2381.00,2.0889
2380.00,2.0754
2379.00,2.0611
2378.00,2.0460
2377.00,2.0304
2376.00,2.0145
2375.00,1.9981
2374.00,1.9814
2373.00,1.9643
2372.00,1.9467
2371.00,1.9290
2370.00,1.9113
2369.00,1.8940
2368.00,1.8769
2367.00,1.8598
2366.00,1.8429
2365.00,1.8262
2364.00,1.8098
2363.00,1.7934
2362.00,1.7770
2361.00,1.7606
2360.00,1.7442
2359.00,1.7279
2358.00,1.7117
2357.00,1.6958
2356.00,1.6801
2355.00,1.6646
2354.00,1.6496
2353.00,1.6352
2352.00,1.6219
2351.00,1.6093
2350.00,1.5968
2349.00,1.5831
2348.00,1.5672
2347.00,1.5484
2346.00,1.5275
2345.00,1.5056
2344.00,1.4843
2343.00,1.4643
2342.00,1.4456
2341.00,1.4283
2340.00,1.4121
2339.00,1.3968
2338.00,1.3820
2337.00,1.3675
2336.00,1.3532
2335.00,1.3390
2334.00,1.3248
2333.00,1.3109
2332.00,1.2974
2331.00,1.2840
2330.00,1.2727
2329.00,1.2590
2328.00,1.2520
2327.00,1.2346
2326.00,1.2364
2325.00,1.1991
2324.00,1.4411
2323.00,1.5099
2322.00,1.4682
2321.00,1.4877
2320.00,1.4897
2319.00,1.5075
2318.00,1.5141
2317.00,1.5177
2316.00,1.5142
2315.00,1.5066
2314.00,1.4966
2313.00,1.4845
2312.00,1.4718
2311.00,1.4589
2310.00,1.4481
2309.00,1.4397
2308.00,1.4346
2307.00,1.4314
2306.00,1.4298
2305.00,1.4291
2304.00,1.4298
2303.00,1.4319
2302.00,1.4356
2301.00,1.4409
2300.00,1.4475
2299.00,1.4555
2298.00,1.4647
2297.00,1.4752
2296.00,1.4870
2295.00,1.4998
2294.00,1.5133
2293.00,1.5274
2292.00,1.5419
2291.00,1.5568
2290.00,1.5725
2289.00,1.5892
2288.00,1.6073
2287.00,1.6263
2286.00,1.6458
2285.00,1.6655
2284.00,1.6852
2283.00,1.7048
2282.00,1.7243
2281.00,1.7436
2280.00,1.7631
2279.00,1.7828
2278.00,1.8025
2277.00,1.8220
2276.00,1.8411
2275.00,1.8599
2274.00,1.8784
2273.00,1.8967
2272.00,1.9148
2271.00,1.9324
2270.00,1.9492
2269.00,1.9655
2268.00,1.9815
2267.00,1.9976
2266.00,2.0136
2265.00,2.0294
2264.00,2.0450
2263.00,2.0600
2262.00,2.0744
2261.00,2.0884
2260.00,2.1023
2259.00,2.1160
2258.00,2.1295
2257.00,2.1430
2256.00,2.1563
2255.00,2.1694
2254.00,2.1822
2253.00,2.1945
2252.00,2.2064
2251.00,2.2180
2250.00,2.2294
2249.00,2.2406
2248.00,2.2518
2247.00,2.2629
2246.00,2.2743
2245.00,2.2855
2244.00,2.2962
2243.00,2.3060
2242.00,2.3154
2241.00,2.3250
2240.00,2.3351
2239.00,2.3453
2238.00,2.3554
2237.00,2.3652
2236.00,2.3747
2235.00,2.3839
2234.00,2.3929
2233.00,2.4017
2232.00,2.4106
2231.00,2.4197
2230.00,2.4287
2229.00,2.4374
2228.00,2.4455
2227.00,2.4531
2226.00,2.4605
2225.00,2.4677
2224.00,2.4748
2223.00,2.4820
2222.00,2.4894
2221.00,2.4971
2220.00,2.5051
2219.00,2.5132
2218.00,2.5211
2217.00,2.5283
2216.00,2.5350
2215.00,2.5414
2214.00,2.5480
2213.00,2.5549
2212.00,2.5616
2211.00,2.5677
2210.00,2.5733
2209.00,2.5787
2208.00,2.5844
2207.00,2.5904
2206.00,2.5965
2205.00,2.6019
2204.00,2.6067
2203.00,2.6110
2202.00,2.6156
2201.00,2.6209
2200.00,2.6269
2199.00,2.6336
2198.00,2.6402
2197.00,2.6462
2196.00,2.6513
2195.00,2.6562
2194.00,2.6612
2193.00,2.6664
2192.00,2.6712
2191.00,2.6756
2190.00,2.6803
2189.00,2.6853
2188.00,2.6901
2187.00,2.6943
2186.00,2.6980
2185.00,2.7014
2184.00,2.7042
2183.00,2.7066
2182.00,2.7098
2181.00,2.7148
2180.00,2.7210
2179.00,2.7267
2178.00,2.7311
2177.00,2.7341
2176.00,2.7368
2175.00,2.7396
2174.00,2.7425
2173.00,2.7450
2172.00,2.7468
2171.00,2.7483
2170.00,2.7504
2169.00,2.7541
2168.00,2.7592
2167.00,2.7647
2166.00,2.7695
2165.00,2.7730
2164.00,2.7749
2163.00,2.7759
2162.00,2.7771
2161.00,2.7793
2160.00,2.7824
2159.00,2.7858
2158.00,2.7888
2157.00,2.7912
2156.00,2.7929
2155.00,2.7943
2154.00,2.7960
2153.00,2.7979
2152.00,2.7993
2151.00,2.8000
2150.00,2.8013
2149.00,2.8042
2148.00,2.8078
2147.00,2.8102
2146.00,2.8106
2145.00,2.8106
2144.00,2.8120
2143.00,2.8155
2142.00,2.8201
2141.00,2.8242
2140.00,2.8269
2139.00,2.8277
2138.00,2.8274
2137.00,2.8270
2136.00,2.8270
2135.00,2.8278
2134.00,2.8288
2133.00,2.8293
2132.00,2.8288
2131.00,2.8277
2130.00,2.8270
2129.00,2.8271
2128.00,2.8277
2127.00,2.8286
2126.00,2.8295
2125.00,2.8302
2124.00,2.8299
2123.00,2.8289
2122.00,2.8284
2121.00,2.8296
2120.00,2.8319
2119.00,2.8341
2118.00,2.8355
2117.00,2.8360
2116.00,2.8357
2115.00,2.8345
2114.00,2.8332
2113.00,2.8325
2112.00,2.8324
2111.00,2.8324
2110.00,2.8324
2109.00,2.8325
2108.00,2.8324
2107.00,2.8316
2106.00,2.8303
2105.00,2.8285
2104.00,2.8262
2103.00,2.8239
2102.00,2.8230
2101.00,2.8241
2100.00,2.8258
2099.00,2.8264
2098.00,2.8255
2097.00,2.8240
2096.00,2.8224
2095.00,2.8199
2094.00,2.8166
2093.00,2.8135
2092.00,2.8114
2091.00,2.8098
2090.00,2.8084
2089.00,2.8076
2088.00,2.8076
2087.00,2.8077
2086.00,2.8071
2085.00,2.8059
2084.00,2.8046
2083.00,2.8030
2082.00,2.8004
2081.00,2.7965
2080.00,2.7915
2079.00,2.7865
2078.00,2.7826
2077.00,2.7806
2076.00,2.7805
2075.00,2.7807
2074.00,2.7800
2073.00,2.7777
2072.00,2.7739
2071.00,2.7696
2070.00,2.7656
2069.00,2.7621
2068.00,2.7587
2067.00,2.7546
2066.00,2.7503
2065.00,2.7468
2064.00,2.7447
2063.00,2.7438
2062.00,2.7436
2061.00,2.7432
2060.00,2.7416
2059.00,2.7386
2058.00,2.7352
2057.00,2.7324
2056.00,2.7301
2055.00,2.7270
2054.00,2.7223
2053.00,2.7166
2052.00,2.7104
2051.00,2.7042
2050.00,2.6976
2049.00,2.6906
2048.00,2.6833
2047.00,2.6759
2046.00,2.6694
2045.00,2.6644
2044.00,2.6605
2043.00,2.6563
2042.00,2.6508
2041.00,2.6442
2040.00,2.6377
2039.00,2.6320
2038.00,2.6272
2037.00,2.6225
2036.00,2.6165
2035.00,2.6090
2034.00,2.6006
2033.00,2.5927
2032.00,2.5859
2031.00,2.5795
2030.00,2.5730
2029.00,2.5661
2028.00,2.5586
2027.00,2.5503
2026.00,2.5416
2025.00,2.5331
2024.00,2.5252
2023.00,2.5175
2022.00,2.5093
2021.00,2.5005
2020.00,2.4914
2019.00,2.4823
2018.00,2.4731
2017.00,2.4639
2016.00,2.4545
2015.00,2.4449
2014.00,2.4351
2013.00,2.4254
2012.00,2.4154
2011.00,2.4051
2010.00,2.3945
2009.00,2.3838
2008.00,2.3728
2007.00,2.3611
2006.00,2.3487
2005.00,2.3361
2004.00,2.3234
2003.00,2.3105
2002.00,2.2973
2001.00,2.2840
2000.00,2.2706
1999.00,2.2570
1998.00,2.2429
1997.00,2.2283
1996.00,2.2130
1995.00,2.1972
1994.00,2.1812
1993.00,2.1647
1992.00,2.1473
1991.00,2.1289
1990.00,2.1106
1989.00,2.0933
1988.00,2.0762
1987.00,2.0582
1986.00,2.0392
1985.00,2.0203
1984.00,2.0021
1983.00,1.9840
1982.00,1.9657
1981.00,1.9472
1980.00,1.9288
1979.00,1.9103
1978.00,1.8918
1977.00,1.8733
1976.00,1.8546
1975.00,1.8353
1974.00,1.8155
1973.00,1.7953
1972.00,1.7750
1971.00,1.7544
1970.00,1.7338
1969.00,1.7131
1968.00,1.6922
1967.00,1.6705
1966.00,1.6488
1965.00,1.6280
1964.00,1.6089
1963.00,1.5905
1962.00,1.5720
1961.00,1.5534
1960.00,1.5354
1959.00,1.5183
1958.00,1.5022
1957.00,1.4870
1956.00,1.4727
1955.00,1.4594
1954.00,1.4473
1953.00,1.4367
1952.00,1.4278
1951.00,1.4203
1950.00,1.4141
1949.00,1.4092
1948.00,1.4060
1947.00,1.4042
1946.00,1.4039
1945.00,1.4051
1944.00,1.4077
1943.00,1.4109
1942.00,1.4142
1941.00,1.4188
1940.00,1.4266
1939.00,1.4377
1938.00,1.4505
1937.00,1.4638
1936.00,1.4781
1935.00,1.4942
1934.00,1.5124
1933.00,1.5322
1932.00,1.5532
1931.00,1.5754
1930.00,1.5985
1929.00,1.6226
1928.00,1.6472
1927.00,1.6722
1926.00,1.6977
1925.00,1.7236
1924.00,1.7496
1923.00,1.7750
1922.00,1.7998
1921.00,1.8253
1920.00,1.8523
1919.00,1.8797
1918.00,1.9054
1917.00,1.9290
1916.00,1.9528
1915.00,1.9781
1914.00,2.0034
1913.00,2.0268
1912.00,2.0481
1911.00,2.0689
1910.00,2.0900
1909.00,2.1111
1908.00,2.1320
1907.00,2.1527
1906.00,2.1736
1905.00,2.1940
1904.00,2.2136
1903.00,2.2325
1902.00,2.2511
1901.00,2.2696
1900.00,2.2877
1899.00,2.3053
1898.00,2.3224
1897.00,2.3392
1896.00,2.3556
1895.00,2.3714
1894.00,2.3869
1893.00,2.4025
1892.00,2.4186
1891.00,2.4349
1890.00,2.4502
1889.00,2.4644
1888.00,2.4784
1887.00,2.4934
1886.00,2.5092
1885.00,2.5241
1884.00,2.5372
1883.00,2.5495
1882.00,2.5619
1881.00,2.5745
1880.00,2.5868
1879.00,2.5986
1878.00,2.6107
1877.00,2.6229
1876.00,2.6346
1875.00,2.6456
1874.00,2.6558
1873.00,2.6656
1872.00,2.6756
1871.00,2.6856
1870.00,2.6945
1869.00,2.7015
1868.00,2.7073
1867.00,2.7144
1866.00,2.7243
1865.00,2.7358
1864.00,2.7467
1863.00,2.7559
1862.00,2.7635
1861.00,2.7706
1860.00,2.7781
1859.00,2.7863
1858.00,2.7948
1857.00,2.8033
1856.00,2.8116
1855.00,2.8197
1854.00,2.8276
1853.00,2.8358
1852.00,2.8451
1851.00,2.8558
1850.00,2.8663
1849.00,2.8734
1848.00,2.8771
1847.00,2.8811
1846.00,2.8880
1845.00,2.8959
1844.00,2.9011
1843.00,2.9042
1842.00,2.9097
1841.00,2.9193
1840.00,2.9291
1839.00,2.9359
1838.00,2.9403
1837.00,2.9448
1836.00,2.9508
1835.00,2.9578
1834.00,2.9645
1833.00,2.9704
1832.00,2.9752
1831.00,2.9793
1830.00,2.9837
1829.00,2.9889
1828.00,2.9961
1827.00,3.0054
1826.00,3.0140
1825.00,3.0183
1824.00,3.0183
1823.00,3.0182
1822.00,3.0221
1821.00,3.0297
1820.00,3.0381
1819.00,3.0442
1818.00,3.0469
1817.00,3.0474
1816.00,3.0483
1815.00,3.0510
1814.00,3.0550
1813.00,3.0586
1812.00,3.0620
1811.00,3.0664
1810.00,3.0718
1809.00,3.0766
1808.00,3.0798
1807.00,3.0822
1806.00,3.0855
1805.00,3.0902
1804.00,3.0947
1803.00,3.0973
1802.00,3.0975
1801.00,3.0959
1800.00,3.0936
1799.00,3.0920
1798.00,3.0915
1797.00,3.0921
1796.00,3.0939
1795.00,3.0977
1794.00,3.1038
1793.00,3.1108
1792.00,3.1159
1791.00,3.1188
1790.00,3.1210
1789.00,3.1230
1788.00,3.1239
1787.00,3.1236
1786.00,3.1228
1785.00,3.1217
1784.00,3.1194
1783.00,3.1166
1782.00,3.1154
1781.00,3.1161
1780.00,3.1164
1779.00,3.1152
1778.00,3.1124
1777.00,3.1085
1776.00,3.1050
1775.00,3.1047
1774.00,3.1091
1773.00,3.1146
1772.00,3.1162
1771.00,3.1148
1770.00,3.1154
1769.00,3.1179
1768.00,3.1182
1767.00,3.1152
1766.00,3.1126
1765.00,3.1135
1764.00,3.1144
1763.00,3.1093
1762.00,3.0972
1761.00,3.0837
1760.00,3.0749
1759.00,3.0709
1758.00,3.0664
1757.00,3.0582
1756.00,3.0478
1755.00,3.0397
1754.00,3.0354
1753.00,3.0302
1752.00,3.0189
1751.00,3.0028
1750.00,2.9877
1749.00,2.9770
1748.00,2.9680
1747.00,2.9549
1746.00,2.9361
1745.00,2.9124
1744.00,2.8832
1743.00,2.8496
1742.00,2.8148
1741.00,2.7809
1740.00,2.7461
1739.00,2.7085
1738.00,2.6727
1737.00,2.6468
1736.00,2.6340
1735.00,2.6344
1734.00,2.6521
1733.00,2.6954
1732.00,2.7702
1731.00,2.8711
1730.00,2.9861
1729.00,3.1108
1728.00,3.2443
1727.00,3.3853
1726.00,3.5347
1725.00,3.6960
1724.00,3.8691
1723.00,4.0594
1722.00,4.2860
1721.00,4.6197
1720.00,5.2610
1719.00,5.6248
1718.00,5.2332
1717.00,4.8794
1716.00,4.6634
1715.00,4.6301
1714.00,4.6523
1713.00,4.6274
1712.00,4.5673
1711.00,4.5482
1710.00,4.5742
1709.00,4.6020
1708.00,4.6135
1707.00,4.6010
1706.00,4.5591
1705.00,4.4763
1704.00,4.3356
1703.00,4.1621
1702.00,3.9650
1701.00,3.7323
1700.00,3.4964
1699.00,3.3043
1698.00,3.1694
1697.00,3.0686
1696.00,2.9784
1695.00,2.9032
1694.00,2.8585
1693.00,2.8487
1692.00,2.8612
1691.00,2.8836
1690.00,2.9131
1689.00,2.9484
1688.00,2.9856
1687.00,3.0215
1686.00,3.0552
1685.00,3.0855
1684.00,3.1108
1683.00,3.1319
1682.00,3.1545
1681.00,3.1773
1680.00,3.1925
1679.00,3.1985
1678.00,3.2001
1677.00,3.2015
1676.00,3.2027
1675.00,3.2017
1674.00,3.2007
1673.00,3.2039
1672.00,3.2095
1671.00,3.2114
1670.00,3.2082
1669.00,3.2052
1668.00,3.2066
1667.00,3.2113
1666.00,3.2153
1665.00,3.2157
1664.00,3.2117
1663.00,3.2027
1662.00,3.1921
1661.00,3.1874
1660.00,3.1915
1659.00,3.1989
1658.00,3.2030
1657.00,3.2033
1656.00,3.2045
1655.00,3.2100
1654.00,3.2163
1653.00,3.2172
1652.00,3.2148
1651.00,3.2183
1650.00,3.2236
1649.00,3.2185
1648.00,3.2044
1647.00,3.1891
1646.00,3.1780
1645.00,3.1738
1644.00,3.1743
1643.00,3.1725
1642.00,3.1654
1641.00,3.1565
1640.00,3.1510
1639.00,3.1504
1638.00,3.1521
1637.00,3.1530
1636.00,3.1513
1635.00,3.1466
1634.00,3.1406
1633.00,3.1352
1632.00,3.1292
1631.00,3.1207
1630.00,3.1123
1629.00,3.1068
1628.00,3.1036
1627.00,3.0996
1626.00,3.0935
1625.00,3.0864
1624.00,3.0788
1623.00,3.0693
1622.00,3.0581
1621.00,3.0488
1620.00,3.0439
1619.00,3.0411
1618.00,3.0367
1617.00,3.0293
1616.00,3.0209
1615.00,3.0139
1614.00,3.0073
1613.00,2.9983
1612.00,2.9879
1611.00,2.9791
1610.00,2.9727
1609.00,2.9667
1608.00,2.9591
1607.00,2.9502
1606.00,2.9413
1605.00,2.9324
1604.00,2.9217
1603.00,2.9092
1602.00,2.8962
1601.00,2.8849
1600.00,2.8756
1599.00,2.8668
1598.00,2.8575
1597.00,2.8473
1596.00,2.8360
1595.00,2.8227
1594.00,2.8073
1593.00,2.7920
1592.00,2.7784
1591.00,2.7662
1590.00,2.7538
1589.00,2.7408
1588.00,2.7268
1587.00,2.7116
1586.00,2.6955
1585.00,2.6796
1584.00,2.6643
1583.00,2.6493
1582.00,2.6342
1581.00,2.6195
1580.00,2.6064
1579.00,2.5955
1578.00,2.5864
1577.00,2.5774
1576.00,2.5665
1575.00,2.5523
1574.00,2.5352
1573.00,2.5153
1572.00,2.4911
1571.00,2.4628
1570.00,2.4317
1569.00,2.4016
1568.00,2.3760
1567.00,2.3543
1566.00,2.3315
1565.00,2.3044
1564.00,2.2754
1563.00,2.2496
1562.00,2.2299
1561.00,2.2126
1560.00,2.1904
1559.00,2.1568
1558.00,2.1207
1557.00,2.0954
1556.00,2.0748
1555.00,2.0461
1554.00,2.0083
1553.00,1.9698
1552.00,1.9374
1551.00,1.9096
1550.00,1.8808
1549.00,1.8517
1548.00,1.8278
1547.00,1.8105
1546.00,1.7950
1545.00,1.7776
1544.00,1.7604
1543.00,1.7493
1542.00,1.7462
1541.00,1.7476
1540.00,1.7500
1539.00,1.7517
1538.00,1.7531
1537.00,1.7548
1536.00,1.7565
1535.00,1.7584
1534.00,1.7640
1533.00,1.7763
1532.00,1.7979
1531.00,1.8281
1530.00,1.8622
1529.00,1.8969
1528.00,1.9321
1527.00,1.9690
1526.00,2.0081
1525.00,2.0485
1524.00,2.0883
1523.00,2.1252
1522.00,2.1554
1521.00,2.1756
1520.00,2.1870
1519.00,2.1949
1518.00,2.2007
1517.00,2.2026
1516.00,2.2038
1515.00,2.2107
1514.00,2.2263
1513.00,2.2473
1512.00,2.2695
1511.00,2.2923
1510.00,2.3172
1509.00,2.3448
1508.00,2.3748
1507.00,2.4081
1506.00,2.4462
1505.00,2.4861
1504.00,2.5207
1503.00,2.5450
1502.00,2.5602
1501.00,2.5733
1500.00,2.5895
1499.00,2.6104
1498.00,2.6356
1497.00,2.6627
1496.00,2.6889
1495.00,2.7128
1494.00,2.7353
1493.00,2.7565
1492.00,2.7759
1491.00,2.7943
1490.00,2.8137
1489.00,2.8342
1488.00,2.8534
1487.00,2.8686
1486.00,2.8802
1485.00,2.8906
1484.00,2.9012
1483.00,2.9136
1482.00,2.9286
1481.00,2.9455
1480.00,2.9640
1479.00,2.9847
1478.00,3.0063
1477.00,3.0250
1476.00,3.0393
1475.00,3.0528
1474.00,3.0693
1473.00,3.0855
1472.00,3.0968
1471.00,3.1080
1470.00,3.1262
1469.00,3.1500
1468.00,3.1719
1467.00,3.1882
1466.00,3.2017
1465.00,3.2155
1464.00,3.2293
1463.00,3.2425
1462.00,3.2555
1461.00,3.2681
1460.00,3.2798
1459.00,3.2923
1458.00,3.3069
1457.00,3.3237
1456.00,3.3458
1455.00,3.3813
1454.00,3.4304
1453.00,3.4768
1452.00,3.5006
1451.00,3.4941
1450.00,3.4640
1449.00,3.4180
1448.00,3.3602
1447.00,3.2993
1446.00,3.2468
1445.00,3.2070
1444.00,3.1794
1443.00,3.1643
1442.00,3.1621
1441.00,3.1714
1440.00,3.1889
1439.00,3.2112
1438.00,3.2345
1437.00,3.2545
1436.00,3.2708
1435.00,3.2900
1434.00,3.3158
1433.00,3.3412
1432.00,3.3570
1431.00,3.3622
1430.00,3.3606
1429.00,3.3546
1428.00,3.3466
1427.00,3.3422
1426.00,3.3451
1425.00,3.3505
1424.00,3.3503
1423.00,3.3447
1422.00,3.3387
1421.00,3.3311
1420.00,3.3155
1419.00,3.2912
1418.00,3.2670
1417.00,3.2510
1416.00,3.2421
1415.00,3.2368
1414.00,3.2341
1413.00,3.2339
1412.00,3.2352
1411.00,3.2391
1410.00,3.2478
1409.00,3.2603
1408.00,3.2712
1407.00,3.2771
1406.00,3.2811
1405.00,3.2885
1404.00,3.3011
1403.00,3.3159
1402.00,3.3277
1401.00,3.3320
1400.00,3.3288
1399.00,3.3231
1398.00,3.3223
1397.00,3.3297
1396.00,3.3425
1395.00,3.3555
1394.00,3.3648
1393.00,3.3696
1392.00,3.3733
1391.00,3.3803
1390.00,3.3905
1389.00,3.4010
1388.00,3.4097
1387.00,3.4177
1386.00,3.4255
1385.00,3.4295
1384.00,3.4280
1383.00,3.4278
1382.00,3.4373
1381.00,3.4553
1380.00,3.4704
1379.00,3.4724
1378.00,3.4629
1377.00,3.4502
1376.00,3.4415
1375.00,3.4406
1374.00,3.4472
1373.00,3.4571
1372.00,3.4672
1371.00,3.4780
1370.00,3.4896
1369.00,3.4970
1368.00,3.4956
1367.00,3.4880
1366.00,3.4804
1365.00,3.4748
1364.00,3.4717
1363.00,3.4759
1362.00,3.4911
1361.00,3.5109
1360.00,3.5241
1359.00,3.5299
1358.00,3.5364
1357.00,3.5439
1356.00,3.5420
1355.00,3.5251
1354.00,3.5040
1353.00,3.4944
1352.00,3.5047
1351.00,3.5345
1350.00,3.5769
1349.00,3.6164
1348.00,3.6345
1347.00,3.6260
1346.00,3.6050
1345.00,3.5877
1344.00,3.5793
1343.00,3.5762
1342.00,3.5735
1341.00,3.5703
1340.00,3.5716
1339.00,3.5837
1338.00,3.6047
1337.00,3.6222
1336.00,3.6239
1335.00,3.6113
1334.00,3.5951
1333.00,3.5811
1332.00,3.5677
1331.00,3.5536
1330.00,3.5431
1329.00,3.5407
1328.00,3.5471
1327.00,3.5572
1326.00,3.5625
1325.00,3.5579
1324.00,3.5483
1323.00,3.5435
1322.00,3.5449
1321.00,3.5434
1320.00,3.5341
1319.00,3.5265
1318.00,3.5325
1317.00,3.5516
1316.00,3.5742
1315.00,3.5975
1314.00,3.6298
1313.00,3.6776
1312.00,3.7321
1311.00,3.7711
1310.00,3.7746
1309.00,3.7401
1308.00,3.6814
1307.00,3.6192
1306.00,3.5711
1305.00,3.5438
1304.00,3.5336
1303.00,3.5326
1302.00,3.5329
1301.00,3.5300
1300.00,3.5251
1299.00,3.5245
1298.00,3.5344
1297.00,3.5555
1296.00,3.5796
1295.00,3.5929
1294.00,3.5860
1293.00,3.5609
1292.00,3.5319
1291.00,3.5136
1290.00,3.5102
1289.00,3.5153
1288.00,3.5201
1287.00,3.5252
1286.00,3.5389
1285.00,3.5633
1284.00,3.5882
1283.00,3.5976
1282.00,3.5838
1281.00,3.5538
1280.00,3.5219
1279.00,3.5002
1278.00,3.4929
1277.00,3.4966
1276.00,3.5049
1275.00,3.5147
1274.00,3.5252
1273.00,3.5333
1272.00,3.5333
1271.00,3.5228
1270.00,3.5046
1269.00,3.4853
1268.00,3.4734
1267.00,3.4751
1266.00,3.4890
1265.00,3.5042
1264.00,3.5102
1263.00,3.5073
1262.00,3.5029
1261.00,3.4988
1260.00,3.4901
1259.00,3.4743
1258.00,3.4544
1257.00,3.4357
1256.00,3.4237
1255.00,3.4235
1254.00,3.4345
1253.00,3.4462
1252.00,3.4458
1251.00,3.4322
1250.00,3.4171
1249.00,3.4095
1248.00,3.4079
1247.00,3.4059
1246.00,3.4015
1245.00,3.3961
1244.00,3.3897
1243.00,3.3812
1242.00,3.3700
1241.00,3.3561
1240.00,3.3400
1239.00,3.3230
1238.00,3.3063
1237.00,3.2910
1236.00,3.2795
1235.00,3.2738
1234.00,3.2718
1233.00,3.2674
1232.00,3.2579
1231.00,3.2484
1230.00,3.2465
1229.00,3.2565
1228.00,3.2805
1227.00,3.3226
1226.00,3.3869
1225.00,3.4732
1224.00,3.5770
1223.00,3.6948
1222.00,3.8193
1221.00,3.9155
1220.00,3.9257
1219.00,3.8504
1218.00,3.7545
1217.00,3.6809
1216.00,3.6326
1215.00,3.5990
1214.00,3.5716
1213.00,3.5452
1212.00,3.5182
1211.00,3.4915
1210.00,3.4672
1209.00,3.4472
1208.00,3.4320
1207.00,3.4244
1206.00,3.4246
1205.00,3.4241
1204.00,3.4109
1203.00,3.3845
1202.00,3.3563
1201.00,3.3340
1200.00,3.3146
1199.00,3.2933
1198.00,3.2702
1197.00,3.2482
1196.00,3.2280
1195.00,3.2085
1194.00,3.1892
1193.00,3.1703
1192.00,3.1512
1191.00,3.1318
1190.00,3.1136
1189.00,3.0983
1188.00,3.0856
1187.00,3.0727
1186.00,3.0571
1185.00,3.0381
1184.00,3.0171
1183.00,2.9960
1182.00,2.9755
1181.00,2.9546
1180.00,2.9316
1179.00,2.9056
1178.00,2.8771
1177.00,2.8479
1176.00,2.8203
1175.00,2.7960
1174.00,2.7743
1173.00,2.7519
1172.00,2.7255
1171.00,2.6947
1170.00,2.6614
1169.00,2.6279
1168.00,2.5961
1167.00,2.5675
1166.00,2.5423
1165.00,2.5192
1164.00,2.4967
1163.00,2.4747
1162.00,2.4538
1161.00,2.4346
1160.00,2.4168
1159.00,2.4003
1158.00,2.3857
1157.00,2.3737
1156.00,2.3651
1155.00,2.3602
1154.00,2.3591
1153.00,2.3619
1152.00,2.3690
1151.00,2.3808
1150.00,2.3972
1149.00,2.4181
1148.00,2.4432
1147.00,2.4727
1146.00,2.5066
1145.00,2.5443
1144.00,2.5851
1143.00,2.6286
1142.00,2.6733
1141.00,2.7172
1140.00,2.7598
1139.00,2.8039
1138.00,2.8527
1137.00,2.9049
1136.00,2.9561
1135.00,3.0044
1134.00,3.0529
1133.00,3.1043
1132.00,3.1560
1131.00,3.2035
1130.00,3.2476
1129.00,3.2939
1128.00,3.3455
1127.00,3.4009
1126.00,3.4605
1125.00,3.5292
1124.00,3.6069
1123.00,3.6763
1122.00,3.7133
1121.00,3.7240
1120.00,3.7338
1119.00,3.7456
1118.00,3.7388
1117.00,3.6828
1116.00,3.5749
1115.00,3.4514
1114.00,3.3369
1113.00,3.2371
1112.00,3.1546
1111.00,3.0927
1110.00,3.0516
1109.00,3.0295
1108.00,3.0255
1107.00,3.0404
1106.00,3.0701
1105.00,3.1035
1104.00,3.1322
1103.00,3.1605
1102.00,3.1998
1101.00,3.2523
1100.00,3.3059
1099.00,3.3454
1098.00,3.3670
1097.00,3.3774
1096.00,3.3868
1095.00,3.4064
1094.00,3.4437
1093.00,3.4969
1092.00,3.5569
1091.00,3.6145
1090.00,3.6579
1089.00,3.6727
1088.00,3.6573
1087.00,3.6307
1086.00,3.6272
1085.00,3.6623
1084.00,3.7139
1083.00,3.7455
1082.00,3.7542
1081.00,3.7602
1080.00,3.7641
1079.00,3.7569
1078.00,3.7455
1077.00,3.7517
1076.00,3.7863
1075.00,3.8303
1074.00,3.8564
1073.00,3.8581
1072.00,3.8428
1071.00,3.8233
1070.00,3.8002
1069.00,3.7681
1068.00,3.7340
1067.00,3.7149
1066.00,3.7244
1065.00,3.7618
1064.00,3.8055
1063.00,3.8380
1062.00,3.8808
1061.00,3.9735
1060.00,4.1290
1059.00,4.2857
1058.00,4.2878
1057.00,4.1833
1056.00,4.0907
1055.00,4.0250
1054.00,3.9989
1053.00,4.0120
1052.00,3.9991
1051.00,3.9233
1050.00,3.8446
1049.00,3.8038
1048.00,3.8024
1047.00,3.8255
1046.00,3.8612
1045.00,3.8980
1044.00,3.8986
1043.00,3.8301
1042.00,3.7429
1041.00,3.7051
1040.00,3.7386
1039.00,3.8253
1038.00,3.9145
1037.00,3.9656
1036.00,3.9991
1035.00,4.0436
1034.00,4.0835
1033.00,4.1108
1032.00,4.1541
1031.00,4.2399
1030.00,4.3482
1029.00,4.3729
1028.00,4.2636
1027.00,4.1401
1026.00,4.0952
1025.00,4.1630
1024.00,4.3077
1023.00,4.3158
1022.00,4.2527
1021.00,4.1880
1020.00,4.1027
1019.00,4.0549
1018.00,4.0209
1017.00,3.9872
1016.00,3.9907
1015.00,4.0533
1014.00,4.1615
1013.00,4.2208
1012.00,4.1483
1011.00,4.0519
1010.00,3.9946
1009.00,3.9796
1008.00,4.0191
1007.00,4.1391
1006.00,4.3345
1005.00,4.4142
1004.00,4.3740
1003.00,4.4203
1002.00,4.5987
1001.00,4.6671
1000.00,4.3818
999.00,4.2072
998.00,4.1135
997.00,4.0789
996.00,4.1173
995.00,4.1807
994.00,4.1538
993.00,4.1127
992.00,4.1371
991.00,4.2021
990.00,4.2319
989.00,4.1774
988.00,4.0916
987.00,4.0585
986.00,4.1457
985.00,4.4317
984.00,4.7530
983.00,4.5959
982.00,4.7917
981.00,5.2427
980.00,4.9254
979.00,4.7868
978.00,4.5147
977.00,4.3696
976.00,4.2720
975.00,4.1520
974.00,4.0588
973.00,4.0287
972.00,4.0591
971.00,4.1320
970.00,4.2217
969.00,4.2896
968.00,4.2669
967.00,4.1908
966.00,4.1690
965.00,4.2173
964.00,4.2934
963.00,4.3344
962.00,4.3498
961.00,4.3590
960.00,4.3523
959.00,4.3613
958.00,4.3392
957.00,4.2750
956.00,4.2507
955.00,4.3144
954.00,4.5177
953.00,5.0348
952.00,5.0171
951.00,4.5320
950.00,4.3499
949.00,4.2620
948.00,4.1999
947.00,4.1577
946.00,4.1526
945.00,4.1736
944.00,4.2396
943.00,4.3715
942.00,4.3231
941.00,4.1901
940.00,4.1610
939.00,4.1889
938.00,4.2261
937.00,4.2695
936.00,4.3031
935.00,4.3143
934.00,4.3279
933.00,4.3643
932.00,4.4160
931.00,4.4643
930.00,4.4819
929.00,4.4567
928.00,4.4335
927.00,4.4753
926.00,4.6315
925.00,4.8597
924.00,4.8930
923.00,4.8077
922.00,4.6048
921.00,4.3853
920.00,4.2276
919.00,4.1351
918.00,4.1127
917.00,4.1587
916.00,4.2626
915.00,4.3910
914.00,4.3419
913.00,4.1784
912.00,4.0896
911.00,4.0877
910.00,4.1805
909.00,4.3469
908.00,4.4366
907.00,4.3727
906.00,4.2661
905.00,4.1862
904.00,4.1642
903.00,4.1873
902.00,4.2065
901.00,4.2100
900.00,4.2167
899.00,4.2305
898.00,4.2605
897.00,4.2814
896.00,4.2484
895.00,4.1775
894.00,4.0712
893.00,3.9908
892.00,3.9900
891.00,4.0616
890.00,4.1979
889.00,4.3491
888.00,4.2965
887.00,4.2087
886.00,4.2121
885.00,4.2088
884.00,4.1571
883.00,4.1753
882.00,4.3305
881.00,4.4352
880.00,4.3352
879.00,4.2659
878.00,4.1825
877.00,4.0937
876.00,4.0419
875.00,4.0340
874.00,4.0783
873.00,4.1743
872.00,4.2824
871.00,4.3157
870.00,4.2634
869.00,4.2115
868.00,4.2128
867.00,4.2721
866.00,4.3931
865.00,4.6307
864.00,4.9725
863.00,4.8081
862.00,4.3681
861.00,4.1157
860.00,4.0356
859.00,4.1547
858.00,4.6051
857.00,4.8914
856.00,5.0529
855.00,4.6609
854.00,4.2613
853.00,4.1784
852.00,4.2231
851.00,4.2062
850.00,4.0779
849.00,4.0067
848.00,4.0626
847.00,4.2665
846.00,4.6647
845.00,5.0482
844.00,4.6688
843.00,4.3539
842.00,4.3187
841.00,4.6733
840.00,4.6153
839.00,4.2083
838.00,4.0911
837.00,4.0720
836.00,4.0820
835.00,4.1605
834.00,4.3335
833.00,4.3850
832.00,4.2309
831.00,4.1282
830.00,4.0967
829.00,4.1269
828.00,4.2205
827.00,4.3796
826.00,4.5995
825.00,4.6832
824.00,4.4657
823.00,4.2806
822.00,4.1694
821.00,4.0842
820.00,4.0372
819.00,4.0523
818.00,4.1429
817.00,4.3261
816.00,4.7094
815.00,5.3752
814.00,4.9642
813.00,4.7497
812.00,4.4958
811.00,4.2487
810.00,4.0994
809.00,4.0604
808.00,4.1796
807.00,4.5766
806.00,4.6990
805.00,4.4930
804.00,4.6795
803.00,4.7504
802.00,4.5718
801.00,4.6949
800.00,4.8233
799.00,4.4941
798.00,4.3743
797.00,4.4456
796.00,4.4762
795.00,4.3575
794.00,4.3483
793.00,4.3983
792.00,4.5799
791.00,5.2657
790.00,4.6277
789.00,4.4845
788.00,4.3891
787.00,4.1694
786.00,4.0532
785.00,4.0241
784.00,4.0516
783.00,4.0889
782.00,4.1305
781.00,4.2182
780.00,4.4340
779.00,4.5911
778.00,4.6035
777.00,4.7251
776.00,4.3444
775.00,4.1588
774.00,4.1786
773.00,4.4195
772.00,5.0090
771.00,4.4587
770.00,4.2073
769.00,4.1887
768.00,4.3320
767.00,4.5471
766.00,4.4525
765.00,4.3202
764.00,4.2939
763.00,4.3195
762.00,4.3709
761.00,4.4056
760.00,4.3322
759.00,4.3186
758.00,4.4017
757.00,4.2979
756.00,4.1462
755.00,4.1626
754.00,4.2458
753.00,4.1471
752.00,4.0633
751.00,4.0823
750.00,4.1212
749.00,4.1927
748.00,4.2481
747.00,4.1983
746.00,4.2019
745.00,4.2809
744.00,4.2670
743.00,4.1323
742.00,4.0053
741.00,3.9396
740.00,3.9429
739.00,3.9700
738.00,3.9597
737.00,3.9681
736.00,4.0772
735.00,4.1851
734.00,4.0986
733.00,3.9920
732.00,3.9267
731.00,3.8705
730.00,3.8233
729.00,3.7948
728.00,3.7982
727.00,3.8451
726.00,3.9369
725.00,4.0709
724.00,4.2283
723.00,4.5202
722.00,4.7697
721.00,4.5746
720.00,4.4993
719.00,4.1368
718.00,3.8876
717.00,3.8066
716.00,3.8147
715.00,3.8719
714.00,3.9356
713.00,3.9797
712.00,4.0108
711.00,4.0934
710.00,4.2520
709.00,4.2875
708.00,4.1298
707.00,4.0607
706.00,4.1202
705.00,4.2610
704.00,4.3387
703.00,4.2782
702.00,4.2140
701.00,4.2313
700.00,4.3501
699.00,4.4024
698.00,4.3646
697.00,4.3916
696.00,4.3780
695.00,4.3042
694.00,4.3423
693.00,4.3415
692.00,4.1737
691.00,4.0991
690.00,4.1416
689.00,4.2219
688.00,4.1918
687.00,4.0707
686.00,4.0004
685.00,4.0314
684.00,4.1781
683.00,4.5191
682.00,4.8652
681.00,4.5039
680.00,4.3757
679.00,4.2577
678.00,4.0821
677.00,3.9985
676.00,4.0075
675.00,4.0791
674.00,4.2773
673.00,4.5348
672.00,4.3695
671.00,4.1775
670.00,4.1783
669.00,4.3776
668.00,4.2429
667.00,4.1330
666.00,4.2614
665.00,4.3195
664.00,4.3180
663.00,4.2918
662.00,4.3054
661.00,4.2885
660.00,4.1442
659.00,4.0021
658.00,3.9739
657.00,4.0509
656.00,4.1501
655.00,4.1137
654.00,4.0340
653.00,4.0237
652.00,4.2299
651.00,4.5841
650.00,4.2088
649.00,4.0433
648.00,4.0736
647.00,4.2149
646.00,4.4024
645.00,4.5700
644.00,4.7991
643.00,4.5077
642.00,4.3440
641.00,4.3617
640.00,4.4304
639.00,4.4097
638.00,4.3149
637.00,4.3054
636.00,4.2997
635.00,4.2315
634.00,4.2249
633.00,4.3183
632.00,4.4847
631.00,4.7825
630.00,5.1594
629.00,4.6510
628.00,4.5289
627.00,4.9627
626.00,4.5751
625.00,4.1568
624.00,4.0752
623.00,4.2682
622.00,4.2104
621.00,3.8727
620.00,3.7617
619.00,3.7924
618.00,3.8451
617.00,3.8410
616.00,3.8572
615.00,3.9493
614.00,4.0956
613.00,4.2607
612.00,4.3752
611.00,4.6631
610.00,4.8703
609.00,4.5488
608.00,4.4265
607.00,4.6896
606.00,4.5923
605.00,4.0764
604.00,3.8989
603.00,3.8635
602.00,3.9018
601.00,3.9913
600.00,3.9891
599.00,3.8843
598.00,3.8167
597.00,3.8364
596.00,3.9417
595.00,4.0186
594.00,3.9487
593.00,3.9440
592.00,4.0681
591.00,4.1255
590.00,4.0056
589.00,3.8480
588.00,3.7151
587.00,3.6367
586.00,3.6189
585.00,3.6317
584.00,3.6297
583.00,3.6017
582.00,3.5918
581.00,3.6472
580.00,3.7887
579.00,3.9934
578.00,4.1336
577.00,4.0677
576.00,3.9006
575.00,3.7514
574.00,3.6664
573.00,3.6454
572.00,3.6679
571.00,3.6777
570.00,3.6858
569.00,3.7174
568.00,3.8923
567.00,4.2526
566.00,4.0953
565.00,3.8779
564.00,3.9637
563.00,4.1661
562.00,3.9592
561.00,3.7663
560.00,3.8497
559.00,4.2046
558.00,4.0119
557.00,3.7489
556.00,3.7121
555.00,3.7682
554.00,3.8583
553.00,3.8378
552.00,3.7092
551.00,3.5876
550.00,3.5422
549.00,3.5672
548.00,3.6467
547.00,3.7852
546.00,3.8851
545.00,3.8141
544.00,3.6756
543.00,3.5666
542.00,3.5161
541.00,3.5463
540.00,3.6297
539.00,3.7990
538.00,4.0184
537.00,3.8013
536.00,3.5491
535.00,3.4231
534.00,3.3732
533.00,3.3843
532.00,3.4355
531.00,3.5291
530.00,3.6577
529.00,3.7926
528.00,3.8443
527.00,3.8147
526.00,3.7535
525.00,3.8499
524.00,4.0305
523.00,4.2329
522.00,4.5622
521.00,3.8463
520.00,3.5263
519.00,3.3796
518.00,3.3179
517.00,3.3380
516.00,3.3583
515.00,3.3698
514.00,3.3965
513.00,3.4245
512.00,3.4141
511.00,3.3879
510.00,3.3970
509.00,3.4705
508.00,3.6052
507.00,3.6953
506.00,3.8632
505.00,3.8721
504.00,3.4892
503.00,3.3278
502.00,3.3392
501.00,3.4434
500.00,3.5624
499.00,3.5945
498.00,3.5490
497.00,3.4998
496.00,3.5234
495.00,3.6440
494.00,3.8717
493.00,4.0893
492.00,4.0509
491.00,4.1727
490.00,4.2570
489.00,3.6919
488.00,3.4100
487.00,3.3284
486.00,3.3578
485.00,3.4287
484.00,3.4581
483.00,3.4560
482.00,3.4458
481.00,3.4224
480.00,3.3784
479.00,3.3535
478.00,3.3487
477.00,3.3669
476.00,3.4013
475.00,3.5460
474.00,3.8168
473.00,3.6633
472.00,3.5491
471.00,3.6279
470.00,3.7268
469.00,3.6377
468.00,3.4550
467.00,3.3446
466.00,3.4419
465.00,3.9007
464.00,3.7866
463.00,3.6448
462.00,3.9037
461.00,3.8414
460.00,3.6731
459.00,3.6627
458.00,3.6445
457.00,3.5277
456.00,3.5763
455.00,3.8910
454.00,3.7729
453.00,3.5598
452.00,3.4926
451.00,3.4712
450.00,3.5190
449.00,3.7812
448.00,4.1602
447.00,3.7589
446.00,3.7630
445.00,3.9131
444.00,3.7994
443.00,3.6495
442.00,3.8082
441.00,4.0767
440.00,3.5018
439.00,3.3563
438.00,3.4153
437.00,3.5333
436.00,3.5608
435.00,3.4621
434.00,3.3707
433.00,3.4901
432.00,3.7396
431.00,3.3554
430.00,3.1687
429.00,3.1424
428.00,3.1330
427.00,3.1161
426.00,3.0997
425.00,3.1443
424.00,3.2462
423.00,3.3206
422.00,3.3535
421.00,3.3980
420.00,3.3701
419.00,3.3204
418.00,3.3563
417.00,3.4385
416.00,3.5737
415.00,3.5946
414.00,3.6407
413.00,3.6319
412.00,3.3179
411.00,3.1060
410.00,3.2705
409.00,3.7326
408.00,3.2228
407.00,3.0666
406.00,3.2384
405.00,3.6980
404.00,3.4618
403.00,3.0809
402.00,3.0624
401.00,3.1163
400.00,2.9254
