Created as New Dataset,Sample 161 By Administrator Date Friday, November 26 2021
cm-1,A
7000.00,1.1189
6999.00,1.1164
6998.00,1.1134
6997.00,1.1104
6996.00,1.1075
6995.00,1.1049
6994.00,1.1024
6993.00,1.0997
6992.00,1.0967
6991.00,1.0935
6990.00,1.0903
6989.00,1.0870
6988.00,1.0837
6987.00,1.0804
6986.00,1.0771
6985.00,1.0739
6984.00,1.0707
6983.00,1.0677
6982.00,1.0647
6981.00,1.0617
6980.00,1.0584
6979.00,1.0550
6978.00,1.0518
6977.00,1.0487
6976.00,1.0455
6975.00,1.0419
6974.00,1.0380
6973.00,1.0340
6972.00,1.0301
6971.00,1.0263
6970.00,1.0226
6969.00,1.0190
6968.00,1.0156
6967.00,1.0122
6966.00,1.0088
6965.00,1.0055
6964.00,1.0020
6963.00,0.9983
6962.00,0.9946
6961.00,0.9906
6960.00,0.9865
6959.00,0.9823
6958.00,0.9781
6957.00,0.9740
6956.00,0.9699
6955.00,0.9659
6954.00,0.9619
6953.00,0.9582
6952.00,0.9545
6951.00,0.9508
6950.00,0.9469
6949.00,0.9428
6948.00,0.9386
6947.00,0.9345
6946.00,0.9305
6945.00,0.9265
6944.00,0.9225
6943.00,0.9185
6942.00,0.9147
6941.00,0.9111
6940.00,0.9075
6939.00,0.9038
6938.00,0.9000
6937.00,0.8962
6936.00,0.8924
6935.00,0.8884
6934.00,0.8843
6933.00,0.8801
6932.00,0.8760
6931.00,0.8720
6930.00,0.8682
6929.00,0.8645
6928.00,0.8609
6927.00,0.8574
6926.00,0.8539
6925.00,0.8503
6924.00,0.8465
6923.00,0.8427
6922.00,0.8389
6921.00,0.8354
6920.00,0.8320
6919.00,0.8285
6918.00,0.8251
6917.00,0.8218
6916.00,0.8188
6915.00,0.8157
6914.00,0.8126
6913.00,0.8093
6912.00,0.8059
6911.00,0.8026
6910.00,0.7994
6909.00,0.7963
6908.00,0.7932
6907.00,0.7902
6906.00,0.7873
6905.00,0.7847
6904.00,0.7822
6903.00,0.7797
6902.00,0.7770
6901.00,0.7743
6900.00,0.7715
6899.00,0.7687
6898.00,0.7661
6897.00,0.7638
6896.00,0.7616
6895.00,0.7596
6894.00,0.7577
6893.00,0.7558
6892.00,0.7540
6891.00,0.7520
6890.00,0.7499
6889.00,0.7478
6888.00,0.7458
6887.00,0.7440
6886.00,0.7423
6885.00,0.7408
6884.00,0.7394
6883.00,0.7381
6882.00,0.7368
6881.00,0.7355
6880.00,0.7344
6879.00,0.7334
6878.00,0.7325
6877.00,0.7316
6876.00,0.7308
6875.00,0.7299
6874.00,0.7291
6873.00,0.7284
6872.00,0.7278
6871.00,0.7273
6870.00,0.7268
6869.00,0.7265
6868.00,0.7263
6867.00,0.7261
6866.00,0.7261
6865.00,0.7262
6864.00,0.7265
6863.00,0.7268
6862.00,0.7272
6861.00,0.7277
6860.00,0.7283
6859.00,0.7290
6858.00,0.7296
6857.00,0.7304
6856.00,0.7313
6855.00,0.7322
6854.00,0.7331
6853.00,0.7341
6852.00,0.7352
6851.00,0.7363
6850.00,0.7374
6849.00,0.7386
6848.00,0.7400
6847.00,0.7414
6846.00,0.7430
6845.00,0.7448
6844.00,0.7467
6843.00,0.7486
6842.00,0.7508
6841.00,0.7531
6840.00,0.7555
6839.00,0.7578
6838.00,0.7600
6837.00,0.7622
6836.00,0.7645
6835.00,0.7668
6834.00,0.7691
6833.00,0.7716
6832.00,0.7742
6831.00,0.7771
6830.00,0.7801
6829.00,0.7832
6828.00,0.7863
6827.00,0.7894
6826.00,0.7926
6825.00,0.7959
6824.00,0.7991
6823.00,0.8022
6822.00,0.8051
6821.00,0.8081
6820.00,0.8113
6819.00,0.8146
6818.00,0.8179
6817.00,0.8214
6816.00,0.8250
6815.00,0.8286
6814.00,0.8323
6813.00,0.8360
6812.00,0.8396
6811.00,0.8431
6810.00,0.8466
6809.00,0.8501
6808.00,0.8537
6807.00,0.8573
6806.00,0.8611
6805.00,0.8649
6804.00,0.8687
6803.00,0.8724
6802.00,0.8761
6801.00,0.8802
6800.00,0.8843
6799.00,0.8883
6798.00,0.8923
6797.00,0.8962
6796.00,0.9003
6795.00,0.9043
6794.00,0.9084
6793.00,0.9124
6792.00,0.9164
6791.00,0.9205
6790.00,0.9246
6789.00,0.9286
6788.00,0.9325
6787.00,0.9362
6786.00,0.9400
6785.00,0.9440
6784.00,0.9482
6783.00,0.9525
6782.00,0.9568
6781.00,0.9612
6780.00,0.9655
6779.00,0.9695
6778.00,0.9733
6777.00,0.9772
6776.00,0.9811
6775.00,0.9850
6774.00,0.9890
6773.00,0.9932
6772.00,0.9975
6771.00,1.0016
6770.00,1.0054
6769.00,1.0091
6768.00,1.0132
6767.00,1.0174
6766.00,1.0215
6765.00,1.0253
6764.00,1.0290
6763.00,1.0330
6762.00,1.0369
6761.00,1.0407
6760.00,1.0442
6759.00,1.0475
6758.00,1.0511
6757.00,1.0550
6756.00,1.0590
6755.00,1.0629
6754.00,1.0665
6753.00,1.0701
6752.00,1.0739
6751.00,1.0776
6750.00,1.0812
6749.00,1.0847
6748.00,1.0881
6747.00,1.0916
6746.00,1.0954
6745.00,1.0992
6744.00,1.1029
6743.00,1.1063
6742.00,1.1096
6741.00,1.1127
6740.00,1.1157
6739.00,1.1185
6738.00,1.1211
6737.00,1.1237
6736.00,1.1266
6735.00,1.1299
6734.00,1.1335
6733.00,1.1370
6732.00,1.1403
6731.00,1.1431
6730.00,1.1457
6729.00,1.1481
6728.00,1.1505
6727.00,1.1528
6726.00,1.1552
6725.00,1.1578
6724.00,1.1607
6723.00,1.1637
6722.00,1.1668
6721.00,1.1699
6720.00,1.1729
6719.00,1.1757
6718.00,1.1783
6717.00,1.1805
6716.00,1.1824
6715.00,1.1840
6714.00,1.1855
6713.00,1.1871
6712.00,1.1889
6711.00,1.1911
6710.00,1.1936
6709.00,1.1962
6708.00,1.1985
6707.00,1.2003
6706.00,1.2020
6705.00,1.2037
6704.00,1.2057
6703.00,1.2075
6702.00,1.2090
6701.00,1.2104
6700.00,1.2117
6699.00,1.2129
6698.00,1.2140
6697.00,1.2152
6696.00,1.2165
6695.00,1.2181
6694.00,1.2199
6693.00,1.2217
6692.00,1.2233
6691.00,1.2245
6690.00,1.2254
6689.00,1.2263
6688.00,1.2273
6687.00,1.2284
6686.00,1.2294
6685.00,1.2305
6684.00,1.2314
6683.00,1.2321
6682.00,1.2326
6681.00,1.2330
6680.00,1.2335
6679.00,1.2340
6678.00,1.2344
6677.00,1.2349
6676.00,1.2355
6675.00,1.2361
6674.00,1.2365
6673.00,1.2368
6672.00,1.2371
6671.00,1.2373
6670.00,1.2375
6669.00,1.2378
6668.00,1.2380
6667.00,1.2381
6666.00,1.2381
6665.00,1.2381
6664.00,1.2381
6663.00,1.2380
6662.00,1.2379
6661.00,1.2378
6660.00,1.2375
6659.00,1.2370
6658.00,1.2362
6657.00,1.2354
6656.00,1.2349
6655.00,1.2343
6654.00,1.2336
6653.00,1.2329
6652.00,1.2326
6651.00,1.2326
6650.00,1.2324
6649.00,1.2317
6648.00,1.2305
6647.00,1.2294
6646.00,1.2283
6645.00,1.2273
6644.00,1.2264
6643.00,1.2255
6642.00,1.2246
6641.00,1.2236
6640.00,1.2225
6639.00,1.2211
6638.00,1.2195
6637.00,1.2179
6636.00,1.2164
6635.00,1.2153
6634.00,1.2145
6633.00,1.2138
6632.00,1.2129
6631.00,1.2116
6630.00,1.2099
6629.00,1.2080
6628.00,1.2061
6627.00,1.2042
6626.00,1.2024
6625.00,1.2008
6624.00,1.1990
6623.00,1.1971
6622.00,1.1950
6621.00,1.1929
6620.00,1.1908
6619.00,1.1886
6618.00,1.1860
6617.00,1.1833
6616.00,1.1806
6615.00,1.1781
6614.00,1.1756
6613.00,1.1732
6612.00,1.1708
6611.00,1.1683
6610.00,1.1658
6609.00,1.1633
6608.00,1.1606
6607.00,1.1578
6606.00,1.1551
6605.00,1.1523
6604.00,1.1496
6603.00,1.1469
6602.00,1.1442
6601.00,1.1415
6600.00,1.1385
6599.00,1.1354
6598.00,1.1323
6597.00,1.1293
6596.00,1.1263
6595.00,1.1231
6594.00,1.1197
6593.00,1.1164
6592.00,1.1133
6591.00,1.1101
6590.00,1.1067
6589.00,1.1030
6588.00,1.0991
6587.00,1.0952
6586.00,1.0913
6585.00,1.0876
6584.00,1.0840
6583.00,1.0806
6582.00,1.0773
6581.00,1.0738
6580.00,1.0700
6579.00,1.0660
6578.00,1.0619
6577.00,1.0581
6576.00,1.0544
6575.00,1.0507
6574.00,1.0470
6573.00,1.0432
6572.00,1.0394
6571.00,1.0356
6570.00,1.0317
6569.00,1.0279
6568.00,1.0241
6567.00,1.0202
6566.00,1.0160
6565.00,1.0119
6564.00,1.0077
6563.00,1.0033
6562.00,0.9989
6561.00,0.9945
6560.00,0.9903
6559.00,0.9864
6558.00,0.9825
6557.00,0.9785
6556.00,0.9743
6555.00,0.9699
6554.00,0.9656
6553.00,0.9613
6552.00,0.9571
6551.00,0.9530
6550.00,0.9489
6549.00,0.9449
6548.00,0.9408
6547.00,0.9367
6546.00,0.9324
6545.00,0.9282
6544.00,0.9240
6543.00,0.9198
6542.00,0.9156
6541.00,0.9116
6540.00,0.9076
6539.00,0.9036
6538.00,0.8994
6537.00,0.8952
6536.00,0.8911
6535.00,0.8871
6534.00,0.8831
6533.00,0.8791
6532.00,0.8752
6531.00,0.8713
6530.00,0.8675
6529.00,0.8638
6528.00,0.8602
6527.00,0.8565
6526.00,0.8527
6525.00,0.8490
6524.00,0.8453
6523.00,0.8417
6522.00,0.8382
6521.00,0.8349
6520.00,0.8316
6519.00,0.8283
6518.00,0.8250
6517.00,0.8217
6516.00,0.8184
6515.00,0.8149
6514.00,0.8115
6513.00,0.8082
6512.00,0.8052
6511.00,0.8023
6510.00,0.7994
6509.00,0.7966
6508.00,0.7939
6507.00,0.7913
6506.00,0.7887
6505.00,0.7861
6504.00,0.7836
6503.00,0.7812
6502.00,0.7788
6501.00,0.7766
6500.00,0.7744
6499.00,0.7723
6498.00,0.7703
6497.00,0.7684
6496.00,0.7666
6495.00,0.7648
6494.00,0.7631
6493.00,0.7615
6492.00,0.7601
6491.00,0.7589
6490.00,0.7578
6489.00,0.7566
6488.00,0.7554
6487.00,0.7541
6486.00,0.7530
6485.00,0.7520
6484.00,0.7511
6483.00,0.7504
6482.00,0.7499
6481.00,0.7496
6480.00,0.7494
6479.00,0.7492
6478.00,0.7492
6477.00,0.7493
6476.00,0.7494
6475.00,0.7497
6474.00,0.7500
6473.00,0.7506
6472.00,0.7511
6471.00,0.7518
6470.00,0.7525
6469.00,0.7535
6468.00,0.7545
6467.00,0.7556
6466.00,0.7568
6465.00,0.7582
6464.00,0.7596
6463.00,0.7610
6462.00,0.7626
6461.00,0.7643
6460.00,0.7661
6459.00,0.7680
6458.00,0.7700
6457.00,0.7722
6456.00,0.7745
6455.00,0.7768
6454.00,0.7790
6453.00,0.7814
6452.00,0.7839
6451.00,0.7864
6450.00,0.7891
6449.00,0.7918
6448.00,0.7947
6447.00,0.7976
6446.00,0.8005
6445.00,0.8034
6444.00,0.8064
6443.00,0.8095
6442.00,0.8128
6441.00,0.8162
6440.00,0.8196
6439.00,0.8231
6438.00,0.8265
6437.00,0.8300
6436.00,0.8336
6435.00,0.8372
6434.00,0.8409
6433.00,0.8447
6432.00,0.8485
6431.00,0.8524
6430.00,0.8565
6429.00,0.8606
6428.00,0.8646
6427.00,0.8687
6426.00,0.8728
6425.00,0.8769
6424.00,0.8810
6423.00,0.8850
6422.00,0.8890
6421.00,0.8932
6420.00,0.8976
6419.00,0.9020
6418.00,0.9063
6417.00,0.9107
6416.00,0.9150
6415.00,0.9193
6414.00,0.9238
6413.00,0.9284
6412.00,0.9329
6411.00,0.9372
6410.00,0.9414
6409.00,0.9457
6408.00,0.9501
6407.00,0.9545
6406.00,0.9588
6405.00,0.9633
6404.00,0.9679
6403.00,0.9725
6402.00,0.9769
6401.00,0.9811
6400.00,0.9853
6399.00,0.9896
6398.00,0.9940
6397.00,0.9984
6396.00,1.0027
6395.00,1.0071
6394.00,1.0115
6393.00,1.0160
6392.00,1.0206
6391.00,1.0250
6390.00,1.0294
6389.00,1.0336
6388.00,1.0378
6387.00,1.0418
6386.00,1.0458
6385.00,1.0498
6384.00,1.0538
6383.00,1.0579
6382.00,1.0621
6381.00,1.0662
6380.00,1.0702
6379.00,1.0741
6378.00,1.0782
6377.00,1.0822
6376.00,1.0861
6375.00,1.0898
6374.00,1.0936
6373.00,1.0975
6372.00,1.1014
6371.00,1.1051
6370.00,1.1089
6369.00,1.1129
6368.00,1.1170
6367.00,1.1209
6366.00,1.1246
6365.00,1.1283
6364.00,1.1319
6363.00,1.1354
6362.00,1.1386
6361.00,1.1417
6360.00,1.1447
6359.00,1.1476
6358.00,1.1504
6357.00,1.1532
6356.00,1.1559
6355.00,1.1588
6354.00,1.1620
6353.00,1.1656
6352.00,1.1692
6351.00,1.1725
6350.00,1.1756
6349.00,1.1786
6348.00,1.1816
6347.00,1.1843
6346.00,1.1869
6345.00,1.1895
6344.00,1.1921
6343.00,1.1947
6342.00,1.1971
6341.00,1.1995
6340.00,1.2019
6339.00,1.2043
6338.00,1.2067
6337.00,1.2091
6336.00,1.2112
6335.00,1.2132
6334.00,1.2151
6333.00,1.2168
6332.00,1.2184
6331.00,1.2201
6330.00,1.2221
6329.00,1.2242
6328.00,1.2263
6327.00,1.2285
6326.00,1.2305
6325.00,1.2324
6324.00,1.2340
6323.00,1.2354
6322.00,1.2366
6321.00,1.2377
6320.00,1.2388
6319.00,1.2400
6318.00,1.2415
6317.00,1.2429
6316.00,1.2442
6315.00,1.2455
6314.00,1.2468
6313.00,1.2481
6312.00,1.2492
6311.00,1.2498
6310.00,1.2505
6309.00,1.2513
6308.00,1.2523
6307.00,1.2533
6306.00,1.2541
6305.00,1.2549
6304.00,1.2554
6303.00,1.2559
6302.00,1.2565
6301.00,1.2571
6300.00,1.2578
6299.00,1.2583
6298.00,1.2588
6297.00,1.2593
6296.00,1.2594
6295.00,1.2591
6294.00,1.2588
6293.00,1.2586
6292.00,1.2586
6291.00,1.2587
6290.00,1.2588
6289.00,1.2589
6288.00,1.2587
6287.00,1.2585
6286.00,1.2582
6285.00,1.2581
6284.00,1.2580
6283.00,1.2578
6282.00,1.2576
6281.00,1.2574
6280.00,1.2573
6279.00,1.2569
6278.00,1.2562
6277.00,1.2553
6276.00,1.2543
6275.00,1.2532
6274.00,1.2521
6273.00,1.2511
6272.00,1.2502
6271.00,1.2493
6270.00,1.2485
6269.00,1.2476
6268.00,1.2465
6267.00,1.2453
6266.00,1.2440
6265.00,1.2427
6264.00,1.2412
6263.00,1.2397
6262.00,1.2381
6261.00,1.2365
6260.00,1.2349
6259.00,1.2333
6258.00,1.2319
6257.00,1.2305
6256.00,1.2291
6255.00,1.2274
6254.00,1.2256
6253.00,1.2236
6252.00,1.2214
6251.00,1.2191
6250.00,1.2168
6249.00,1.2145
6248.00,1.2123
6247.00,1.2103
6246.00,1.2083
6245.00,1.2063
6244.00,1.2040
6243.00,1.2015
6242.00,1.1989
6241.00,1.1965
6240.00,1.1941
6239.00,1.1915
6238.00,1.1888
6237.00,1.1862
6236.00,1.1836
6235.00,1.1808
6234.00,1.1778
6233.00,1.1747
6232.00,1.1718
6231.00,1.1690
6230.00,1.1661
6229.00,1.1631
6228.00,1.1599
6227.00,1.1565
6226.00,1.1530
6225.00,1.1496
6224.00,1.1462
6223.00,1.1428
6222.00,1.1396
6221.00,1.1365
6220.00,1.1334
6219.00,1.1300
6218.00,1.1263
6217.00,1.1225
6216.00,1.1185
6215.00,1.1146
6214.00,1.1107
6213.00,1.1068
6212.00,1.1030
6211.00,1.0993
6210.00,1.0957
6209.00,1.0919
6208.00,1.0880
6207.00,1.0841
6206.00,1.0803
6205.00,1.0765
6204.00,1.0728
6203.00,1.0688
6202.00,1.0648
6201.00,1.0609
6200.00,1.0569
6199.00,1.0527
6198.00,1.0484
6197.00,1.0440
6196.00,1.0396
6195.00,1.0353
6194.00,1.0311
6193.00,1.0269
6192.00,1.0228
6191.00,1.0188
6190.00,1.0148
6189.00,1.0107
6188.00,1.0064
6187.00,1.0019
6186.00,0.9974
6185.00,0.9929
6184.00,0.9885
6183.00,0.9841
6182.00,0.9798
6181.00,0.9755
6180.00,0.9713
6179.00,0.9671
6178.00,0.9630
6177.00,0.9590
6176.00,0.9548
6175.00,0.9507
6174.00,0.9466
6173.00,0.9425
6172.00,0.9383
6171.00,0.9341
6170.00,0.9299
6169.00,0.9258
6168.00,0.9217
6167.00,0.9175
6166.00,0.9133
6165.00,0.9093
6164.00,0.9054
6163.00,0.9015
6162.00,0.8974
6161.00,0.8934
6160.00,0.8895
6159.00,0.8856
6158.00,0.8816
6157.00,0.8778
6156.00,0.8740
6155.00,0.8703
6154.00,0.8665
6153.00,0.8627
6152.00,0.8591
6151.00,0.8554
6150.00,0.8518
6149.00,0.8482
6148.00,0.8446
6147.00,0.8411
6146.00,0.8376
6145.00,0.8342
6144.00,0.8308
6143.00,0.8274
6142.00,0.8241
6141.00,0.8206
6140.00,0.8171
6139.00,0.8135
6138.00,0.8100
6137.00,0.8068
6136.00,0.8036
6135.00,0.8006
6134.00,0.7975
6133.00,0.7945
6132.00,0.7914
6131.00,0.7884
6130.00,0.7854
6129.00,0.7825
6128.00,0.7798
6127.00,0.7771
6126.00,0.7744
6125.00,0.7717
6124.00,0.7690
6123.00,0.7662
6122.00,0.7635
6121.00,0.7610
6120.00,0.7586
6119.00,0.7564
6118.00,0.7543
6117.00,0.7522
6116.00,0.7503
6115.00,0.7482
6114.00,0.7462
6113.00,0.7443
6112.00,0.7425
6111.00,0.7408
6110.00,0.7392
6109.00,0.7378
6108.00,0.7364
6107.00,0.7352
6106.00,0.7340
6105.00,0.7331
6104.00,0.7323
6103.00,0.7316
6102.00,0.7311
6101.00,0.7306
6100.00,0.7302
6099.00,0.7299
6098.00,0.7295
6097.00,0.7293
6096.00,0.7292
6095.00,0.7292
6094.00,0.7294
6093.00,0.7298
6092.00,0.7303
6091.00,0.7309
6090.00,0.7317
6089.00,0.7326
6088.00,0.7335
6087.00,0.7346
6086.00,0.7357
6085.00,0.7370
6084.00,0.7384
6083.00,0.7398
6082.00,0.7414
6081.00,0.7431
6080.00,0.7450
6079.00,0.7470
6078.00,0.7491
6077.00,0.7514
6076.00,0.7536
6075.00,0.7558
6074.00,0.7582
6073.00,0.7607
6072.00,0.7634
6071.00,0.7662
6070.00,0.7691
6069.00,0.7722
6068.00,0.7754
6067.00,0.7785
6066.00,0.7816
6065.00,0.7848
6064.00,0.7881
6063.00,0.7915
6062.00,0.7951
6061.00,0.7988
6060.00,0.8026
6059.00,0.8064
6058.00,0.8102
6057.00,0.8141
6056.00,0.8180
6055.00,0.8220
6054.00,0.8262
6053.00,0.8303
6052.00,0.8345
6051.00,0.8387
6050.00,0.8429
6049.00,0.8472
6048.00,0.8515
6047.00,0.8560
6046.00,0.8606
6045.00,0.8653
6044.00,0.8702
6043.00,0.8750
6042.00,0.8798
6041.00,0.8845
6040.00,0.8892
6039.00,0.8939
6038.00,0.8986
6037.00,0.9034
6036.00,0.9082
6035.00,0.9131
6034.00,0.9181
6033.00,0.9230
6032.00,0.9279
6031.00,0.9328
6030.00,0.9377
6029.00,0.9426
6028.00,0.9475
6027.00,0.9523
6026.00,0.9572
6025.00,0.9621
6024.00,0.9669
6023.00,0.9718
6022.00,0.9767
6021.00,0.9817
6020.00,0.9868
6019.00,0.9919
6018.00,0.9969
6017.00,1.0019
6016.00,1.0068
6015.00,1.0117
6014.00,1.0166
6013.00,1.0215
6012.00,1.0263
6011.00,1.0312
6010.00,1.0361
6009.00,1.0411
6008.00,1.0460
6007.00,1.0509
6006.00,1.0557
6005.00,1.0606
6004.00,1.0654
6003.00,1.0701
6002.00,1.0748
6001.00,1.0794
6000.00,1.0838
5999.00,1.0882
5998.00,1.0926
5997.00,1.0971
5996.00,1.1016
5995.00,1.1062
5994.00,1.1107
5993.00,1.1152
5992.00,1.1196
5991.00,1.1237
5990.00,1.1277
5989.00,1.1318
5988.00,1.1361
5987.00,1.1404
5986.00,1.1448
5985.00,1.1490
5984.00,1.1531
5983.00,1.1569
5982.00,1.1607
5981.00,1.1643
5980.00,1.1676
5979.00,1.1710
5978.00,1.1745
5977.00,1.1783
5976.00,1.1823
5975.00,1.1863
5974.00,1.1902
5973.00,1.1942
5972.00,1.1980
5971.00,1.2016
5970.00,1.2050
5969.00,1.2082
5968.00,1.2113
5967.00,1.2142
5966.00,1.2171
5965.00,1.2199
5964.00,1.2229
5963.00,1.2260
5962.00,1.2293
5961.00,1.2328
5960.00,1.2362
5959.00,1.2392
5958.00,1.2419
5957.00,1.2443
5956.00,1.2465
5955.00,1.2488
5954.00,1.2512
5953.00,1.2539
5952.00,1.2567
5951.00,1.2594
5950.00,1.2619
5949.00,1.2642
5948.00,1.2663
5947.00,1.2686
5946.00,1.2710
5945.00,1.2736
5944.00,1.2762
5943.00,1.2786
5942.00,1.2806
5941.00,1.2822
5940.00,1.2837
5939.00,1.2853
5938.00,1.2870
5937.00,1.2889
5936.00,1.2909
5935.00,1.2928
5934.00,1.2946
5933.00,1.2963
5932.00,1.2977
5931.00,1.2991
5930.00,1.3004
5929.00,1.3019
5928.00,1.3035
5927.00,1.3052
5926.00,1.3071
5925.00,1.3088
5924.00,1.3103
5923.00,1.3115
5922.00,1.3124
5921.00,1.3131
5920.00,1.3138
5919.00,1.3145
5918.00,1.3154
5917.00,1.3164
5916.00,1.3173
5915.00,1.3178
5914.00,1.3182
5913.00,1.3186
5912.00,1.3190
5911.00,1.3194
5910.00,1.3198
5909.00,1.3203
5908.00,1.3207
5907.00,1.3211
5906.00,1.3215
5905.00,1.3217
5904.00,1.3217
5903.00,1.3218
5902.00,1.3218
5901.00,1.3217
5900.00,1.3217
5899.00,1.3215
5898.00,1.3213
5897.00,1.3211
5896.00,1.3209
5895.00,1.3206
5894.00,1.3203
5893.00,1.3199
5892.00,1.3193
5891.00,1.3186
5890.00,1.3180
5889.00,1.3173
5888.00,1.3166
5887.00,1.3158
5886.00,1.3151
5885.00,1.3146
5884.00,1.3140
5883.00,1.3132
5882.00,1.3125
5881.00,1.3118
5880.00,1.3111
5879.00,1.3100
5878.00,1.3087
5877.00,1.3073
5876.00,1.3060
5875.00,1.3046
5874.00,1.3031
5873.00,1.3016
5872.00,1.3003
5871.00,1.2989
5870.00,1.2974
5869.00,1.2957
5868.00,1.2940
5867.00,1.2923
5866.00,1.2908
5865.00,1.2893
5864.00,1.2877
5863.00,1.2859
5862.00,1.2841
5861.00,1.2821
5860.00,1.2799
5859.00,1.2778
5858.00,1.2758
5857.00,1.2737
5856.00,1.2714
5855.00,1.2688
5854.00,1.2662
5853.00,1.2636
5852.00,1.2610
5851.00,1.2584
5850.00,1.2559
5849.00,1.2533
5848.00,1.2505
5847.00,1.2474
5846.00,1.2443
5845.00,1.2414
5844.00,1.2385
5843.00,1.2357
5842.00,1.2327
5841.00,1.2297
5840.00,1.2267
5839.00,1.2235
5838.00,1.2203
5837.00,1.2171
5836.00,1.2139
5835.00,1.2105
5834.00,1.2070
5833.00,1.2035
5832.00,1.2000
5831.00,1.1965
5830.00,1.1930
5829.00,1.1893
5828.00,1.1855
5827.00,1.1817
5826.00,1.1779
5825.00,1.1743
5824.00,1.1706
5823.00,1.1667
5822.00,1.1628
5821.00,1.1588
5820.00,1.1547
5819.00,1.1503
5818.00,1.1460
5817.00,1.1418
5816.00,1.1376
5815.00,1.1333
5814.00,1.1291
5813.00,1.1249
5812.00,1.1208
5811.00,1.1166
5810.00,1.1124
5809.00,1.1080
5808.00,1.1035
5807.00,1.0989
5806.00,1.0943
5805.00,1.0896
5804.00,1.0849
5803.00,1.0801
5802.00,1.0753
5801.00,1.0707
5800.00,1.0661
5799.00,1.0615
5798.00,1.0568
5797.00,1.0520
5796.00,1.0472
5795.00,1.0425
5794.00,1.0376
5793.00,1.0326
5792.00,1.0275
5791.00,1.0223
5790.00,1.0171
5789.00,1.0119
5788.00,1.0068
5787.00,1.0018
5786.00,0.9969
5785.00,0.9920
5784.00,0.9869
5783.00,0.9817
5782.00,0.9765
5781.00,0.9715
5780.00,0.9667
5779.00,0.9618
5778.00,0.9568
5777.00,0.9519
5776.00,0.9469
5775.00,0.9418
5774.00,0.9367
5773.00,0.9316
5772.00,0.9266
5771.00,0.9216
5770.00,0.9166
5769.00,0.9117
5768.00,0.9069
5767.00,0.9020
5766.00,0.8972
5765.00,0.8926
5764.00,0.8879
5763.00,0.8833
5762.00,0.8786
5761.00,0.8739
5760.00,0.8693
5759.00,0.8647
5758.00,0.8602
5757.00,0.8558
5756.00,0.8515
5755.00,0.8472
5754.00,0.8429
5753.00,0.8387
5752.00,0.8346
5751.00,0.8305
5750.00,0.8266
5749.00,0.8228
5748.00,0.8190
5747.00,0.8152
5746.00,0.8115
5745.00,0.8078
5744.00,0.8042
5743.00,0.8006
5742.00,0.7971
5741.00,0.7937
5740.00,0.7904
5739.00,0.7872
5738.00,0.7841
5737.00,0.7810
5736.00,0.7781
5735.00,0.7753
5734.00,0.7725
5733.00,0.7699
5732.00,0.7674
5731.00,0.7650
5730.00,0.7626
5729.00,0.7605
5728.00,0.7584
5727.00,0.7564
5726.00,0.7545
5725.00,0.7526
5724.00,0.7508
5723.00,0.7492
5722.00,0.7476
5721.00,0.7463
5720.00,0.7451
5719.00,0.7440
5718.00,0.7430
5717.00,0.7422
5716.00,0.7414
5715.00,0.7408
5714.00,0.7402
5713.00,0.7399
5712.00,0.7397
5711.00,0.7396
5710.00,0.7397
5709.00,0.7399
5708.00,0.7403
5707.00,0.7407
5706.00,0.7413
5705.00,0.7420
5704.00,0.7429
5703.00,0.7439
5702.00,0.7451
5701.00,0.7463
5700.00,0.7478
5699.00,0.7493
5698.00,0.7510
5697.00,0.7527
5696.00,0.7546
5695.00,0.7566
5694.00,0.7588
5693.00,0.7612
5692.00,0.7638
5691.00,0.7665
5690.00,0.7693
5689.00,0.7722
5688.00,0.7751
5687.00,0.7781
5686.00,0.7811
5685.00,0.7843
5684.00,0.7876
5683.00,0.7911
5682.00,0.7948
5681.00,0.7986
5680.00,0.8025
5679.00,0.8065
5678.00,0.8106
5677.00,0.8147
5676.00,0.8188
5675.00,0.8229
5674.00,0.8271
5673.00,0.8315
5672.00,0.8360
5671.00,0.8405
5670.00,0.8452
5669.00,0.8500
5668.00,0.8547
5667.00,0.8594
5666.00,0.8642
5665.00,0.8691
5664.00,0.8741
5663.00,0.8791
5662.00,0.8842
5661.00,0.8893
5660.00,0.8943
5659.00,0.8992
5658.00,0.9043
5657.00,0.9095
5656.00,0.9149
5655.00,0.9203
5654.00,0.9256
5653.00,0.9310
5652.00,0.9363
5651.00,0.9416
5650.00,0.9470
5649.00,0.9524
5648.00,0.9578
5647.00,0.9632
5646.00,0.9686
5645.00,0.9740
5644.00,0.9796
5643.00,0.9852
5642.00,0.9909
5641.00,0.9965
5640.00,1.0019
5639.00,1.0072
5638.00,1.0123
5637.00,1.0176
5636.00,1.0229
5635.00,1.0282
5634.00,1.0335
5633.00,1.0389
5632.00,1.0443
5631.00,1.0497
5630.00,1.0551
5629.00,1.0605
5628.00,1.0656
5627.00,1.0706
5626.00,1.0755
5625.00,1.0805
5624.00,1.0855
5623.00,1.0907
5622.00,1.0958
5621.00,1.1008
5620.00,1.1059
5619.00,1.1109
5618.00,1.1159
5617.00,1.1210
5616.00,1.1261
5615.00,1.1311
5614.00,1.1359
5613.00,1.1406
5612.00,1.1452
5611.00,1.1498
5610.00,1.1545
5609.00,1.1591
5608.00,1.1636
5607.00,1.1681
5606.00,1.1727
5605.00,1.1772
5604.00,1.1817
5603.00,1.1861
5602.00,1.1904
5601.00,1.1945
5600.00,1.1986
5599.00,1.2026
5598.00,1.2067
5597.00,1.2108
5596.00,1.2150
5595.00,1.2191
5594.00,1.2231
5593.00,1.2271
5592.00,1.2309
5591.00,1.2347
5590.00,1.2383
5589.00,1.2419
5588.00,1.2454
5587.00,1.2490
5586.00,1.2525
5585.00,1.2560
5584.00,1.2593
5583.00,1.2623
5582.00,1.2651
5581.00,1.2680
5580.00,1.2710
5579.00,1.2742
5578.00,1.2774
5577.00,1.2805
5576.00,1.2836
5575.00,1.2865
5574.00,1.2894
5573.00,1.2923
5572.00,1.2952
5571.00,1.2980
5570.00,1.3007
5569.00,1.3032
5568.00,1.3056
5567.00,1.3080
5566.00,1.3105
5565.00,1.3130
5564.00,1.3155
5563.00,1.3178
5562.00,1.3201
5561.00,1.3222
5560.00,1.3241
5559.00,1.3258
5558.00,1.3275
5557.00,1.3292
5556.00,1.3311
5555.00,1.3330
5554.00,1.3349
5553.00,1.3369
5552.00,1.3389
5551.00,1.3408
5550.00,1.3426
5549.00,1.3442
5548.00,1.3455
5547.00,1.3467
5546.00,1.3478
5545.00,1.3489
5544.00,1.3502
5543.00,1.3516
5542.00,1.3529
5541.00,1.3544
5540.00,1.3558
5539.00,1.3569
5538.00,1.3577
5537.00,1.3585
5536.00,1.3591
5535.00,1.3597
5534.00,1.3603
5533.00,1.3611
5532.00,1.3621
5531.00,1.3631
5530.00,1.3639
5529.00,1.3644
5528.00,1.3647
5527.00,1.3648
5526.00,1.3649
5525.00,1.3650
5524.00,1.3653
5523.00,1.3657
5522.00,1.3661
5521.00,1.3665
5520.00,1.3668
5519.00,1.3671
5518.00,1.3673
5517.00,1.3673
5516.00,1.3671
5515.00,1.3666
5514.00,1.3660
5513.00,1.3656
5512.00,1.3654
5511.00,1.3653
5510.00,1.3651
5509.00,1.3647
5508.00,1.3642
5507.00,1.3635
5506.00,1.3627
5505.00,1.3620
5504.00,1.3615
5503.00,1.3609
5502.00,1.3603
5501.00,1.3596
5500.00,1.3587
5499.00,1.3575
5498.00,1.3561
5497.00,1.3547
5496.00,1.3535
5495.00,1.3523
5494.00,1.3512
5493.00,1.3502
5492.00,1.3494
5491.00,1.3485
5490.00,1.3475
5489.00,1.3464
5488.00,1.3451
5487.00,1.3436
5486.00,1.3417
5485.00,1.3394
5484.00,1.3371
5483.00,1.3348
5482.00,1.3326
5481.00,1.3306
5480.00,1.3286
5479.00,1.3268
5478.00,1.3250
5477.00,1.3233
5476.00,1.3215
5475.00,1.3196
5474.00,1.3177
5473.00,1.3158
5472.00,1.3136
5471.00,1.3112
5470.00,1.3086
5469.00,1.3059
5468.00,1.3030
5467.00,1.2999
5466.00,1.2968
5465.00,1.2938
5464.00,1.2910
5463.00,1.2882
5462.00,1.2853
5461.00,1.2824
5460.00,1.2795
5459.00,1.2766
5458.00,1.2737
5457.00,1.2707
5456.00,1.2675
5455.00,1.2642
5454.00,1.2609
5453.00,1.2576
5452.00,1.2541
5451.00,1.2504
5450.00,1.2467
5449.00,1.2428
5448.00,1.2389
5447.00,1.2350
5446.00,1.2311
5445.00,1.2275
5444.00,1.2240
5443.00,1.2205
5442.00,1.2166
5441.00,1.2125
5440.00,1.2082
5439.00,1.2038
5438.00,1.1994
5437.00,1.1950
5436.00,1.1904
5435.00,1.1858
5434.00,1.1812
5433.00,1.1767
5432.00,1.1721
5431.00,1.1675
5430.00,1.1630
5429.00,1.1585
5428.00,1.1540
5427.00,1.1494
5426.00,1.1445
5425.00,1.1394
5424.00,1.1343
5423.00,1.1291
5422.00,1.1239
5421.00,1.1187
5420.00,1.1134
5419.00,1.1081
5418.00,1.1029
5417.00,1.0978
5416.00,1.0928
5415.00,1.0878
5414.00,1.0827
5413.00,1.0775
5412.00,1.0721
5411.00,1.0665
5410.00,1.0608
5409.00,1.0550
5408.00,1.0493
5407.00,1.0435
5406.00,1.0378
5405.00,1.0320
5404.00,1.0262
5403.00,1.0206
5402.00,1.0150
5401.00,1.0095
5400.00,1.0040
5399.00,0.9984
5398.00,0.9927
5397.00,0.9871
5396.00,0.9815
5395.00,0.9758
5394.00,0.9701
5393.00,0.9644
5392.00,0.9587
5391.00,0.9529
5390.00,0.9471
5389.00,0.9413
5388.00,0.9355
5387.00,0.9298
5386.00,0.9240
5385.00,0.9183
5384.00,0.9126
5383.00,0.9070
5382.00,0.9014
5381.00,0.8959
5380.00,0.8906
5379.00,0.8852
5378.00,0.8799
5377.00,0.8745
5376.00,0.8691
5375.00,0.8637
5374.00,0.8583
5373.00,0.8530
5372.00,0.8477
5371.00,0.8425
5370.00,0.8374
5369.00,0.8324
5368.00,0.8275
5367.00,0.8227
5366.00,0.8180
5365.00,0.8134
5364.00,0.8089
5363.00,0.8044
5362.00,0.8000
5361.00,0.7958
5360.00,0.7916
5359.00,0.7874
5358.00,0.7834
5357.00,0.7795
5356.00,0.7758
5355.00,0.7722
5354.00,0.7687
5353.00,0.7653
5352.00,0.7621
5351.00,0.7589
5350.00,0.7558
5349.00,0.7528
5348.00,0.7500
5347.00,0.7472
5346.00,0.7446
5345.00,0.7420
5344.00,0.7396
5343.00,0.7373
5342.00,0.7352
5341.00,0.7332
5340.00,0.7313
5339.00,0.7296
5338.00,0.7280
5337.00,0.7266
5336.00,0.7253
5335.00,0.7239
5334.00,0.7227
5333.00,0.7217
5332.00,0.7210
5331.00,0.7205
5330.00,0.7203
5329.00,0.7202
5328.00,0.7202
5327.00,0.7204
5326.00,0.7207
5325.00,0.7212
5324.00,0.7218
5323.00,0.7224
5322.00,0.7233
5321.00,0.7245
5320.00,0.7259
5319.00,0.7275
5318.00,0.7291
5317.00,0.7310
5316.00,0.7330
5315.00,0.7352
5314.00,0.7375
5313.00,0.7399
5312.00,0.7424
5311.00,0.7451
5310.00,0.7481
5309.00,0.7513
5308.00,0.7546
5307.00,0.7581
5306.00,0.7617
5305.00,0.7655
5304.00,0.7692
5303.00,0.7730
5302.00,0.7770
5301.00,0.7811
5300.00,0.7853
5299.00,0.7896
5298.00,0.7941
5297.00,0.7988
5296.00,0.8035
5295.00,0.8082
5294.00,0.8130
5293.00,0.8178
5292.00,0.8227
5291.00,0.8277
5290.00,0.8329
5289.00,0.8383
5288.00,0.8438
5287.00,0.8493
5286.00,0.8548
5285.00,0.8603
5284.00,0.8658
5283.00,0.8713
5282.00,0.8769
5281.00,0.8825
5280.00,0.8882
5279.00,0.8940
5278.00,0.9000
5277.00,0.9060
5276.00,0.9119
5275.00,0.9178
5274.00,0.9238
5273.00,0.9298
5272.00,0.9359
5271.00,0.9420
5270.00,0.9480
5269.00,0.9541
5268.00,0.9602
5267.00,0.9664
5266.00,0.9725
5265.00,0.9787
5264.00,0.9849
5263.00,0.9912
5262.00,0.9975
5261.00,1.0039
5260.00,1.0102
5259.00,1.0163
5258.00,1.0223
5257.00,1.0282
5256.00,1.0341
5255.00,1.0400
5254.00,1.0462
5253.00,1.0526
5252.00,1.0590
5251.00,1.0651
5250.00,1.0711
5249.00,1.0769
5248.00,1.0828
5247.00,1.0887
5246.00,1.0947
5245.00,1.1007
5244.00,1.1067
5243.00,1.1125
5242.00,1.1183
5241.00,1.1240
5240.00,1.1294
5239.00,1.1347
5238.00,1.1401
5237.00,1.1456
5236.00,1.1512
5235.00,1.1568
5234.00,1.1624
5233.00,1.1679
5232.00,1.1733
5231.00,1.1785
5230.00,1.1836
5229.00,1.1887
5228.00,1.1938
5227.00,1.1990
5226.00,1.2042
5225.00,1.2093
5224.00,1.2145
5223.00,1.2194
5222.00,1.2242
5221.00,1.2288
5220.00,1.2334
5219.00,1.2379
5218.00,1.2424
5217.00,1.2470
5216.00,1.2515
5215.00,1.2559
5214.00,1.2603
5213.00,1.2646
5212.00,1.2688
5211.00,1.2729
5210.00,1.2770
5209.00,1.2811
5208.00,1.2854
5207.00,1.2897
5206.00,1.2940
5205.00,1.2983
5204.00,1.3023
5203.00,1.3062
5202.00,1.3098
5201.00,1.3133
5200.00,1.3168
5199.00,1.3201
5198.00,1.3234
5197.00,1.3267
5196.00,1.3299
5195.00,1.3332
5194.00,1.3365
5193.00,1.3397
5192.00,1.3428
5191.00,1.3456
5190.00,1.3484
5189.00,1.3513
5188.00,1.3543
5187.00,1.3571
5186.00,1.3600
5185.00,1.3627
5184.00,1.3653
5183.00,1.3678
5182.00,1.3705
5181.00,1.3734
5180.00,1.3763
5179.00,1.3790
5178.00,1.3815
5177.00,1.3838
5176.00,1.3860
5175.00,1.3882
5174.00,1.3903
5173.00,1.3924
5172.00,1.3945
5171.00,1.3964
5170.00,1.3982
5169.00,1.4001
5168.00,1.4019
5167.00,1.4036
5166.00,1.4054
5165.00,1.4071
5164.00,1.4087
5163.00,1.4101
5162.00,1.4115
5161.00,1.4129
5160.00,1.4143
5159.00,1.4157
5158.00,1.4170
5157.00,1.4184
5156.00,1.4197
5155.00,1.4209
5154.00,1.4220
5153.00,1.4230
5152.00,1.4238
5151.00,1.4244
5150.00,1.4250
5149.00,1.4258
5148.00,1.4268
5147.00,1.4279
5146.00,1.4288
5145.00,1.4296
5144.00,1.4303
5143.00,1.4308
5142.00,1.4312
5141.00,1.4315
5140.00,1.4316
5139.00,1.4315
5138.00,1.4314
5137.00,1.4315
5136.00,1.4317
5135.00,1.4321
5134.00,1.4324
5133.00,1.4324
5132.00,1.4322
5131.00,1.4319
5130.00,1.4316
5129.00,1.4313
5128.00,1.4311
5127.00,1.4309
5126.00,1.4306
5125.00,1.4301
5124.00,1.4296
5123.00,1.4290
5122.00,1.4284
5121.00,1.4278
5120.00,1.4273
5119.00,1.4269
5118.00,1.4266
5117.00,1.4261
5116.00,1.4254
5115.00,1.4245
5114.00,1.4233
5113.00,1.4221
5112.00,1.4208
5111.00,1.4194
5110.00,1.4181
5109.00,1.4168
5108.00,1.4154
5107.00,1.4139
5106.00,1.4123
5105.00,1.4107
5104.00,1.4092
5103.00,1.4077
5102.00,1.4062
5101.00,1.4048
5100.00,1.4034
5099.00,1.4019
5098.00,1.4001
5097.00,1.3980
5096.00,1.3958
5095.00,1.3934
5094.00,1.3911
5093.00,1.3889
5092.00,1.3869
5091.00,1.3848
5090.00,1.3825
5089.00,1.3801
5088.00,1.3774
5087.00,1.3747
5086.00,1.3721
5085.00,1.3696
5084.00,1.3671
5083.00,1.3645
5082.00,1.3616
5081.00,1.3587
5080.00,1.3558
5079.00,1.3529
5078.00,1.3500
5077.00,1.3472
5076.00,1.3442
5075.00,1.3409
5074.00,1.3375
5073.00,1.3340
5072.00,1.3306
5071.00,1.3272
5070.00,1.3238
5069.00,1.3203
5068.00,1.3166
5067.00,1.3129
5066.00,1.3090
5065.00,1.3050
5064.00,1.3011
5063.00,1.2970
5062.00,1.2928
5061.00,1.2886
5060.00,1.2843
5059.00,1.2800
5058.00,1.2757
5057.00,1.2715
5056.00,1.2673
5055.00,1.2630
5054.00,1.2584
5053.00,1.2538
5052.00,1.2491
5051.00,1.2442
5050.00,1.2394
5049.00,1.2346
5048.00,1.2299
5047.00,1.2251
5046.00,1.2202
5045.00,1.2150
5044.00,1.2098
5043.00,1.2044
5042.00,1.1991
5041.00,1.1937
5040.00,1.1883
5039.00,1.1829
5038.00,1.1774
5037.00,1.1718
5036.00,1.1662
5035.00,1.1606
5034.00,1.1551
5033.00,1.1494
5032.00,1.1437
5031.00,1.1378
5030.00,1.1318
5029.00,1.1258
5028.00,1.1198
5027.00,1.1138
5026.00,1.1078
5025.00,1.1017
5024.00,1.0957
5023.00,1.0895
5022.00,1.0833
5021.00,1.0770
5020.00,1.0706
5019.00,1.0642
5018.00,1.0578
5017.00,1.0514
5016.00,1.0451
5015.00,1.0388
5014.00,1.0325
5013.00,1.0261
5012.00,1.0198
5011.00,1.0133
5010.00,1.0068
5009.00,1.0004
5008.00,0.9939
5007.00,0.9874
5006.00,0.9809
5005.00,0.9745
5004.00,0.9681
5003.00,0.9618
5002.00,0.9554
5001.00,0.9491
5000.00,0.9427
4999.00,0.9364
4998.00,0.9300
4997.00,0.9237
4996.00,0.9175
4995.00,0.9114
4994.00,0.9053
4993.00,0.8992
4992.00,0.8931
4991.00,0.8871
4990.00,0.8810
4989.00,0.8750
4988.00,0.8690
4987.00,0.8631
4986.00,0.8573
4985.00,0.8516
4984.00,0.8461
4983.00,0.8407
4982.00,0.8353
4981.00,0.8301
4980.00,0.8249
4979.00,0.8197
4978.00,0.8146
4977.00,0.8096
4976.00,0.8047
4975.00,0.7999
4974.00,0.7952
4973.00,0.7907
4972.00,0.7864
4971.00,0.7821
4970.00,0.7780
4969.00,0.7740
4968.00,0.7702
4967.00,0.7665
4966.00,0.7629
4965.00,0.7594
4964.00,0.7561
4963.00,0.7529
4962.00,0.7500
4961.00,0.7472
4960.00,0.7447
4959.00,0.7423
4958.00,0.7401
4957.00,0.7382
4956.00,0.7363
4955.00,0.7346
4954.00,0.7331
4953.00,0.7318
4952.00,0.7307
4951.00,0.7298
4950.00,0.7291
4949.00,0.7285
4948.00,0.7282
4947.00,0.7280
4946.00,0.7281
4945.00,0.7284
4944.00,0.7290
4943.00,0.7298
4942.00,0.7308
4941.00,0.7319
4940.00,0.7333
4939.00,0.7348
4938.00,0.7366
4937.00,0.7386
4936.00,0.7408
4935.00,0.7432
4934.00,0.7457
4933.00,0.7484
4932.00,0.7513
4931.00,0.7543
4930.00,0.7576
4929.00,0.7610
4928.00,0.7646
4927.00,0.7683
4926.00,0.7722
4925.00,0.7763
4924.00,0.7806
4923.00,0.7850
4922.00,0.7896
4921.00,0.7943
4920.00,0.7992
4919.00,0.8041
4918.00,0.8092
4917.00,0.8144
4916.00,0.8198
4915.00,0.8252
4914.00,0.8308
4913.00,0.8364
4912.00,0.8421
4911.00,0.8479
4910.00,0.8538
4909.00,0.8598
4908.00,0.8659
4907.00,0.8721
4906.00,0.8784
4905.00,0.8848
4904.00,0.8913
4903.00,0.8978
4902.00,0.9044
4901.00,0.9110
4900.00,0.9177
4899.00,0.9244
4898.00,0.9312
4897.00,0.9381
4896.00,0.9450
4895.00,0.9519
4894.00,0.9589
4893.00,0.9659
4892.00,0.9729
4891.00,0.9799
4890.00,0.9869
4889.00,0.9939
4888.00,1.0009
4887.00,1.0080
4886.00,1.0150
4885.00,1.0220
4884.00,1.0290
4883.00,1.0360
4882.00,1.0430
4881.00,1.0501
4880.00,1.0573
4879.00,1.0644
4878.00,1.0714
4877.00,1.0783
4876.00,1.0853
4875.00,1.0921
4874.00,1.0989
4873.00,1.1057
4872.00,1.1125
4871.00,1.1192
4870.00,1.1259
4869.00,1.1326
4868.00,1.1393
4867.00,1.1458
4866.00,1.1523
4865.00,1.1588
4864.00,1.1653
4863.00,1.1718
4862.00,1.1782
4861.00,1.1846
4860.00,1.1909
4859.00,1.1972
4858.00,1.2034
4857.00,1.2096
4856.00,1.2157
4855.00,1.2217
4854.00,1.2277
4853.00,1.2336
4852.00,1.2396
4851.00,1.2454
4850.00,1.2511
4849.00,1.2567
4848.00,1.2621
4847.00,1.2675
4846.00,1.2730
4845.00,1.2784
4844.00,1.2838
4843.00,1.2890
4842.00,1.2941
4841.00,1.2992
4840.00,1.3042
4839.00,1.3091
4838.00,1.3139
4837.00,1.3188
4836.00,1.3236
4835.00,1.3284
4834.00,1.3333
4833.00,1.3383
4832.00,1.3433
4831.00,1.3480
4830.00,1.3525
4829.00,1.3568
4828.00,1.3608
4827.00,1.3646
4826.00,1.3686
4825.00,1.3727
4824.00,1.3770
4823.00,1.3813
4822.00,1.3855
4821.00,1.3896
4820.00,1.3936
4819.00,1.3975
4818.00,1.4012
4817.00,1.4046
4816.00,1.4079
4815.00,1.4112
4814.00,1.4145
4813.00,1.4180
4812.00,1.4215
4811.00,1.4248
4810.00,1.4279
4809.00,1.4307
4808.00,1.4335
4807.00,1.4364
4806.00,1.4393
4805.00,1.4423
4804.00,1.4452
4803.00,1.4481
4802.00,1.4509
4801.00,1.4537
4800.00,1.4564
4799.00,1.4589
4798.00,1.4613
4797.00,1.4637
4796.00,1.4660
4795.00,1.4685
4794.00,1.4710
4793.00,1.4734
4792.00,1.4757
4791.00,1.4778
4790.00,1.4799
4789.00,1.4818
4788.00,1.4837
4787.00,1.4855
4786.00,1.4870
4785.00,1.4884
4784.00,1.4897
4783.00,1.4911
4782.00,1.4927
4781.00,1.4945
4780.00,1.4963
4779.00,1.4979
4778.00,1.4994
4777.00,1.5009
4776.00,1.5022
4775.00,1.5036
4774.00,1.5049
4773.00,1.5061
4772.00,1.5070
4771.00,1.5077
4770.00,1.5083
4769.00,1.5090
4768.00,1.5098
4767.00,1.5106
4766.00,1.5114
4765.00,1.5121
4764.00,1.5128
4763.00,1.5133
4762.00,1.5137
4761.00,1.5140
4760.00,1.5144
4759.00,1.5147
4758.00,1.5150
4757.00,1.5152
4756.00,1.5154
4755.00,1.5155
4754.00,1.5156
4753.00,1.5157
4752.00,1.5158
4751.00,1.5159
4750.00,1.5158
4749.00,1.5155
4748.00,1.5151
4747.00,1.5147
4746.00,1.5143
4745.00,1.5140
4744.00,1.5136
4743.00,1.5132
4742.00,1.5128
4741.00,1.5124
4740.00,1.5118
4739.00,1.5111
4738.00,1.5105
4737.00,1.5098
4736.00,1.5090
4735.00,1.5081
4734.00,1.5072
4733.00,1.5063
4732.00,1.5052
4731.00,1.5040
4730.00,1.5028
4729.00,1.5015
4728.00,1.5001
4727.00,1.4987
4726.00,1.4971
4725.00,1.4955
4724.00,1.4937
4723.00,1.4918
4722.00,1.4899
4721.00,1.4882
4720.00,1.4865
4719.00,1.4848
4718.00,1.4831
4717.00,1.4814
4716.00,1.4796
4715.00,1.4777
4714.00,1.4757
4713.00,1.4735
4712.00,1.4712
4711.00,1.4690
4710.00,1.4667
4709.00,1.4644
4708.00,1.4620
4707.00,1.4593
4706.00,1.4565
4705.00,1.4537
4704.00,1.4508
4703.00,1.4479
4702.00,1.4449
4701.00,1.4417
4700.00,1.4385
4699.00,1.4354
4698.00,1.4324
4697.00,1.4294
4696.00,1.4263
4695.00,1.4229
4694.00,1.4194
4693.00,1.4157
4692.00,1.4121
4691.00,1.4088
4690.00,1.4055
4689.00,1.4023
4688.00,1.3989
4687.00,1.3954
4686.00,1.3917
4685.00,1.3879
4684.00,1.3840
4683.00,1.3800
4682.00,1.3760
4681.00,1.3718
4680.00,1.3675
4679.00,1.3631
4678.00,1.3587
4677.00,1.3543
4676.00,1.3499
4675.00,1.3454
4674.00,1.3409
4673.00,1.3364
4672.00,1.3317
4671.00,1.3268
4670.00,1.3219
4669.00,1.3169
4668.00,1.3119
4667.00,1.3069
4666.00,1.3017
4665.00,1.2963
4664.00,1.2908
4663.00,1.2851
4662.00,1.2795
4661.00,1.2739
4660.00,1.2683
4659.00,1.2625
4658.00,1.2565
4657.00,1.2504
4656.00,1.2443
4655.00,1.2382
4654.00,1.2321
4653.00,1.2259
4652.00,1.2195
4651.00,1.2129
4650.00,1.2061
4649.00,1.1994
4648.00,1.1927
4647.00,1.1860
4646.00,1.1793
4645.00,1.1726
4644.00,1.1658
4643.00,1.1589
4642.00,1.1519
4641.00,1.1450
4640.00,1.1379
4639.00,1.1308
4638.00,1.1236
4637.00,1.1163
4636.00,1.1089
4635.00,1.1015
4634.00,1.0940
4633.00,1.0867
4632.00,1.0793
4631.00,1.0720
4630.00,1.0647
4629.00,1.0573
4628.00,1.0498
4627.00,1.0422
4626.00,1.0346
4625.00,1.0271
4624.00,1.0197
4623.00,1.0123
4622.00,1.0050
4621.00,0.9976
4620.00,0.9903
4619.00,0.9829
4618.00,0.9754
4617.00,0.9680
4616.00,0.9607
4615.00,0.9533
4614.00,0.9460
4613.00,0.9387
4612.00,0.9315
4611.00,0.9243
4610.00,0.9172
4609.00,0.9101
4608.00,0.9032
4607.00,0.8962
4606.00,0.8894
4605.00,0.8826
4604.00,0.8759
4603.00,0.8692
4602.00,0.8627
4601.00,0.8562
4600.00,0.8498
4599.00,0.8435
4598.00,0.8373
4597.00,0.8312
4596.00,0.8252
4595.00,0.8194
4594.00,0.8137
4593.00,0.8081
4592.00,0.8026
4591.00,0.7972
4590.00,0.7919
4589.00,0.7869
4588.00,0.7820
4587.00,0.7772
4586.00,0.7727
4585.00,0.7684
4584.00,0.7643
4583.00,0.7603
4582.00,0.7566
4581.00,0.7530
4580.00,0.7496
4579.00,0.7464
4578.00,0.7434
4577.00,0.7407
4576.00,0.7382
4575.00,0.7359
4574.00,0.7339
4573.00,0.7321
4572.00,0.7307
4571.00,0.7294
4570.00,0.7284
4569.00,0.7277
4568.00,0.7271
4567.00,0.7269
4566.00,0.7269
4565.00,0.7271
4564.00,0.7277
4563.00,0.7284
4562.00,0.7295
4561.00,0.7308
4560.00,0.7324
4559.00,0.7342
4558.00,0.7362
4557.00,0.7385
4556.00,0.7410
4555.00,0.7438
4554.00,0.7468
4553.00,0.7501
4552.00,0.7536
4551.00,0.7573
4550.00,0.7612
4549.00,0.7654
4548.00,0.7698
4547.00,0.7744
4546.00,0.7792
4545.00,0.7842
4544.00,0.7893
4543.00,0.7946
4542.00,0.8001
4541.00,0.8058
4540.00,0.8116
4539.00,0.8176
4538.00,0.8237
4537.00,0.8300
4536.00,0.8364
4535.00,0.8428
4534.00,0.8495
4533.00,0.8562
4532.00,0.8632
4531.00,0.8702
4530.00,0.8774
4529.00,0.8846
4528.00,0.8919
4527.00,0.8993
4526.00,0.9068
4525.00,0.9145
4524.00,0.9222
4523.00,0.9299
4522.00,0.9378
4521.00,0.9456
4520.00,0.9535
4519.00,0.9614
4518.00,0.9694
4517.00,0.9775
4516.00,0.9856
4515.00,0.9938
4514.00,1.0019
4513.00,1.0101
4512.00,1.0183
4511.00,1.0265
4510.00,1.0348
4509.00,1.0431
4508.00,1.0514
4507.00,1.0596
4506.00,1.0679
4505.00,1.0762
4504.00,1.0844
4503.00,1.0926
4502.00,1.1007
4501.00,1.1088
4500.00,1.1168
4499.00,1.1248
4498.00,1.1327
4497.00,1.1407
4496.00,1.1487
4495.00,1.1567
4494.00,1.1647
4493.00,1.1725
4492.00,1.1802
4491.00,1.1878
4490.00,1.1953
4489.00,1.2029
4488.00,1.2105
4487.00,1.2181
4486.00,1.2256
4485.00,1.2330
4484.00,1.2402
4483.00,1.2473
4482.00,1.2544
4481.00,1.2613
4480.00,1.2683
4479.00,1.2752
4478.00,1.2821
4477.00,1.2889
4476.00,1.2956
4475.00,1.3022
4474.00,1.3089
4473.00,1.3155
4472.00,1.3221
4471.00,1.3286
4470.00,1.3349
4469.00,1.3410
4468.00,1.3470
4467.00,1.3530
4466.00,1.3590
4465.00,1.3649
4464.00,1.3707
4463.00,1.3764
4462.00,1.3820
4461.00,1.3875
4460.00,1.3930
4459.00,1.3986
4458.00,1.4041
4457.00,1.4096
4456.00,1.4148
4455.00,1.4199
4454.00,1.4248
4453.00,1.4298
4452.00,1.4348
4451.00,1.4398
4450.00,1.4446
4449.00,1.4493
4448.00,1.4540
4447.00,1.4587
4446.00,1.4633
4445.00,1.4678
4444.00,1.4722
4443.00,1.4765
4442.00,1.4806
4441.00,1.4847
4440.00,1.4887
4439.00,1.4927
4438.00,1.4967
4437.00,1.5006
4436.00,1.5046
4435.00,1.5084
4434.00,1.5121
4433.00,1.5159
4432.00,1.5196
4431.00,1.5233
4430.00,1.5269
4429.00,1.5303
4428.00,1.5336
4427.00,1.5367
4426.00,1.5398
4425.00,1.5428
4424.00,1.5459
4423.00,1.5491
4422.00,1.5524
4421.00,1.5556
4420.00,1.5585
4419.00,1.5612
4418.00,1.5637
4417.00,1.5660
4416.00,1.5683
4415.00,1.5705
4414.00,1.5729
4413.00,1.5755
4412.00,1.5781
4411.00,1.5807
4410.00,1.5831
4409.00,1.5853
4408.00,1.5874
4407.00,1.5896
4406.00,1.5918
4405.00,1.5938
4404.00,1.5956
4403.00,1.5972
4402.00,1.5986
4401.00,1.6001
4400.00,1.6017
4399.00,1.6035
4398.00,1.6053
4397.00,1.6071
4396.00,1.6087
4395.00,1.6102
4394.00,1.6115
4393.00,1.6128
4392.00,1.6141
4391.00,1.6154
4390.00,1.6167
4389.00,1.6179
4388.00,1.6191
4387.00,1.6201
4386.00,1.6210
4385.00,1.6219
4384.00,1.6226
4383.00,1.6232
4382.00,1.6238
4381.00,1.6243
4380.00,1.6248
4379.00,1.6251
4378.00,1.6254
4377.00,1.6258
4376.00,1.6262
4375.00,1.6268
4374.00,1.6273
4373.00,1.6277
4372.00,1.6278
4371.00,1.6275
4370.00,1.6272
4369.00,1.6270
4368.00,1.6270
4367.00,1.6271
4366.00,1.6273
4365.00,1.6272
4364.00,1.6270
4363.00,1.6265
4362.00,1.6259
4361.00,1.6252
4360.00,1.6245
4359.00,1.6239
4358.00,1.6233
4357.00,1.6227
4356.00,1.6221
4355.00,1.6215
4354.00,1.6208
4353.00,1.6200
4352.00,1.6190
4351.00,1.6179
4350.00,1.6167
4349.00,1.6155
4348.00,1.6143
4347.00,1.6131
4346.00,1.6119
4345.00,1.6106
4344.00,1.6092
4343.00,1.6076
4342.00,1.6059
4341.00,1.6043
4340.00,1.6028
4339.00,1.6013
4338.00,1.5997
4337.00,1.5979
4336.00,1.5957
4335.00,1.5935
4334.00,1.5913
4333.00,1.5892
4332.00,1.5870
4331.00,1.5847
4330.00,1.5822
4329.00,1.5797
4328.00,1.5772
4327.00,1.5747
4326.00,1.5721
4325.00,1.5696
4324.00,1.5670
4323.00,1.5643
4322.00,1.5616
4321.00,1.5586
4320.00,1.5554
4319.00,1.5522
4318.00,1.5490
4317.00,1.5459
4316.00,1.5429
4315.00,1.5398
4314.00,1.5366
4313.00,1.5333
4312.00,1.5299
4311.00,1.5263
4310.00,1.5227
4309.00,1.5191
4308.00,1.5154
4307.00,1.5116
4306.00,1.5077
4305.00,1.5037
4304.00,1.4996
4303.00,1.4955
4302.00,1.4913
4301.00,1.4869
4300.00,1.4824
4299.00,1.4779
4298.00,1.4734
4297.00,1.4691
4296.00,1.4647
4295.00,1.4602
4294.00,1.4555
4293.00,1.4507
4292.00,1.4459
4291.00,1.4411
4290.00,1.4362
4289.00,1.4312
4288.00,1.4262
4287.00,1.4211
4286.00,1.4160
4285.00,1.4108
4284.00,1.4055
4283.00,1.3999
4282.00,1.3942
4281.00,1.3885
4280.00,1.3829
4279.00,1.3773
4278.00,1.3716
4277.00,1.3657
4276.00,1.3596
4275.00,1.3533
4274.00,1.3470
4273.00,1.3407
4272.00,1.3342
4271.00,1.3276
4270.00,1.3208
4269.00,1.3140
4268.00,1.3071
4267.00,1.3002
4266.00,1.2933
4265.00,1.2863
4264.00,1.2792
4263.00,1.2720
4262.00,1.2648
4261.00,1.2573
4260.00,1.2497
4259.00,1.2420
4258.00,1.2341
4257.00,1.2262
4256.00,1.2182
4255.00,1.2102
4254.00,1.2022
4253.00,1.1940
4252.00,1.1858
4251.00,1.1775
4250.00,1.1692
4249.00,1.1607
4248.00,1.1522
4247.00,1.1437
4246.00,1.1352
4245.00,1.1265
4244.00,1.1178
4243.00,1.1090
4242.00,1.1002
4241.00,1.0915
4240.00,1.0828
4239.00,1.0743
4238.00,1.0657
4237.00,1.0571
4236.00,1.0485
4235.00,1.0400
4234.00,1.0315
4233.00,1.0230
4232.00,1.0146
4231.00,1.0062
4230.00,0.9978
4229.00,0.9895
4228.00,0.9814
4227.00,0.9733
4226.00,0.9654
4225.00,0.9576
4224.00,0.9499
4223.00,0.9422
4222.00,0.9346
4221.00,0.9272
4220.00,0.9198
4219.00,0.9125
4218.00,0.9053
4217.00,0.8982
4216.00,0.8912
4215.00,0.8842
4214.00,0.8774
4213.00,0.8706
4212.00,0.8640
4211.00,0.8575
4210.00,0.8512
4209.00,0.8449
4208.00,0.8388
4207.00,0.8328
4206.00,0.8271
4205.00,0.8216
4204.00,0.8163
4203.00,0.8112
4202.00,0.8063
4201.00,0.8016
4200.00,0.7972
4199.00,0.7932
4198.00,0.7894
4197.00,0.7859
4196.00,0.7827
4195.00,0.7797
4194.00,0.7771
4193.00,0.7748
4192.00,0.7729
4191.00,0.7712
4190.00,0.7700
4189.00,0.7690
4188.00,0.7684
4187.00,0.7681
4186.00,0.7681
4185.00,0.7683
4184.00,0.7689
4183.00,0.7698
4182.00,0.7710
4181.00,0.7725
4180.00,0.7743
4179.00,0.7764
4178.00,0.7788
4177.00,0.7815
4176.00,0.7845
4175.00,0.7878
4174.00,0.7913
4173.00,0.7952
4172.00,0.7993
4171.00,0.8037
4170.00,0.8084
4169.00,0.8133
4168.00,0.8184
4167.00,0.8238
4166.00,0.8294
4165.00,0.8353
4164.00,0.8414
4163.00,0.8476
4162.00,0.8541
4161.00,0.8608
4160.00,0.8677
4159.00,0.8749
4158.00,0.8822
4157.00,0.8897
4156.00,0.8973
4155.00,0.9051
4154.00,0.9130
4153.00,0.9210
4152.00,0.9290
4151.00,0.9372
4150.00,0.9455
4149.00,0.9539
4148.00,0.9624
4147.00,0.9710
4146.00,0.9797
4145.00,0.9886
4144.00,0.9974
4143.00,1.0063
4142.00,1.0153
4141.00,1.0243
4140.00,1.0334
4139.00,1.0426
4138.00,1.0518
4137.00,1.0610
4136.00,1.0703
4135.00,1.0796
4134.00,1.0890
4133.00,1.0984
4132.00,1.1079
4131.00,1.1173
4130.00,1.1266
4129.00,1.1360
4128.00,1.1454
4127.00,1.1548
4126.00,1.1642
4125.00,1.1734
4124.00,1.1826
4123.00,1.1916
4122.00,1.2005
4121.00,1.2094
4120.00,1.2183
4119.00,1.2271
4118.00,1.2360
4117.00,1.2449
4116.00,1.2537
4115.00,1.2625
4114.00,1.2711
4113.00,1.2797
4112.00,1.2881
4111.00,1.2964
4110.00,1.3047
4109.00,1.3130
4108.00,1.3212
4107.00,1.3293
4106.00,1.3374
4105.00,1.3454
4104.00,1.3534
4103.00,1.3612
4102.00,1.3689
4101.00,1.3764
4100.00,1.3839
4099.00,1.3914
4098.00,1.3989
4097.00,1.4063
4096.00,1.4136
4095.00,1.4207
4094.00,1.4278
4093.00,1.4348
4092.00,1.4417
4091.00,1.4484
4090.00,1.4550
4089.00,1.4615
4088.00,1.4679
4087.00,1.4743
4086.00,1.4806
4085.00,1.4869
4084.00,1.4932
4083.00,1.4996
4082.00,1.5059
4081.00,1.5119
4080.00,1.5176
4079.00,1.5232
4078.00,1.5288
4077.00,1.5343
4076.00,1.5397
4075.00,1.5450
4074.00,1.5502
4073.00,1.5554
4072.00,1.5606
4071.00,1.5657
4070.00,1.5708
4069.00,1.5759
4068.00,1.5810
4067.00,1.5859
4066.00,1.5906
4065.00,1.5952
4064.00,1.5995
4063.00,1.6038
4062.00,1.6081
4061.00,1.6125
4060.00,1.6170
4059.00,1.6216
4058.00,1.6260
4057.00,1.6303
4056.00,1.6343
4055.00,1.6382
4054.00,1.6422
4053.00,1.6462
4052.00,1.6502
4051.00,1.6540
4050.00,1.6577
4049.00,1.6611
4048.00,1.6644
4047.00,1.6676
4046.00,1.6707
4045.00,1.6738
4044.00,1.6770
4043.00,1.6803
4042.00,1.6837
4041.00,1.6868
4040.00,1.6896
4039.00,1.6922
4038.00,1.6948
4037.00,1.6975
4036.00,1.7003
4035.00,1.7029
4034.00,1.7055
4033.00,1.7082
4032.00,1.7109
4031.00,1.7134
4030.00,1.7157
4029.00,1.7179
4028.00,1.7201
4027.00,1.7223
4026.00,1.7244
4025.00,1.7263
4024.00,1.7279
4023.00,1.7295
4022.00,1.7312
4021.00,1.7332
4020.00,1.7354
4019.00,1.7376
4018.00,1.7395
4017.00,1.7410
4016.00,1.7423
4015.00,1.7435
4014.00,1.7448
4013.00,1.7463
4012.00,1.7478
4011.00,1.7492
4010.00,1.7505
4009.00,1.7517
4008.00,1.7527
4007.00,1.7535
4006.00,1.7540
4005.00,1.7546
4004.00,1.7555
4003.00,1.7565
4002.00,1.7575
4001.00,1.7582
4000.00,1.7587
3999.00,1.7589
3998.00,1.7592
3997.00,1.7596
3996.00,1.7601
3995.00,1.7605
3994.00,1.7608
3993.00,1.7610
3992.00,1.7610
3991.00,1.7609
3990.00,1.7608
3989.00,1.7608
3988.00,1.7609
3987.00,1.7610
3986.00,1.7610
3985.00,1.7610
3984.00,1.7608
3983.00,1.7606
3982.00,1.7602
3981.00,1.7596
3980.00,1.7589
3979.00,1.7582
3978.00,1.7575
3977.00,1.7568
3976.00,1.7561
3975.00,1.7553
3974.00,1.7545
3973.00,1.7536
3972.00,1.7524
3971.00,1.7510
3970.00,1.7496
3969.00,1.7484
3968.00,1.7474
3967.00,1.7465
3966.00,1.7454
3965.00,1.7443
3964.00,1.7430
3963.00,1.7415
3962.00,1.7399
3961.00,1.7382
3960.00,1.7364
3959.00,1.7346
3958.00,1.7327
3957.00,1.7307
3956.00,1.7287
3955.00,1.7269
3954.00,1.7252
3953.00,1.7236
3952.00,1.7219
3951.00,1.7200
3950.00,1.7177
3949.00,1.7152
3948.00,1.7125
3947.00,1.7098
3946.00,1.7070
3945.00,1.7044
3944.00,1.7016
3943.00,1.6987
3942.00,1.6957
3941.00,1.6928
3940.00,1.6900
3939.00,1.6872
3938.00,1.6842
3937.00,1.6810
3936.00,1.6776
3935.00,1.6744
3934.00,1.6712
3933.00,1.6679
3932.00,1.6644
3931.00,1.6607
3930.00,1.6568
3929.00,1.6529
3928.00,1.6490
3927.00,1.6450
3926.00,1.6408
3925.00,1.6365
3924.00,1.6322
3923.00,1.6278
3922.00,1.6233
3921.00,1.6187
3920.00,1.6141
3919.00,1.6093
3918.00,1.6044
3917.00,1.5994
3916.00,1.5941
3915.00,1.5889
3914.00,1.5838
3913.00,1.5789
3912.00,1.5737
3911.00,1.5684
3910.00,1.5630
3909.00,1.5575
3908.00,1.5521
3907.00,1.5464
3906.00,1.5405
3905.00,1.5344
3904.00,1.5281
3903.00,1.5216
3902.00,1.5150
3901.00,1.5083
3900.00,1.5014
3899.00,1.4944
3898.00,1.4874
3897.00,1.4806
3896.00,1.4740
3895.00,1.4675
3894.00,1.4609
3893.00,1.4540
3892.00,1.4467
3891.00,1.4389
3890.00,1.4311
3889.00,1.4237
3888.00,1.4165
3887.00,1.4092
3886.00,1.4012
3885.00,1.3928
3884.00,1.3845
3883.00,1.3766
3882.00,1.3685
3881.00,1.3596
3880.00,1.3500
3879.00,1.3405
3878.00,1.3316
3877.00,1.3234
3876.00,1.3150
3875.00,1.3061
3874.00,1.2968
3873.00,1.2877
3872.00,1.2789
3871.00,1.2698
3870.00,1.2598
3869.00,1.2495
3868.00,1.2395
3867.00,1.2303
3866.00,1.2209
3865.00,1.2107
3864.00,1.1999
3863.00,1.1892
3862.00,1.1789
3861.00,1.1690
3860.00,1.1590
3859.00,1.1493
3858.00,1.1402
3857.00,1.1319
3856.00,1.1239
3855.00,1.1154
3854.00,1.1053
3853.00,1.0936
3852.00,1.0817
3851.00,1.0707
3850.00,1.0604
3849.00,1.0499
3848.00,1.0390
3847.00,1.0282
3846.00,1.0179
3845.00,1.0081
3844.00,0.9985
3843.00,0.9890
3842.00,0.9796
3841.00,0.9705
3840.00,0.9616
3839.00,0.9523
3838.00,0.9426
3837.00,0.9326
3836.00,0.9230
3835.00,0.9141
3834.00,0.9055
3833.00,0.8969
3832.00,0.8879
3831.00,0.8792
3830.00,0.8710
3829.00,0.8637
3828.00,0.8569
3827.00,0.8502
3826.00,0.8436
3825.00,0.8376
3824.00,0.8324
3823.00,0.8278
3822.00,0.8231
3821.00,0.8175
3820.00,0.8116
3819.00,0.8065
3818.00,0.8026
3817.00,0.7991
3816.00,0.7955
3815.00,0.7916
3814.00,0.7883
3813.00,0.7860
3812.00,0.7844
3811.00,0.7831
3810.00,0.7822
3809.00,0.7823
3808.00,0.7830
3807.00,0.7840
3806.00,0.7849
3805.00,0.7860
3804.00,0.7878
3803.00,0.7904
3802.00,0.7933
3801.00,0.7962
3800.00,0.7994
3799.00,0.8031
3798.00,0.8071
3797.00,0.8113
3796.00,0.8157
3795.00,0.8205
3794.00,0.8260
3793.00,0.8320
3792.00,0.8386
3791.00,0.8456
3790.00,0.8529
3789.00,0.8605
3788.00,0.8684
3787.00,0.8766
3786.00,0.8849
3785.00,0.8936
3784.00,0.9024
3783.00,0.9114
3782.00,0.9204
3781.00,0.9296
3780.00,0.9392
3779.00,0.9492
3778.00,0.9596
3777.00,0.9700
3776.00,0.9804
3775.00,0.9906
3774.00,1.0008
3773.00,1.0111
3772.00,1.0216
3771.00,1.0325
3770.00,1.0439
3769.00,1.0557
3768.00,1.0677
3767.00,1.0793
3766.00,1.0907
3765.00,1.1019
3764.00,1.1132
3763.00,1.1244
3762.00,1.1354
3761.00,1.1463
3760.00,1.1574
3759.00,1.1689
3758.00,1.1808
3757.00,1.1926
3756.00,1.2038
3755.00,1.2143
3754.00,1.2243
3753.00,1.2347
3752.00,1.2462
3751.00,1.2592
3750.00,1.2735
3749.00,1.2878
3748.00,1.3008
3747.00,1.3117
3746.00,1.3212
3745.00,1.3308
3744.00,1.3421
3743.00,1.3553
3742.00,1.3687
3741.00,1.3807
3740.00,1.3902
3739.00,1.3977
3738.00,1.4050
3737.00,1.4133
3736.00,1.4232
3735.00,1.4343
3734.00,1.4456
3733.00,1.4566
3732.00,1.4668
3731.00,1.4762
3730.00,1.4849
3729.00,1.4932
3728.00,1.5012
3727.00,1.5089
3726.00,1.5167
3725.00,1.5248
3724.00,1.5331
3723.00,1.5414
3722.00,1.5493
3721.00,1.5568
3720.00,1.5639
3719.00,1.5708
3718.00,1.5781
3717.00,1.5862
3716.00,1.5950
3715.00,1.6040
3714.00,1.6124
3713.00,1.6203
3712.00,1.6281
3711.00,1.6360
3710.00,1.6439
3709.00,1.6516
3708.00,1.6586
3707.00,1.6651
3706.00,1.6713
3705.00,1.6773
3704.00,1.6834
3703.00,1.6894
3702.00,1.6954
3701.00,1.7017
3700.00,1.7082
3699.00,1.7147
3698.00,1.7207
3697.00,1.7264
3696.00,1.7318
3695.00,1.7372
3694.00,1.7425
3693.00,1.7479
3692.00,1.7533
3691.00,1.7585
3690.00,1.7639
3689.00,1.7696
3688.00,1.7755
3687.00,1.7815
3686.00,1.7871
3685.00,1.7921
3684.00,1.7963
3683.00,1.7998
3682.00,1.8032
3681.00,1.8069
3680.00,1.8110
3679.00,1.8153
3678.00,1.8198
3677.00,1.8243
3676.00,1.8288
3675.00,1.8332
3674.00,1.8378
3673.00,1.8424
3672.00,1.8468
3671.00,1.8503
3670.00,1.8532
3669.00,1.8563
3668.00,1.8599
3667.00,1.8636
3666.00,1.8667
3665.00,1.8691
3664.00,1.8713
3663.00,1.8737
3662.00,1.8764
3661.00,1.8794
3660.00,1.8824
3659.00,1.8853
3658.00,1.8883
3657.00,1.8914
3656.00,1.8945
3655.00,1.8975
3654.00,1.9001
3653.00,1.9026
3652.00,1.9047
3651.00,1.9064
3650.00,1.9081
3649.00,1.9101
3648.00,1.9123
3647.00,1.9141
3646.00,1.9154
3645.00,1.9166
3644.00,1.9182
3643.00,1.9202
3642.00,1.9223
3641.00,1.9245
3640.00,1.9264
3639.00,1.9282
3638.00,1.9299
3637.00,1.9316
3636.00,1.9333
3635.00,1.9348
3634.00,1.9360
3633.00,1.9372
3632.00,1.9385
3631.00,1.9399
3630.00,1.9409
3629.00,1.9416
3628.00,1.9421
3627.00,1.9428
3626.00,1.9436
3625.00,1.9443
3624.00,1.9445
3623.00,1.9446
3622.00,1.9446
3621.00,1.9448
3620.00,1.9451
3619.00,1.9452
3618.00,1.9448
3617.00,1.9442
3616.00,1.9437
3615.00,1.9434
3614.00,1.9437
3613.00,1.9444
3612.00,1.9452
3611.00,1.9460
3610.00,1.9465
3609.00,1.9467
3608.00,1.9467
3607.00,1.9464
3606.00,1.9460
3605.00,1.9457
3604.00,1.9455
3603.00,1.9452
3602.00,1.9449
3601.00,1.9442
3600.00,1.9432
3599.00,1.9422
3598.00,1.9412
3597.00,1.9404
3596.00,1.9394
3595.00,1.9379
3594.00,1.9361
3593.00,1.9344
3592.00,1.9330
3591.00,1.9321
3590.00,1.9315
3589.00,1.9308
3588.00,1.9295
3587.00,1.9275
3586.00,1.9250
3585.00,1.9225
3584.00,1.9205
3583.00,1.9188
3582.00,1.9174
3581.00,1.9160
3580.00,1.9145
3579.00,1.9127
3578.00,1.9108
3577.00,1.9090
3576.00,1.9072
3575.00,1.9052
3574.00,1.9027
3573.00,1.9001
3572.00,1.8975
3571.00,1.8950
3570.00,1.8926
3569.00,1.8900
3568.00,1.8870
3567.00,1.8836
3566.00,1.8801
3565.00,1.8769
3564.00,1.8739
3563.00,1.8710
3562.00,1.8681
3561.00,1.8651
3560.00,1.8618
3559.00,1.8582
3558.00,1.8544
3557.00,1.8507
3556.00,1.8471
3555.00,1.8435
3554.00,1.8398
3553.00,1.8362
3552.00,1.8328
3551.00,1.8293
3550.00,1.8255
3549.00,1.8214
3548.00,1.8170
3547.00,1.8123
3546.00,1.8075
3545.00,1.8027
3544.00,1.7980
3543.00,1.7933
3542.00,1.7885
3541.00,1.7837
3540.00,1.7789
3539.00,1.7740
3538.00,1.7690
3537.00,1.7639
3536.00,1.7587
3535.00,1.7535
3534.00,1.7483
3533.00,1.7431
3532.00,1.7378
3531.00,1.7322
3530.00,1.7264
3529.00,1.7205
3528.00,1.7145
3527.00,1.7084
3526.00,1.7022
3525.00,1.6958
3524.00,1.6892
3523.00,1.6824
3522.00,1.6757
3521.00,1.6690
3520.00,1.6625
3519.00,1.6558
3518.00,1.6490
3517.00,1.6419
3516.00,1.6347
3515.00,1.6273
3514.00,1.6198
3513.00,1.6124
3512.00,1.6049
3511.00,1.5972
3510.00,1.5892
3509.00,1.5809
3508.00,1.5725
3507.00,1.5641
3506.00,1.5556
3505.00,1.5469
3504.00,1.5379
3503.00,1.5287
3502.00,1.5194
3501.00,1.5102
3500.00,1.5011
3499.00,1.4917
3498.00,1.4822
3497.00,1.4726
3496.00,1.4629
3495.00,1.4531
3494.00,1.4432
3493.00,1.4331
3492.00,1.4229
3491.00,1.4125
3490.00,1.4020
3489.00,1.3915
3488.00,1.3808
3487.00,1.3700
3486.00,1.3592
3485.00,1.3485
3484.00,1.3377
3483.00,1.3268
3482.00,1.3158
3481.00,1.3046
3480.00,1.2934
3479.00,1.2822
3478.00,1.2711
3477.00,1.2600
3476.00,1.2490
3475.00,1.2379
3474.00,1.2268
3473.00,1.2158
3472.00,1.2048
3471.00,1.1938
3470.00,1.1828
3469.00,1.1719
3468.00,1.1612
3467.00,1.1505
3466.00,1.1400
3465.00,1.1297
3464.00,1.1196
3463.00,1.1095
3462.00,1.0996
3461.00,1.0899
3460.00,1.0803
3459.00,1.0710
3458.00,1.0620
3457.00,1.0532
3456.00,1.0447
3455.00,1.0364
3454.00,1.0284
3453.00,1.0206
3452.00,1.0133
3451.00,1.0063
3450.00,0.9998
3449.00,0.9937
3448.00,0.9879
3447.00,0.9823
3446.00,0.9771
3445.00,0.9724
3444.00,0.9682
3443.00,0.9646
3442.00,0.9615
3441.00,0.9589
3440.00,0.9568
3439.00,0.9553
3438.00,0.9544
3437.00,0.9540
3436.00,0.9542
3435.00,0.9551
3434.00,0.9566
3433.00,0.9588
3432.00,0.9616
3431.00,0.9650
3430.00,0.9690
3429.00,0.9737
3428.00,0.9790
3427.00,0.9849
3426.00,0.9914
3425.00,0.9985
3424.00,1.0061
3423.00,1.0142
3422.00,1.0227
3421.00,1.0317
3420.00,1.0411
3419.00,1.0508
3418.00,1.0607
3417.00,1.0708
3416.00,1.0810
3415.00,1.0912
3414.00,1.1015
3413.00,1.1116
3412.00,1.1215
3411.00,1.1309
3410.00,1.1400
3409.00,1.1486
3408.00,1.1567
3407.00,1.1644
3406.00,1.1716
3405.00,1.1783
3404.00,1.1844
3403.00,1.1901
3402.00,1.1953
3401.00,1.2004
3400.00,1.2055
3399.00,1.2109
3398.00,1.2164
3397.00,1.2222
3396.00,1.2283
3395.00,1.2348
3394.00,1.2416
3393.00,1.2490
3392.00,1.2568
3391.00,1.2652
3390.00,1.2740
3389.00,1.2832
3388.00,1.2928
3387.00,1.3026
3386.00,1.3127
3385.00,1.3231
3384.00,1.3337
3383.00,1.3445
3382.00,1.3555
3381.00,1.3666
3380.00,1.3777
3379.00,1.3888
3378.00,1.4000
3377.00,1.4113
3376.00,1.4225
3375.00,1.4339
3374.00,1.4452
3373.00,1.4566
3372.00,1.4678
3371.00,1.4790
3370.00,1.4900
3369.00,1.5010
3368.00,1.5118
3367.00,1.5224
3366.00,1.5330
3365.00,1.5436
3364.00,1.5542
3363.00,1.5647
3362.00,1.5750
3361.00,1.5852
3360.00,1.5952
3359.00,1.6050
3358.00,1.6147
3357.00,1.6242
3356.00,1.6336
3355.00,1.6429
3354.00,1.6520
3353.00,1.6609
3352.00,1.6696
3351.00,1.6783
3350.00,1.6871
3349.00,1.6960
3348.00,1.7049
3347.00,1.7134
3346.00,1.7217
3345.00,1.7298
3344.00,1.7377
3343.00,1.7454
3342.00,1.7527
3341.00,1.7600
3340.00,1.7672
3339.00,1.7745
3338.00,1.7818
3337.00,1.7890
3336.00,1.7962
3335.00,1.8034
3334.00,1.8105
3333.00,1.8174
3332.00,1.8243
3331.00,1.8310
3330.00,1.8376
3329.00,1.8440
3328.00,1.8501
3327.00,1.8560
3326.00,1.8618
3325.00,1.8677
3324.00,1.8736
3323.00,1.8794
3322.00,1.8852
3321.00,1.8908
3320.00,1.8963
3319.00,1.9019
3318.00,1.9073
3317.00,1.9126
3316.00,1.9176
3315.00,1.9224
3314.00,1.9272
3313.00,1.9323
3312.00,1.9377
3311.00,1.9432
3310.00,1.9485
3309.00,1.9533
3308.00,1.9577
3307.00,1.9620
3306.00,1.9663
3305.00,1.9708
3304.00,1.9753
3303.00,1.9799
3302.00,1.9843
3301.00,1.9886
3300.00,1.9926
3299.00,1.9962
3298.00,1.9995
3297.00,2.0028
3296.00,2.0061
3295.00,2.0097
3294.00,2.0134
3293.00,2.0172
3292.00,2.0209
3291.00,2.0244
3290.00,2.0276
3289.00,2.0306
3288.00,2.0336
3287.00,2.0368
3286.00,2.0403
3285.00,2.0439
3284.00,2.0472
3283.00,2.0500
3282.00,2.0523
3281.00,2.0544
3280.00,2.0565
3279.00,2.0588
3278.00,2.0615
3277.00,2.0645
3276.00,2.0675
3275.00,2.0700
3274.00,2.0718
3273.00,2.0734
3272.00,2.0751
3271.00,2.0770
3270.00,2.0789
3269.00,2.0807
3268.00,2.0823
3267.00,2.0841
3266.00,2.0860
3265.00,2.0881
3264.00,2.0901
3263.00,2.0921
3262.00,2.0941
3261.00,2.0958
3260.00,2.0971
3259.00,2.0981
3258.00,2.0991
3257.00,2.1001
3256.00,2.1010
3255.00,2.1015
3254.00,2.1018
3253.00,2.1023
3252.00,2.1034
3251.00,2.1049
3250.00,2.1065
3249.00,2.1077
3248.00,2.1085
3247.00,2.1091
3246.00,2.1097
3245.00,2.1102
3244.00,2.1105
3243.00,2.1104
3242.00,2.1102
3241.00,2.1098
3240.00,2.1096
3239.00,2.1096
3238.00,2.1098
3237.00,2.1101
3236.00,2.1103
3235.00,2.1101
3234.00,2.1096
3233.00,2.1090
3232.00,2.1086
3231.00,2.1086
3230.00,2.1087
3229.00,2.1086
3228.00,2.1081
3227.00,2.1073
3226.00,2.1064
3225.00,2.1059
3224.00,2.1056
3223.00,2.1053
3222.00,2.1044
3221.00,2.1029
3220.00,2.1011
3219.00,2.0994
3218.00,2.0980
3217.00,2.0970
3216.00,2.0960
3215.00,2.0947
3214.00,2.0933
3213.00,2.0918
3212.00,2.0903
3211.00,2.0889
3210.00,2.0876
3209.00,2.0860
3208.00,2.0842
3207.00,2.0820
3206.00,2.0798
3205.00,2.0777
3204.00,2.0755
3203.00,2.0732
3202.00,2.0707
3201.00,2.0682
3200.00,2.0656
3199.00,2.0630
3198.00,2.0603
3197.00,2.0578
3196.00,2.0555
3195.00,2.0530
3194.00,2.0502
3193.00,2.0469
3192.00,2.0434
3191.00,2.0397
3190.00,2.0362
3189.00,2.0329
3188.00,2.0298
3187.00,2.0266
3186.00,2.0233
3185.00,2.0200
3184.00,2.0168
3183.00,2.0135
3182.00,2.0098
3181.00,2.0056
3180.00,2.0010
3179.00,1.9964
3178.00,1.9921
3177.00,1.9880
3176.00,1.9837
3175.00,1.9790
3174.00,1.9740
3173.00,1.9687
3172.00,1.9634
3171.00,1.9583
3170.00,1.9533
3169.00,1.9486
3168.00,1.9438
3167.00,1.9385
3166.00,1.9329
3165.00,1.9271
3164.00,1.9212
3163.00,1.9151
3162.00,1.9089
3161.00,1.9028
3160.00,1.8969
3159.00,1.8908
3158.00,1.8846
3157.00,1.8782
3156.00,1.8716
3155.00,1.8647
3154.00,1.8577
3153.00,1.8505
3152.00,1.8434
3151.00,1.8360
3150.00,1.8284
3149.00,1.8207
3148.00,1.8130
3147.00,1.8053
3146.00,1.7975
3145.00,1.7894
3144.00,1.7811
3143.00,1.7725
3142.00,1.7638
3141.00,1.7550
3140.00,1.7459
3139.00,1.7367
3138.00,1.7272
3137.00,1.7176
3136.00,1.7078
3135.00,1.6981
3134.00,1.6882
3133.00,1.6781
3132.00,1.6677
3131.00,1.6571
3130.00,1.6464
3129.00,1.6355
3128.00,1.6244
3127.00,1.6131
3126.00,1.6016
3125.00,1.5898
3124.00,1.5777
3123.00,1.5654
3122.00,1.5529
3121.00,1.5403
3120.00,1.5275
3119.00,1.5146
3118.00,1.5016
3117.00,1.4884
3116.00,1.4750
3115.00,1.4613
3114.00,1.4474
3113.00,1.4334
3112.00,1.4193
3111.00,1.4052
3110.00,1.3911
3109.00,1.3769
3108.00,1.3626
3107.00,1.3482
3106.00,1.3336
3105.00,1.3190
3104.00,1.3045
3103.00,1.2901
3102.00,1.2756
3101.00,1.2612
3100.00,1.2468
3099.00,1.2324
3098.00,1.2182
3097.00,1.2042
3096.00,1.1904
3095.00,1.1768
3094.00,1.1634
3093.00,1.1503
3092.00,1.1375
3091.00,1.1250
3090.00,1.1129
3089.00,1.1013
3088.00,1.0901
3087.00,1.0793
3086.00,1.0690
3085.00,1.0592
3084.00,1.0500
3083.00,1.0413
3082.00,1.0332
3081.00,1.0257
3080.00,1.0190
3079.00,1.0130
3078.00,1.0077
3077.00,1.0033
3076.00,0.9998
3075.00,0.9972
3074.00,0.9955
3073.00,0.9949
3072.00,0.9952
3071.00,0.9966
3070.00,0.9988
3069.00,1.0020
3068.00,1.0061
3067.00,1.0112
3066.00,1.0170
3065.00,1.0237
3064.00,1.0311
3063.00,1.0392
3062.00,1.0480
3061.00,1.0576
3060.00,1.0679
3059.00,1.0789
3058.00,1.0906
3057.00,1.1028
3056.00,1.1155
3055.00,1.1286
3054.00,1.1422
3053.00,1.1562
3052.00,1.1705
3051.00,1.1852
3050.00,1.2002
3049.00,1.2155
3048.00,1.2311
3047.00,1.2472
3046.00,1.2637
3045.00,1.2806
3044.00,1.2978
3043.00,1.3155
3042.00,1.3334
3041.00,1.3517
3040.00,1.3702
3039.00,1.3889
3038.00,1.4077
3037.00,1.4265
3036.00,1.4454
3035.00,1.4644
3034.00,1.4833
3033.00,1.5022
3032.00,1.5207
3031.00,1.5390
3030.00,1.5572
3029.00,1.5751
3028.00,1.5928
3027.00,1.6103
3026.00,1.6274
3025.00,1.6444
3024.00,1.6612
3023.00,1.6778
3022.00,1.6943
3021.00,1.7107
3020.00,1.7271
3019.00,1.7433
3018.00,1.7593
3017.00,1.7750
3016.00,1.7905
3015.00,1.8060
3014.00,1.8215
3013.00,1.8371
3012.00,1.8524
3011.00,1.8673
3010.00,1.8816
3009.00,1.8956
3008.00,1.9097
3007.00,1.9240
3006.00,1.9386
3005.00,1.9531
3004.00,1.9675
3003.00,1.9816
3002.00,1.9954
3001.00,2.0090
3000.00,2.0224
2999.00,2.0358
2998.00,2.0490
2997.00,2.0622
2996.00,2.0755
2995.00,2.0886
2994.00,2.1014
2993.00,2.1138
2992.00,2.1260
2991.00,2.1380
2990.00,2.1501
2989.00,2.1620
2988.00,2.1737
2987.00,2.1851
2986.00,2.1966
2985.00,2.2082
2984.00,2.2198
2983.00,2.2313
2982.00,2.2433
2981.00,2.2560
2980.00,2.2690
2979.00,2.2815
2978.00,2.2934
2977.00,2.3052
2976.00,2.3175
2975.00,2.3303
2974.00,2.3439
2973.00,2.3588
2972.00,2.3749
2971.00,2.3917
2970.00,2.4087
2969.00,2.4265
2968.00,2.4462
2967.00,2.4684
2966.00,2.4927
2965.00,2.5185
2964.00,2.5455
2963.00,2.5734
2962.00,2.6021
2961.00,2.6314
2960.00,2.6602
2959.00,2.6875
2958.00,2.7128
2957.00,2.7359
2956.00,2.7570
2955.00,2.7763
2954.00,2.7952
2953.00,2.8149
2952.00,2.8362
2951.00,2.8589
2950.00,2.8828
2949.00,2.9079
2948.00,2.9330
2947.00,2.9568
2946.00,2.9794
2945.00,3.0025
2944.00,3.0266
2943.00,3.0493
2942.00,3.0688
2941.00,3.0855
2940.00,3.1003
2939.00,3.1120
2938.00,3.1184
2937.00,3.1188
2936.00,3.1128
2935.00,3.0991
2934.00,3.0765
2933.00,3.0463
2932.00,3.0112
2931.00,2.9739
2930.00,2.9355
2929.00,2.8957
2928.00,2.8537
2927.00,2.8084
2926.00,2.7602
2925.00,2.7111
2924.00,2.6631
2923.00,2.6176
2922.00,2.5752
2921.00,2.5354
2920.00,2.4974
2919.00,2.4603
2918.00,2.4243
2917.00,2.3906
2916.00,2.3605
2915.00,2.3353
2914.00,2.3150
2913.00,2.2992
2912.00,2.2870
2911.00,2.2776
2910.00,2.2708
2909.00,2.2664
2908.00,2.2644
2907.00,2.2641
2906.00,2.2649
2905.00,2.2660
2904.00,2.2670
2903.00,2.2676
2902.00,2.2681
2901.00,2.2689
2900.00,2.2700
2899.00,2.2715
2898.00,2.2736
2897.00,2.2765
2896.00,2.2803
2895.00,2.2848
2894.00,2.2898
2893.00,2.2954
2892.00,2.3015
2891.00,2.3080
2890.00,2.3146
2889.00,2.3212
2888.00,2.3280
2887.00,2.3349
2886.00,2.3423
2885.00,2.3501
2884.00,2.3585
2883.00,2.3674
2882.00,2.3766
2881.00,2.3861
2880.00,2.3961
2879.00,2.4068
2878.00,2.4184
2877.00,2.4311
2876.00,2.4448
2875.00,2.4599
2874.00,2.4770
2873.00,2.4956
2872.00,2.5148
2871.00,2.5340
2870.00,2.5534
2869.00,2.5737
2868.00,2.5945
2867.00,2.6144
2866.00,2.6314
2865.00,2.6441
2864.00,2.6514
2863.00,2.6521
2862.00,2.6450
2861.00,2.6304
2860.00,2.6089
2859.00,2.5816
2858.00,2.5499
2857.00,2.5153
2856.00,2.4798
2855.00,2.4449
2854.00,2.4117
2853.00,2.3812
2852.00,2.3543
2851.00,2.3320
2850.00,2.3147
2849.00,2.3022
2848.00,2.2937
2847.00,2.2884
2846.00,2.2855
2845.00,2.2846
2844.00,2.2856
2843.00,2.2882
2842.00,2.2925
2841.00,2.2982
2840.00,2.3047
2839.00,2.3111
2838.00,2.3166
2837.00,2.3212
2836.00,2.3251
2835.00,2.3287
2834.00,2.3325
2833.00,2.3364
2832.00,2.3404
2831.00,2.3440
2830.00,2.3470
2829.00,2.3495
2828.00,2.3521
2827.00,2.3548
2826.00,2.3577
2825.00,2.3603
2824.00,2.3622
2823.00,2.3635
2822.00,2.3642
2821.00,2.3643
2820.00,2.3637
2819.00,2.3629
2818.00,2.3628
2817.00,2.3638
2816.00,2.3654
2815.00,2.3668
2814.00,2.3676
2813.00,2.3680
2812.00,2.3682
2811.00,2.3680
2810.00,2.3674
2809.00,2.3667
2808.00,2.3666
2807.00,2.3670
2806.00,2.3672
2805.00,2.3669
2804.00,2.3660
2803.00,2.3650
2802.00,2.3643
2801.00,2.3641
2800.00,2.3641
2799.00,2.3638
2798.00,2.3631
2797.00,2.3621
2796.00,2.3611
2795.00,2.3601
2794.00,2.3591
2793.00,2.3581
2792.00,2.3570
2791.00,2.3556
2790.00,2.3537
2789.00,2.3515
2788.00,2.3494
2787.00,2.3476
2786.00,2.3456
2785.00,2.3429
2784.00,2.3397
2783.00,2.3368
2782.00,2.3344
2781.00,2.3324
2780.00,2.3298
2779.00,2.3266
2778.00,2.3232
2777.00,2.3202
2776.00,2.3177
2775.00,2.3156
2774.00,2.3133
2773.00,2.3104
2772.00,2.3068
2771.00,2.3029
2770.00,2.2988
2769.00,2.2949
2768.00,2.2908
2767.00,2.2866
2766.00,2.2823
2765.00,2.2780
2764.00,2.2736
2763.00,2.2691
2762.00,2.2648
2761.00,2.2606
2760.00,2.2567
2759.00,2.2526
2758.00,2.2482
2757.00,2.2433
2756.00,2.2379
2755.00,2.2323
2754.00,2.2266
2753.00,2.2211
2752.00,2.2158
2751.00,2.2104
2750.00,2.2047
2749.00,2.1989
2748.00,2.1930
2747.00,2.1871
2746.00,2.1811
2745.00,2.1748
2744.00,2.1679
2743.00,2.1606
2742.00,2.1530
2741.00,2.1455
2740.00,2.1384
2739.00,2.1316
2738.00,2.1248
2737.00,2.1177
2736.00,2.1104
2735.00,2.1029
2734.00,2.0951
2733.00,2.0870
2732.00,2.0786
2731.00,2.0701
2730.00,2.0617
2729.00,2.0533
2728.00,2.0448
2727.00,2.0359
2726.00,2.0266
2725.00,2.0172
2724.00,2.0077
2723.00,1.9980
2722.00,1.9881
2721.00,1.9779
2720.00,1.9674
2719.00,1.9568
2718.00,1.9459
2717.00,1.9348
2716.00,1.9234
2715.00,1.9115
2714.00,1.8995
2713.00,1.8876
2712.00,1.8757
2711.00,1.8638
2710.00,1.8514
2709.00,1.8386
2708.00,1.8254
2707.00,1.8118
2706.00,1.7980
2705.00,1.7841
2704.00,1.7699
2703.00,1.7553
2702.00,1.7405
2701.00,1.7255
2700.00,1.7102
2699.00,1.6948
2698.00,1.6792
2697.00,1.6635
2696.00,1.6474
2695.00,1.6310
2694.00,1.6143
2693.00,1.5974
2692.00,1.5805
2691.00,1.5635
2690.00,1.5465
2689.00,1.5295
2688.00,1.5127
2687.00,1.4962
2686.00,1.4801
2685.00,1.4646
2684.00,1.4498
2683.00,1.4360
2682.00,1.4233
2681.00,1.4118
2680.00,1.4017
2679.00,1.3926
2678.00,1.3843
2677.00,1.3763
2676.00,1.3683
2675.00,1.3600
2674.00,1.3513
2673.00,1.3421
2672.00,1.3326
2671.00,1.3230
2670.00,1.3131
2669.00,1.3028
2668.00,1.2915
2667.00,1.2788
2666.00,1.2645
2665.00,1.2489
2664.00,1.2325
2663.00,1.2161
2662.00,1.2000
2661.00,1.1850
2660.00,1.1714
2659.00,1.1593
2658.00,1.1488
2657.00,1.1400
2656.00,1.1329
2655.00,1.1272
2654.00,1.1228
2653.00,1.1196
2652.00,1.1175
2651.00,1.1161
2650.00,1.1155
2649.00,1.1155
2648.00,1.1161
2647.00,1.1174
2646.00,1.1191
2645.00,1.1215
2644.00,1.1244
2643.00,1.1281
2642.00,1.1327
2641.00,1.1384
2640.00,1.1452
2639.00,1.1533
2638.00,1.1626
2637.00,1.1731
2636.00,1.1848
2635.00,1.1975
2634.00,1.2113
2633.00,1.2259
2632.00,1.2415
2631.00,1.2577
2630.00,1.2747
2629.00,1.2922
2628.00,1.3103
2627.00,1.3288
2626.00,1.3477
2625.00,1.3668
2624.00,1.3863
2623.00,1.4058
2622.00,1.4254
2621.00,1.4450
2620.00,1.4645
2619.00,1.4839
2618.00,1.5031
2617.00,1.5220
2616.00,1.5407
2615.00,1.5591
2614.00,1.5772
2613.00,1.5949
2612.00,1.6122
2611.00,1.6291
2610.00,1.6455
2609.00,1.6616
2608.00,1.6774
2607.00,1.6931
2606.00,1.7087
2605.00,1.7243
2604.00,1.7398
2603.00,1.7551
2602.00,1.7703
2601.00,1.7855
2600.00,1.8008
2599.00,1.8160
2598.00,1.8308
2597.00,1.8455
2596.00,1.8601
2595.00,1.8745
2594.00,1.8888
2593.00,1.9028
2592.00,1.9167
2591.00,1.9304
2590.00,1.9439
2589.00,1.9570
2588.00,1.9696
2587.00,1.9818
2586.00,1.9938
2585.00,2.0060
2584.00,2.0180
2583.00,2.0296
2582.00,2.0408
2581.00,2.0519
2580.00,2.0632
2579.00,2.0745
2578.00,2.0854
2577.00,2.0958
2576.00,2.1057
2575.00,2.1156
2574.00,2.1255
2573.00,2.1355
2572.00,2.1452
2571.00,2.1545
2570.00,2.1635
2569.00,2.1723
2568.00,2.1811
2567.00,2.1895
2566.00,2.1976
2565.00,2.2056
2564.00,2.2137
2563.00,2.2218
2562.00,2.2301
2561.00,2.2387
2560.00,2.2473
2559.00,2.2554
2558.00,2.2627
2557.00,2.2694
2556.00,2.2759
2555.00,2.2825
2554.00,2.2895
2553.00,2.2969
2552.00,2.3045
2551.00,2.3120
2550.00,2.3193
2549.00,2.3262
2548.00,2.3325
2547.00,2.3379
2546.00,2.3429
2545.00,2.3483
2544.00,2.3544
2543.00,2.3609
2542.00,2.3672
2541.00,2.3732
2540.00,2.3790
2539.00,2.3846
2538.00,2.3901
2537.00,2.3956
2536.00,2.4011
2535.00,2.4065
2534.00,2.4116
2533.00,2.4167
2532.00,2.4218
2531.00,2.4270
2530.00,2.4322
2529.00,2.4373
2528.00,2.4420
2527.00,2.4463
2526.00,2.4502
2525.00,2.4542
2524.00,2.4582
2523.00,2.4621
2522.00,2.4660
2521.00,2.4699
2520.00,2.4737
2519.00,2.4770
2518.00,2.4798
2517.00,2.4828
2516.00,2.4866
2515.00,2.4908
2514.00,2.4949
2513.00,2.4984
2512.00,2.5016
2511.00,2.5047
2510.00,2.5080
2509.00,2.5117
2508.00,2.5157
2507.00,2.5193
2506.00,2.5221
2505.00,2.5245
2504.00,2.5271
2503.00,2.5302
2502.00,2.5336
2501.00,2.5371
2500.00,2.5406
2499.00,2.5436
2498.00,2.5456
2497.00,2.5465
2496.00,2.5468
2495.00,2.5474
2494.00,2.5488
2493.00,2.5512
2492.00,2.5541
2491.00,2.5571
2490.00,2.5600
2489.00,2.5630
2488.00,2.5657
2487.00,2.5680
2486.00,2.5697
2485.00,2.5714
2484.00,2.5732
2483.00,2.5746
2482.00,2.5746
2481.00,2.5737
2480.00,2.5729
2479.00,2.5730
2478.00,2.5742
2477.00,2.5763
2476.00,2.5784
2475.00,2.5801
2474.00,2.5814
2473.00,2.5827
2472.00,2.5842
2471.00,2.5860
2470.00,2.5878
2469.00,2.5895
2468.00,2.5912
2467.00,2.5925
2466.00,2.5932
2465.00,2.5935
2464.00,2.5937
2463.00,2.5941
2462.00,2.5948
2461.00,2.5955
2460.00,2.5959
2459.00,2.5957
2458.00,2.5949
2457.00,2.5937
2456.00,2.5924
2455.00,2.5911
2454.00,2.5904
2453.00,2.5905
2452.00,2.5911
2451.00,2.5912
2450.00,2.5906
2449.00,2.5899
2448.00,2.5899
2447.00,2.5905
2446.00,2.5908
2445.00,2.5901
2444.00,2.5883
2443.00,2.5861
2442.00,2.5839
2441.00,2.5823
2440.00,2.5814
2439.00,2.5812
2438.00,2.5813
2437.00,2.5812
2436.00,2.5802
2435.00,2.5780
2434.00,2.5749
2433.00,2.5717
2432.00,2.5691
2431.00,2.5673
2430.00,2.5659
2429.00,2.5647
2428.00,2.5635
2427.00,2.5618
2426.00,2.5599
2425.00,2.5580
2424.00,2.5567
2423.00,2.5558
2422.00,2.5548
2421.00,2.5531
2420.00,2.5509
2419.00,2.5481
2418.00,2.5452
2417.00,2.5422
2416.00,2.5396
2415.00,2.5373
2414.00,2.5351
2413.00,2.5328
2412.00,2.5300
2411.00,2.5267
2410.00,2.5231
2409.00,2.5193
2408.00,2.5157
2407.00,2.5119
2406.00,2.5080
2405.00,2.5042
2404.00,2.5006
2403.00,2.4971
2402.00,2.4935
2401.00,2.4898
2400.00,2.4863
2399.00,2.4827
2398.00,2.4785
2397.00,2.4736
2396.00,2.4684
2395.00,2.4635
2394.00,2.4593
2393.00,2.4553
2392.00,2.4511
2391.00,2.4467
2390.00,2.4424
2389.00,2.4383
2388.00,2.4345
2387.00,2.4309
2386.00,2.4276
2385.00,2.4250
2384.00,2.4230
2383.00,2.4211
2382.00,2.4181
2381.00,2.4134
2380.00,2.4069
2379.00,2.3984
2378.00,2.3879
2377.00,2.3758
2376.00,2.3630
2375.00,2.3506
2374.00,2.3391
2373.00,2.3284
2372.00,2.3187
2371.00,2.3105
2370.00,2.3038
2369.00,2.2977
2368.00,2.2913
2367.00,2.2846
2366.00,2.2775
2365.00,2.2696
2364.00,2.2616
2363.00,2.2533
2362.00,2.2442
2361.00,2.2343
2360.00,2.2233
2359.00,2.2126
2358.00,2.2020
2357.00,2.1916
2356.00,2.1826
2355.00,2.1754
2354.00,2.1672
2353.00,2.1532
2352.00,2.1359
2351.00,2.1229
2350.00,2.1200
2349.00,2.1257
2348.00,2.1300
2347.00,2.1246
2346.00,2.1067
2345.00,2.0832
2344.00,2.0614
2343.00,2.0424
2342.00,2.0261
2341.00,2.0111
2340.00,1.9977
2339.00,1.9846
2338.00,1.9719
2337.00,1.9587
2336.00,1.9467
2335.00,1.9354
2334.00,1.9256
2333.00,1.9139
2332.00,1.9001
2331.00,1.8837
2330.00,1.8660
2329.00,1.8490
2328.00,1.8333
2327.00,1.8198
2326.00,1.8068
2325.00,1.7928
2324.00,1.7770
2323.00,1.7591
2322.00,1.7403
2321.00,1.7200
2320.00,1.6999
2319.00,1.6802
2318.00,1.6627
2317.00,1.6469
2316.00,1.6326
2315.00,1.6176
2314.00,1.6016
2313.00,1.5840
2312.00,1.5655
2311.00,1.5463
2310.00,1.5268
2309.00,1.5070
2308.00,1.4873
2307.00,1.4674
2306.00,1.4482
2305.00,1.4293
2304.00,1.4113
2303.00,1.3937
2302.00,1.3766
2301.00,1.3598
2300.00,1.3438
2299.00,1.3284
2298.00,1.3138
2297.00,1.2999
2296.00,1.2869
2295.00,1.2747
2294.00,1.2632
2293.00,1.2528
2292.00,1.2432
2291.00,1.2347
2290.00,1.2271
2289.00,1.2204
2288.00,1.2147
2287.00,1.2101
2286.00,1.2067
2285.00,1.2051
2284.00,1.2053
2283.00,1.2072
2282.00,1.2107
2281.00,1.2157
2280.00,1.2221
2279.00,1.2300
2278.00,1.2393
2277.00,1.2498
2276.00,1.2616
2275.00,1.2745
2274.00,1.2884
2273.00,1.3031
2272.00,1.3185
2271.00,1.3345
2270.00,1.3511
2269.00,1.3681
2268.00,1.3857
2267.00,1.4039
2266.00,1.4226
2265.00,1.4419
2264.00,1.4617
2263.00,1.4820
2262.00,1.5027
2261.00,1.5237
2260.00,1.5451
2259.00,1.5666
2258.00,1.5881
2257.00,1.6098
2256.00,1.6313
2255.00,1.6527
2254.00,1.6739
2253.00,1.6949
2252.00,1.7159
2251.00,1.7368
2250.00,1.7575
2249.00,1.7781
2248.00,1.7985
2247.00,1.8186
2246.00,1.8384
2245.00,1.8577
2244.00,1.8766
2243.00,1.8951
2242.00,1.9132
2241.00,1.9310
2240.00,1.9486
2239.00,1.9662
2238.00,1.9835
2237.00,2.0006
2236.00,2.0172
2235.00,2.0334
2234.00,2.0491
2233.00,2.0645
2232.00,2.0796
2231.00,2.0943
2230.00,2.1087
2229.00,2.1230
2228.00,2.1370
2227.00,2.1508
2226.00,2.1644
2225.00,2.1782
2224.00,2.1921
2223.00,2.2058
2222.00,2.2189
2221.00,2.2312
2220.00,2.2431
2219.00,2.2550
2218.00,2.2667
2217.00,2.2783
2216.00,2.2893
2215.00,2.2998
2214.00,2.3104
2213.00,2.3212
2212.00,2.3321
2211.00,2.3428
2210.00,2.3534
2209.00,2.3639
2208.00,2.3743
2207.00,2.3844
2206.00,2.3939
2205.00,2.4030
2204.00,2.4118
2203.00,2.4204
2202.00,2.4290
2201.00,2.4378
2200.00,2.4469
2199.00,2.4559
2198.00,2.4648
2197.00,2.4735
2196.00,2.4824
2195.00,2.4913
2194.00,2.4999
2193.00,2.5081
2192.00,2.5158
2191.00,2.5231
2190.00,2.5304
2189.00,2.5377
2188.00,2.5449
2187.00,2.5517
2186.00,2.5584
2185.00,2.5656
2184.00,2.5728
2183.00,2.5793
2182.00,2.5851
2181.00,2.5910
2180.00,2.5978
2179.00,2.6050
2178.00,2.6114
2177.00,2.6167
2176.00,2.6214
2175.00,2.6263
2174.00,2.6320
2173.00,2.6380
2172.00,2.6436
2171.00,2.6480
2170.00,2.6519
2169.00,2.6561
2168.00,2.6612
2167.00,2.6666
2166.00,2.6718
2165.00,2.6769
2164.00,2.6821
2163.00,2.6872
2162.00,2.6921
2161.00,2.6969
2160.00,2.7017
2159.00,2.7062
2158.00,2.7103
2157.00,2.7143
2156.00,2.7182
2155.00,2.7223
2154.00,2.7266
2153.00,2.7316
2152.00,2.7373
2151.00,2.7434
2150.00,2.7494
2149.00,2.7546
2148.00,2.7584
2147.00,2.7603
2146.00,2.7610
2145.00,2.7621
2144.00,2.7646
2143.00,2.7678
2142.00,2.7706
2141.00,2.7728
2140.00,2.7754
2139.00,2.7788
2138.00,2.7829
2137.00,2.7868
2136.00,2.7901
2135.00,2.7926
2134.00,2.7950
2133.00,2.7984
2132.00,2.8029
2131.00,2.8072
2130.00,2.8096
2129.00,2.8096
2128.00,2.8083
2127.00,2.8079
2126.00,2.8098
2125.00,2.8143
2124.00,2.8199
2123.00,2.8241
2122.00,2.8262
2121.00,2.8269
2120.00,2.8275
2119.00,2.8286
2118.00,2.8302
2117.00,2.8327
2116.00,2.8360
2115.00,2.8390
2114.00,2.8408
2113.00,2.8416
2112.00,2.8421
2111.00,2.8426
2110.00,2.8433
2109.00,2.8443
2108.00,2.8460
2107.00,2.8479
2106.00,2.8491
2105.00,2.8497
2104.00,2.8505
2103.00,2.8519
2102.00,2.8536
2101.00,2.8543
2100.00,2.8539
2099.00,2.8538
2098.00,2.8551
2097.00,2.8570
2096.00,2.8573
2095.00,2.8551
2094.00,2.8518
2093.00,2.8501
2092.00,2.8508
2091.00,2.8532
2090.00,2.8560
2089.00,2.8583
2088.00,2.8592
2087.00,2.8584
2086.00,2.8567
2085.00,2.8558
2084.00,2.8558
2083.00,2.8554
2082.00,2.8539
2081.00,2.8524
2080.00,2.8520
2079.00,2.8522
2078.00,2.8518
2077.00,2.8504
2076.00,2.8488
2075.00,2.8476
2074.00,2.8471
2073.00,2.8472
2072.00,2.8478
2071.00,2.8480
2070.00,2.8474
2069.00,2.8460
2068.00,2.8443
2067.00,2.8433
2066.00,2.8435
2065.00,2.8452
2064.00,2.8473
2063.00,2.8477
2062.00,2.8454
2061.00,2.8414
2060.00,2.8372
2059.00,2.8333
2058.00,2.8299
2057.00,2.8271
2056.00,2.8247
2055.00,2.8222
2054.00,2.8195
2053.00,2.8178
2052.00,2.8176
2051.00,2.8175
2050.00,2.8158
2049.00,2.8121
2048.00,2.8078
2047.00,2.8039
2046.00,2.8010
2045.00,2.7986
2044.00,2.7963
2043.00,2.7931
2042.00,2.7891
2041.00,2.7852
2040.00,2.7822
2039.00,2.7796
2038.00,2.7770
2037.00,2.7745
2036.00,2.7722
2035.00,2.7696
2034.00,2.7659
2033.00,2.7611
2032.00,2.7558
2031.00,2.7502
2030.00,2.7444
2029.00,2.7388
2028.00,2.7340
2027.00,2.7296
2026.00,2.7251
2025.00,2.7201
2024.00,2.7155
2023.00,2.7123
2022.00,2.7102
2021.00,2.7078
2020.00,2.7036
2019.00,2.6973
2018.00,2.6904
2017.00,2.6846
2016.00,2.6804
2015.00,2.6764
2014.00,2.6710
2013.00,2.6640
2012.00,2.6564
2011.00,2.6493
2010.00,2.6432
2009.00,2.6380
2008.00,2.6325
2007.00,2.6258
2006.00,2.6180
2005.00,2.6104
2004.00,2.6031
2003.00,2.5953
2002.00,2.5862
2001.00,2.5768
2000.00,2.5683
1999.00,2.5607
1998.00,2.5534
1997.00,2.5459
1996.00,2.5380
1995.00,2.5293
1994.00,2.5194
1993.00,2.5092
1992.00,2.4998
1991.00,2.4915
1990.00,2.4830
1989.00,2.4730
1988.00,2.4618
1987.00,2.4505
1986.00,2.4394
1985.00,2.4283
1984.00,2.4167
1983.00,2.4047
1982.00,2.3924
1981.00,2.3805
1980.00,2.3692
1979.00,2.3586
1978.00,2.3482
1977.00,2.3373
1976.00,2.3258
1975.00,2.3137
1974.00,2.3013
1973.00,2.2886
1972.00,2.2754
1971.00,2.2617
1970.00,2.2472
1969.00,2.2321
1968.00,2.2168
1967.00,2.2019
1966.00,2.1874
1965.00,2.1723
1964.00,2.1556
1963.00,2.1370
1962.00,2.1178
1961.00,2.0988
1960.00,2.0799
1959.00,2.0606
1958.00,2.0407
1957.00,2.0205
1956.00,2.0004
1955.00,1.9801
1954.00,1.9595
1953.00,1.9388
1952.00,1.9178
1951.00,1.8963
1950.00,1.8746
1949.00,1.8529
1948.00,1.8311
1947.00,1.8093
1946.00,1.7879
1945.00,1.7667
1944.00,1.7447
1943.00,1.7220
1942.00,1.6999
1941.00,1.6790
1940.00,1.6579
1939.00,1.6349
1938.00,1.6105
1937.00,1.5868
1936.00,1.5647
1935.00,1.5436
1934.00,1.5231
1933.00,1.5036
1932.00,1.4855
1931.00,1.4685
1930.00,1.4527
1929.00,1.4382
1928.00,1.4253
1927.00,1.4142
1926.00,1.4049
1925.00,1.3974
1924.00,1.3918
1923.00,1.3893
1922.00,1.3907
1921.00,1.3948
1920.00,1.3985
1919.00,1.4008
1918.00,1.4045
1917.00,1.4128
1916.00,1.4259
1915.00,1.4410
1914.00,1.4568
1913.00,1.4739
1912.00,1.4928
1911.00,1.5127
1910.00,1.5335
1909.00,1.5557
1908.00,1.5794
1907.00,1.6034
1906.00,1.6267
1905.00,1.6498
1904.00,1.6735
1903.00,1.6982
1902.00,1.7239
1901.00,1.7502
1900.00,1.7768
1899.00,1.8035
1898.00,1.8301
1897.00,1.8564
1896.00,1.8828
1895.00,1.9097
1894.00,1.9373
1893.00,1.9646
1892.00,1.9897
1891.00,2.0125
1890.00,2.0353
1889.00,2.0603
1888.00,2.0871
1887.00,2.1130
1886.00,2.1364
1885.00,2.1583
1884.00,2.1802
1883.00,2.2020
1882.00,2.2228
1881.00,2.2424
1880.00,2.2615
1879.00,2.2807
1878.00,2.3001
1877.00,2.3192
1876.00,2.3377
1875.00,2.3552
1874.00,2.3716
1873.00,2.3869
1872.00,2.4004
1871.00,2.4118
1870.00,2.4220
1869.00,2.4335
1868.00,2.4483
1867.00,2.4661
1866.00,2.4836
1865.00,2.4985
1864.00,2.5118
1863.00,2.5248
1862.00,2.5379
1861.00,2.5513
1860.00,2.5647
1859.00,2.5784
1858.00,2.5923
1857.00,2.6062
1856.00,2.6197
1855.00,2.6324
1854.00,2.6439
1853.00,2.6546
1852.00,2.6648
1851.00,2.6752
1850.00,2.6857
1849.00,2.6967
1848.00,2.7092
1847.00,2.7222
1846.00,2.7327
1845.00,2.7385
1844.00,2.7419
1843.00,2.7481
1842.00,2.7597
1841.00,2.7741
1840.00,2.7884
1839.00,2.8015
1838.00,2.8126
1837.00,2.8213
1836.00,2.8287
1835.00,2.8369
1834.00,2.8476
1833.00,2.8592
1832.00,2.8681
1831.00,2.8721
1830.00,2.8736
1829.00,2.8780
1828.00,2.8869
1827.00,2.8958
1826.00,2.9024
1825.00,2.9088
1824.00,2.9169
1823.00,2.9257
1822.00,2.9332
1821.00,2.9395
1820.00,2.9465
1819.00,2.9544
1818.00,2.9623
1817.00,2.9702
1816.00,2.9783
1815.00,2.9861
1814.00,2.9929
1813.00,2.9982
1812.00,3.0029
1811.00,3.0081
1810.00,3.0141
1809.00,3.0200
1808.00,3.0247
1807.00,3.0286
1806.00,3.0326
1805.00,3.0364
1804.00,3.0394
1803.00,3.0423
1802.00,3.0467
1801.00,3.0532
1800.00,3.0614
1799.00,3.0685
1798.00,3.0723
1797.00,3.0737
1796.00,3.0761
1795.00,3.0811
1794.00,3.0854
1793.00,3.0845
1792.00,3.0792
1791.00,3.0759
1790.00,3.0789
1789.00,3.0858
1788.00,3.0930
1787.00,3.0996
1786.00,3.1048
1785.00,3.1078
1784.00,3.1091
1783.00,3.1101
1782.00,3.1113
1781.00,3.1128
1780.00,3.1158
1779.00,3.1203
1778.00,3.1248
1777.00,3.1282
1776.00,3.1310
1775.00,3.1335
1774.00,3.1330
1773.00,3.1276
1772.00,3.1202
1771.00,3.1162
1770.00,3.1165
1769.00,3.1182
1768.00,3.1213
1767.00,3.1265
1766.00,3.1320
1765.00,3.1345
1764.00,3.1329
1763.00,3.1291
1762.00,3.1265
1761.00,3.1272
1760.00,3.1299
1759.00,3.1297
1758.00,3.1250
1757.00,3.1181
1756.00,3.1127
1755.00,3.1093
1754.00,3.1045
1753.00,3.0971
1752.00,3.0896
1751.00,3.0832
1750.00,3.0760
1749.00,3.0669
1748.00,3.0577
1747.00,3.0511
1746.00,3.0447
1745.00,3.0337
1744.00,3.0174
1743.00,2.9976
1742.00,2.9732
1741.00,2.9395
1740.00,2.8955
1739.00,2.8498
1738.00,2.8128
1737.00,2.7835
1736.00,2.7538
1735.00,2.7225
1734.00,2.7007
1733.00,2.7074
1732.00,2.7507
1731.00,2.8242
1730.00,2.9254
1729.00,3.0533
1728.00,3.1996
1727.00,3.3569
1726.00,3.5259
1725.00,3.7139
1724.00,3.9297
1723.00,4.1886
1722.00,4.5390
1721.00,5.0724
1720.00,5.2550
1719.00,5.0289
1718.00,5.1372
1717.00,5.1977
1716.00,4.8466
1715.00,4.6811
1714.00,4.6582
1713.00,4.8168
1712.00,5.1536
1711.00,4.8148
1710.00,4.5419
1709.00,4.4877
1708.00,4.5169
1707.00,4.6624
1706.00,5.2198
1705.00,5.3469
1704.00,4.9574
1703.00,4.6700
1702.00,4.2041
1701.00,3.8334
1700.00,3.5230
1699.00,3.2879
1698.00,3.1186
1697.00,2.9793
1696.00,2.8559
1695.00,2.7588
1694.00,2.6987
1693.00,2.6726
1692.00,2.6743
1691.00,2.6984
1690.00,2.7376
1689.00,2.7841
1688.00,2.8312
1687.00,2.8723
1686.00,2.9026
1685.00,2.9235
1684.00,2.9414
1683.00,2.9682
1682.00,3.0033
1681.00,3.0361
1680.00,3.0695
1679.00,3.1028
1678.00,3.1260
1677.00,3.1342
1676.00,3.1313
1675.00,3.1272
1674.00,3.1283
1673.00,3.1321
1672.00,3.1322
1671.00,3.1282
1670.00,3.1255
1669.00,3.1297
1668.00,3.1412
1667.00,3.1538
1666.00,3.1630
1665.00,3.1684
1664.00,3.1694
1663.00,3.1675
1662.00,3.1679
1661.00,3.1736
1660.00,3.1821
1659.00,3.1894
1658.00,3.1936
1657.00,3.1950
1656.00,3.1932
1655.00,3.1854
1654.00,3.1697
1653.00,3.1500
1652.00,3.1394
1651.00,3.1394
1650.00,3.1443
1649.00,3.1571
1648.00,3.1700
1647.00,3.1752
1646.00,3.1768
1645.00,3.1786
1644.00,3.1825
1643.00,3.1906
1642.00,3.2012
1641.00,3.2064
1640.00,3.2046
1639.00,3.1987
1638.00,3.1902
1637.00,3.1788
1636.00,3.1656
1635.00,3.1553
1634.00,3.1503
1633.00,3.1486
1632.00,3.1505
1631.00,3.1550
1630.00,3.1565
1629.00,3.1534
1628.00,3.1490
1627.00,3.1463
1626.00,3.1434
1625.00,3.1371
1624.00,3.1286
1623.00,3.1219
1622.00,3.1202
1621.00,3.1223
1620.00,3.1240
1619.00,3.1207
1618.00,3.1085
1617.00,3.0888
1616.00,3.0719
1615.00,3.0667
1614.00,3.0705
1613.00,3.0765
1612.00,3.0814
1611.00,3.0834
1610.00,3.0819
1609.00,3.0775
1608.00,3.0725
1607.00,3.0682
1606.00,3.0631
1605.00,3.0556
1604.00,3.0468
1603.00,3.0392
1602.00,3.0339
1601.00,3.0299
1600.00,3.0246
1599.00,3.0161
1598.00,3.0046
1597.00,2.9929
1596.00,2.9840
1595.00,2.9789
1594.00,2.9763
1593.00,2.9740
1592.00,2.9704
1591.00,2.9644
1590.00,2.9562
1589.00,2.9471
1588.00,2.9385
1587.00,2.9301
1586.00,2.9207
1585.00,2.9104
1584.00,2.9007
1583.00,2.8917
1582.00,2.8818
1581.00,2.8703
1580.00,2.8590
1579.00,2.8494
1578.00,2.8400
1577.00,2.8291
1576.00,2.8161
1575.00,2.8022
1574.00,2.7894
1573.00,2.7782
1572.00,2.7676
1571.00,2.7554
1570.00,2.7402
1569.00,2.7232
1568.00,2.7068
1567.00,2.6915
1566.00,2.6759
1565.00,2.6595
1564.00,2.6435
1563.00,2.6286
1562.00,2.6139
1561.00,2.5976
1560.00,2.5778
1559.00,2.5534
1558.00,2.5285
1557.00,2.5055
1556.00,2.4897
1555.00,2.4692
1554.00,2.4555
1553.00,2.4139
1552.00,2.3820
1551.00,2.3721
1550.00,2.3530
1549.00,2.3389
1548.00,2.3190
1547.00,2.2930
1546.00,2.2602
1545.00,2.2263
1544.00,2.1945
1543.00,2.1624
1542.00,2.1230
1541.00,2.0737
1540.00,2.0215
1539.00,1.9810
1538.00,1.9564
1537.00,1.9421
1536.00,1.9341
1535.00,1.9241
1534.00,1.9052
1533.00,1.8833
1532.00,1.8671
1531.00,1.8565
1530.00,1.8492
1529.00,1.8460
1528.00,1.8464
1527.00,1.8512
1526.00,1.8612
1525.00,1.8753
1524.00,1.8891
1523.00,1.8985
1522.00,1.9031
1521.00,1.9057
1520.00,1.9077
1519.00,1.9048
1518.00,1.8954
1517.00,1.8855
1516.00,1.8798
1515.00,1.8777
1514.00,1.8753
1513.00,1.8734
1512.00,1.8764
1511.00,1.8861
1510.00,1.9009
1509.00,1.9166
1508.00,1.9313
1507.00,1.9481
1506.00,1.9734
1505.00,2.0010
1504.00,2.0252
1503.00,2.0594
1502.00,2.1044
1501.00,2.1481
1500.00,2.1847
1499.00,2.2137
1498.00,2.2381
1497.00,2.2634
1496.00,2.2938
1495.00,2.3297
1494.00,2.3684
1493.00,2.4058
1492.00,2.4398
1491.00,2.4714
1490.00,2.5045
1489.00,2.5407
1488.00,2.5738
1487.00,2.5975
1486.00,2.6151
1485.00,2.6321
1484.00,2.6506
1483.00,2.6708
1482.00,2.6932
1481.00,2.7178
1480.00,2.7422
1479.00,2.7632
1478.00,2.7813
1477.00,2.7993
1476.00,2.8178
1475.00,2.8353
1474.00,2.8510
1473.00,2.8680
1472.00,2.8911
1471.00,2.9205
1470.00,2.9512
1469.00,2.9804
1468.00,3.0070
1467.00,3.0299
1466.00,3.0497
1465.00,3.0671
1464.00,3.0810
1463.00,3.0909
1462.00,3.1005
1461.00,3.1148
1460.00,3.1338
1459.00,3.1544
1458.00,3.1759
1457.00,3.2023
1456.00,3.2376
1455.00,3.2805
1454.00,3.3298
1453.00,3.3811
1452.00,3.4172
1451.00,3.4221
1450.00,3.3946
1449.00,3.3400
1448.00,3.2643
1447.00,3.1809
1446.00,3.1049
1445.00,3.0447
1444.00,3.0045
1443.00,2.9862
1442.00,2.9889
1441.00,3.0071
1440.00,3.0331
1439.00,3.0606
1438.00,3.0883
1437.00,3.1179
1436.00,3.1510
1435.00,3.1860
1434.00,3.2176
1433.00,3.2406
1432.00,3.2527
1431.00,3.2552
1430.00,3.2535
1429.00,3.2507
1428.00,3.2468
1427.00,3.2441
1426.00,3.2465
1425.00,3.2542
1424.00,3.2631
1423.00,3.2676
1422.00,3.2615
1421.00,3.2384
1420.00,3.1987
1419.00,3.1548
1418.00,3.1244
1417.00,3.1105
1416.00,3.1040
1415.00,3.1010
1414.00,3.1028
1413.00,3.1086
1412.00,3.1158
1411.00,3.1250
1410.00,3.1389
1409.00,3.1570
1408.00,3.1735
1407.00,3.1853
1406.00,3.1957
1405.00,3.2080
1404.00,3.2199
1403.00,3.2268
1402.00,3.2292
1401.00,3.2319
1400.00,3.2380
1399.00,3.2482
1398.00,3.2609
1397.00,3.2721
1396.00,3.2801
1395.00,3.2888
1394.00,3.3025
1393.00,3.3188
1392.00,3.3317
1391.00,3.3393
1390.00,3.3440
1389.00,3.3466
1388.00,3.3472
1387.00,3.3513
1386.00,3.3658
1385.00,3.3867
1384.00,3.4026
1383.00,3.4097
1382.00,3.4144
1381.00,3.4226
1380.00,3.4340
1379.00,3.4489
1378.00,3.4694
1377.00,3.4922
1376.00,3.5048
1375.00,3.4996
1374.00,3.4866
1373.00,3.4813
1372.00,3.4868
1371.00,3.4954
1370.00,3.4991
1369.00,3.4956
1368.00,3.4892
1367.00,3.4876
1366.00,3.4966
1365.00,3.5140
1364.00,3.5289
1363.00,3.5327
1362.00,3.5296
1361.00,3.5282
1360.00,3.5317
1359.00,3.5385
1358.00,3.5452
1357.00,3.5497
1356.00,3.5519
1355.00,3.5548
1354.00,3.5609
1353.00,3.5691
1352.00,3.5774
1351.00,3.5889
1350.00,3.6083
1349.00,3.6317
1348.00,3.6466
1347.00,3.6451
1346.00,3.6349
1345.00,3.6288
1344.00,3.6308
1343.00,3.6370
1342.00,3.6433
1341.00,3.6484
1340.00,3.6524
1339.00,3.6537
1338.00,3.6462
1337.00,3.6269
1336.00,3.6044
1335.00,3.5918
1334.00,3.5937
1333.00,3.6052
1332.00,3.6172
1331.00,3.6236
1330.00,3.6244
1329.00,3.6196
1328.00,3.6091
1327.00,3.5983
1326.00,3.5942
1325.00,3.5994
1324.00,3.6122
1323.00,3.6288
1322.00,3.6430
1321.00,3.6463
1320.00,3.6366
1319.00,3.6223
1318.00,3.6177
1317.00,3.6321
1316.00,3.6618
1315.00,3.6982
1314.00,3.7362
1313.00,3.7662
1312.00,3.7739
1311.00,3.7598
1310.00,3.7385
1309.00,3.7178
1308.00,3.6975
1307.00,3.6744
1306.00,3.6459
1305.00,3.6147
1304.00,3.5907
1303.00,3.5839
1302.00,3.5948
1301.00,3.6107
1300.00,3.6169
1299.00,3.6128
1298.00,3.6120
1297.00,3.6235
1296.00,3.6421
1295.00,3.6531
1294.00,3.6455
1293.00,3.6234
1292.00,3.6020
1291.00,3.5931
1290.00,3.5957
1289.00,3.5982
1288.00,3.5930
1287.00,3.5859
1286.00,3.5862
1285.00,3.5925
1284.00,3.5964
1283.00,3.5957
1282.00,3.5956
1281.00,3.5968
1280.00,3.5945
1279.00,3.5893
1278.00,3.5892
1277.00,3.5995
1276.00,3.6174
1275.00,3.6351
1274.00,3.6450
1273.00,3.6415
1272.00,3.6233
1271.00,3.5984
1270.00,3.5784
1269.00,3.5683
1268.00,3.5663
1267.00,3.5726
1266.00,3.5875
1265.00,3.6030
1264.00,3.6054
1263.00,3.5935
1262.00,3.5809
1261.00,3.5757
1260.00,3.5718
1259.00,3.5627
1258.00,3.5523
1257.00,3.5459
1256.00,3.5428
1255.00,3.5419
1254.00,3.5431
1253.00,3.5426
1252.00,3.5364
1251.00,3.5242
1250.00,3.5102
1249.00,3.4995
1248.00,3.4902
1247.00,3.4775
1246.00,3.4632
1245.00,3.4531
1244.00,3.4483
1243.00,3.4460
1242.00,3.4437
1241.00,3.4389
1240.00,3.4300
1239.00,3.4172
1238.00,3.4042
1237.00,3.3945
1236.00,3.3879
1235.00,3.3827
1234.00,3.3787
1233.00,3.3768
1232.00,3.3764
1231.00,3.3766
1230.00,3.3798
1229.00,3.3911
1228.00,3.4165
1227.00,3.4614
1226.00,3.5296
1225.00,3.6192
1224.00,3.7163
1223.00,3.7952
1222.00,3.8352
1221.00,3.8418
1220.00,3.8378
1219.00,3.8381
1218.00,3.8336
1217.00,3.8092
1216.00,3.7706
1215.00,3.7317
1214.00,3.6990
1213.00,3.6734
1212.00,3.6547
1211.00,3.6393
1210.00,3.6164
1209.00,3.5794
1208.00,3.5403
1207.00,3.5173
1206.00,3.5141
1205.00,3.5169
1204.00,3.5089
1203.00,3.4880
1202.00,3.4644
1201.00,3.4445
1200.00,3.4280
1199.00,3.4161
1198.00,3.4123
1197.00,3.4148
1196.00,3.4170
1195.00,3.4146
1194.00,3.4065
1193.00,3.3921
1192.00,3.3734
1191.00,3.3556
1190.00,3.3419
1189.00,3.3281
1188.00,3.3087
1187.00,3.2857
1186.00,3.2654
1185.00,3.2497
1184.00,3.2354
1183.00,3.2213
1182.00,3.2095
1181.00,3.2006
1180.00,3.1910
1179.00,3.1774
1178.00,3.1589
1177.00,3.1362
1176.00,3.1110
1175.00,3.0872
1174.00,3.0686
1173.00,3.0538
1172.00,3.0369
1171.00,3.0132
1170.00,2.9835
1169.00,2.9532
1168.00,2.9270
1167.00,2.9063
1166.00,2.8888
1165.00,2.8694
1164.00,2.8447
1163.00,2.8160
1162.00,2.7865
1161.00,2.7584
1160.00,2.7323
1159.00,2.7087
1158.00,2.6874
1157.00,2.6656
1156.00,2.6397
1155.00,2.6089
1154.00,2.5762
1153.00,2.5458
1152.00,2.5198
1151.00,2.4983
1150.00,2.4799
1149.00,2.4634
1148.00,2.4490
1147.00,2.4381
1146.00,2.4328
1145.00,2.4335
1144.00,2.4397
1143.00,2.4506
1142.00,2.4660
1141.00,2.4856
1140.00,2.5100
1139.00,2.5404
1138.00,2.5784
1137.00,2.6247
1136.00,2.6787
1135.00,2.7384
1134.00,2.8013
1133.00,2.8648
1132.00,2.9282
1131.00,2.9932
1130.00,3.0618
1129.00,3.1328
1128.00,3.2036
1127.00,3.2764
1126.00,3.3596
1125.00,3.4569
1124.00,3.5584
1123.00,3.6474
1122.00,3.7182
1121.00,3.7784
1120.00,3.8261
1119.00,3.8352
1118.00,3.7836
1117.00,3.6870
1116.00,3.5825
1115.00,3.4908
1114.00,3.4077
1113.00,3.3192
1112.00,3.2218
1111.00,3.1268
1110.00,3.0457
1109.00,2.9817
1108.00,2.9330
1107.00,2.8994
1106.00,2.8827
1105.00,2.8828
1104.00,2.8967
1103.00,2.9201
1102.00,2.9492
1101.00,2.9814
1100.00,3.0155
1099.00,3.0545
1098.00,3.1023
1097.00,3.1567
1096.00,3.2073
1095.00,3.2436
1094.00,3.2659
1093.00,3.2830
1092.00,3.3026
1091.00,3.3277
1090.00,3.3600
1089.00,3.3963
1088.00,3.4276
1087.00,3.4504
1086.00,3.4714
1085.00,3.4933
1084.00,3.5113
1083.00,3.5238
1082.00,3.5364
1081.00,3.5523
1080.00,3.5682
1079.00,3.5832
1078.00,3.6021
1077.00,3.6253
1076.00,3.6490
1075.00,3.6798
1074.00,3.7303
1073.00,3.7888
1072.00,3.8111
1071.00,3.7798
1070.00,3.7381
1069.00,3.7220
1068.00,3.7262
1067.00,3.7268
1066.00,3.7184
1065.00,3.7148
1064.00,3.7196
1063.00,3.7242
1062.00,3.7357
1061.00,3.7743
1060.00,3.8377
1059.00,3.8928
1058.00,3.9028
1057.00,3.8615
1056.00,3.8100
1055.00,3.8005
1054.00,3.8526
1053.00,3.9327
1052.00,3.9729
1051.00,3.9166
1050.00,3.8070
1049.00,3.7498
1048.00,3.7627
1047.00,3.8016
1046.00,3.8179
1045.00,3.8110
1044.00,3.7971
1043.00,3.7814
1042.00,3.7641
1041.00,3.7536
1040.00,3.7627
1039.00,3.7931
1038.00,3.8336
1037.00,3.8666
1036.00,3.8810
1035.00,3.8821
1034.00,3.8840
1033.00,3.8976
1032.00,3.9320
1031.00,3.9996
1030.00,4.1042
1029.00,4.2329
1028.00,4.3711
1027.00,4.4532
1026.00,4.3953
1025.00,4.2683
1024.00,4.1591
1023.00,4.0734
1022.00,4.0006
1021.00,3.9629
1020.00,3.9758
1019.00,4.0323
1018.00,4.1239
1017.00,4.2515
1016.00,4.4107
1015.00,4.5379
1014.00,4.5053
1013.00,4.4198
1012.00,4.3529
1011.00,4.2547
1010.00,4.1470
1009.00,4.0642
1008.00,4.0052
1007.00,3.9810
1006.00,4.0164
1005.00,4.1211
1004.00,4.2689
1003.00,4.3746
1002.00,4.3720
1001.00,4.3412
1000.00,4.3296
999.00,4.3437
998.00,4.3678
997.00,4.3438
996.00,4.2788
995.00,4.2429
994.00,4.2739
993.00,4.3855
992.00,4.5823
991.00,4.8941
990.00,5.1310
989.00,4.8528
988.00,4.7351
987.00,4.6756
986.00,4.6184
985.00,4.6291
984.00,4.7069
983.00,4.9801
982.00,5.1486
981.00,4.5707
980.00,4.3943
979.00,4.4192
978.00,4.6056
977.00,4.6346
976.00,4.5830
975.00,4.7690
974.00,5.3676
973.00,5.4739
972.00,5.3585
971.00,5.7345
970.00,4.8232
969.00,4.5162
968.00,4.3779
967.00,4.3798
966.00,4.5139
965.00,4.7435
964.00,4.8552
963.00,4.7960
962.00,4.8322
961.00,5.0156
960.00,4.7201
959.00,4.5920
958.00,4.7206
957.00,5.0480
956.00,5.1216
955.00,4.8324
954.00,4.4998
953.00,4.2324
952.00,4.1059
951.00,4.1313
950.00,4.3307
949.00,4.9265
948.00,4.7434
947.00,4.4588
946.00,4.4184
945.00,4.4737
944.00,4.5915
943.00,4.7040
942.00,4.4508
941.00,4.2029
940.00,4.1049
939.00,4.1367
938.00,4.2992
937.00,4.6271
936.00,4.9132
935.00,4.7482
934.00,4.6270
933.00,4.4803
932.00,4.4358
931.00,4.5811
930.00,4.8520
929.00,4.8832
928.00,4.8396
927.00,4.6402
926.00,4.4939
925.00,4.4766
924.00,4.5883
923.00,4.9819
922.00,4.7294
921.00,4.3115
920.00,4.1769
919.00,4.1561
918.00,4.1797
917.00,4.2329
916.00,4.3376
915.00,4.5670
914.00,4.9389
913.00,4.6814
912.00,4.4656
911.00,4.3289
910.00,4.2555
909.00,4.2568
908.00,4.2863
907.00,4.3235
906.00,4.4085
905.00,4.3969
904.00,4.1927
903.00,4.0909
902.00,4.1462
901.00,4.4060
900.00,5.0692
899.00,4.7705
898.00,4.4844
897.00,4.2119
896.00,4.0235
895.00,3.9610
894.00,4.0200
893.00,4.2206
892.00,4.5299
891.00,4.5936
890.00,4.7165
889.00,4.6698
888.00,4.4071
887.00,4.4538
886.00,4.7484
885.00,4.8864
884.00,4.8225
883.00,4.6765
882.00,4.5845
881.00,4.6980
880.00,5.4117
879.00,4.3912
878.00,4.0660
877.00,3.9146
876.00,3.8567
875.00,3.8591
874.00,3.8804
873.00,3.9119
872.00,3.9676
871.00,4.0670
870.00,4.2101
869.00,4.4055
868.00,4.5617
867.00,4.7884
866.00,4.9872
865.00,4.3830
864.00,4.2212
863.00,4.2527
862.00,4.2638
861.00,4.1749
860.00,4.1628
859.00,4.2680
858.00,4.3033
857.00,4.2013
856.00,4.1637
855.00,4.2520
854.00,4.4731
853.00,4.6960
852.00,4.6479
851.00,4.4502
850.00,4.4656
849.00,4.8727
848.00,4.7603
847.00,4.5005
846.00,4.5458
845.00,4.5413
844.00,4.3649
843.00,4.2845
842.00,4.3226
841.00,4.4123
840.00,4.3682
839.00,4.1852
838.00,4.0365
837.00,3.9473
836.00,3.9176
835.00,3.9621
834.00,4.1387
833.00,4.6056
832.00,4.7491
831.00,4.4552
830.00,4.4199
829.00,4.4331
828.00,4.3474
827.00,4.1758
826.00,4.0020
825.00,3.8781
824.00,3.8200
823.00,3.8177
822.00,3.8607
821.00,3.9730
820.00,4.1607
819.00,4.1763
818.00,4.0723
817.00,4.0930
816.00,4.1914
815.00,4.3302
814.00,4.5194
813.00,4.5829
812.00,4.6726
811.00,4.7654
810.00,4.6956
809.00,4.6710
808.00,4.7316
807.00,4.6796
806.00,4.4634
805.00,4.4306
804.00,4.7311
803.00,4.7042
802.00,4.3506
801.00,4.3401
800.00,4.4551
799.00,4.4775
798.00,4.4609
797.00,4.4471
796.00,4.3949
795.00,4.2474
794.00,4.1365
793.00,4.1288
792.00,4.2021
791.00,4.3247
790.00,4.4712
789.00,4.5751
788.00,4.5722
787.00,4.5474
786.00,4.5899
785.00,4.8006
784.00,5.3549
783.00,5.0179
782.00,4.4847
781.00,4.2516
780.00,4.1607
779.00,4.1107
778.00,4.0856
777.00,4.1102
776.00,4.2860
775.00,4.8423
774.00,4.6628
773.00,4.2880
772.00,4.1501
771.00,4.0971
770.00,4.1283
769.00,4.2750
768.00,4.6791
767.00,5.0875
766.00,4.5811
765.00,4.4156
764.00,4.3686
763.00,4.3581
762.00,4.4110
761.00,4.4903
760.00,4.4004
759.00,4.2154
758.00,4.1864
757.00,4.3245
756.00,4.7211
755.00,5.2070
754.00,4.4396
753.00,4.1885
752.00,4.1177
751.00,4.1444
750.00,4.2262
749.00,4.2786
748.00,4.3137
747.00,4.3418
746.00,4.3793
745.00,4.3681
744.00,4.3212
743.00,4.2593
742.00,4.1045
741.00,3.9788
740.00,3.9656
739.00,4.0588
738.00,4.2061
737.00,4.2698
736.00,4.4145
735.00,4.9261
734.00,4.7425
733.00,4.4886
732.00,4.5624
731.00,4.6417
730.00,4.5068
729.00,4.3402
728.00,4.2056
727.00,4.1427
726.00,4.1500
725.00,4.1682
724.00,4.2074
723.00,4.2839
722.00,4.3194
721.00,4.2653
720.00,4.1871
719.00,4.1680
718.00,4.2410
717.00,4.1889
716.00,3.9652
715.00,3.8814
714.00,3.9558
713.00,4.2353
712.00,4.8851
711.00,4.5270
710.00,4.2813
709.00,4.2718
708.00,4.2771
707.00,4.2247
706.00,4.1489
705.00,4.0781
704.00,3.9997
703.00,3.9544
702.00,3.9803
701.00,4.0974
700.00,4.2480
699.00,4.2847
698.00,4.2737
697.00,4.3628
696.00,4.6183
695.00,5.2154
694.00,5.1053
693.00,4.5073
692.00,4.1972
691.00,4.0334
690.00,3.9745
689.00,4.0236
688.00,4.1365
687.00,4.1133
686.00,4.0146
685.00,4.0210
684.00,4.1485
683.00,4.4075
682.00,4.6556
681.00,4.4911
680.00,4.3302
679.00,4.2975
678.00,4.2404
677.00,4.0208
676.00,3.8065
675.00,3.7011
674.00,3.7131
673.00,3.8209
672.00,3.9331
671.00,3.9488
670.00,3.8835
669.00,3.7950
668.00,3.7566
667.00,3.8133
666.00,4.0089
665.00,4.2885
664.00,4.2718
663.00,4.1726
662.00,4.2821
661.00,4.5917
660.00,4.4518
659.00,4.2124
658.00,4.1815
657.00,4.2598
656.00,4.3206
655.00,4.2785
654.00,4.2752
653.00,4.3437
652.00,4.3570
651.00,4.2323
650.00,4.0532
649.00,3.9548
648.00,3.9622
647.00,4.1376
646.00,4.3933
645.00,4.1638
644.00,3.9872
643.00,3.9855
642.00,4.1345
641.00,4.4483
640.00,4.6285
639.00,4.4698
638.00,4.2572
637.00,4.1602
636.00,4.1566
635.00,4.2097
634.00,4.2864
633.00,4.3816
632.00,4.4899
631.00,4.4908
630.00,4.4345
629.00,4.3451
628.00,4.2185
627.00,4.1382
626.00,4.1822
625.00,4.2514
624.00,4.1623
623.00,4.0442
622.00,3.9336
621.00,3.8528
620.00,3.8878
619.00,4.0193
618.00,4.0054
617.00,3.8665
616.00,3.7888
615.00,3.7901
614.00,3.8684
613.00,3.9919
612.00,4.1307
611.00,4.2339
610.00,4.3023
609.00,4.3563
608.00,4.1897
607.00,4.0189
606.00,3.9888
605.00,4.0262
604.00,4.0240
603.00,3.9582
602.00,3.8749
601.00,3.8061
600.00,3.7766
599.00,3.8003
598.00,3.8770
597.00,3.9810
596.00,4.1741
595.00,4.4194
594.00,4.4743
593.00,4.2729
592.00,3.9649
591.00,3.8528
590.00,3.9199
589.00,4.0530
588.00,4.1793
587.00,4.3098
586.00,4.1368
585.00,3.8819
584.00,3.7793
583.00,3.8304
582.00,4.1090
581.00,4.1345
580.00,3.8642
579.00,3.8481
578.00,4.0698
577.00,4.3857
576.00,4.2595
575.00,4.3229
574.00,4.9095
573.00,4.6130
572.00,4.6651
571.00,4.8057
570.00,4.5173
569.00,4.5221
568.00,4.2294
567.00,4.0726
566.00,4.0249
565.00,3.9297
564.00,3.8565
563.00,3.8065
562.00,3.7935
561.00,3.7945
560.00,3.8179
559.00,3.8941
558.00,3.9143
557.00,3.8352
556.00,3.8159
555.00,3.9011
554.00,4.0505
553.00,4.1434
552.00,4.0863
551.00,4.0210
550.00,4.0287
549.00,4.0873
548.00,4.1150
547.00,4.0694
546.00,3.8861
545.00,3.7655
544.00,3.7831
543.00,4.0606
542.00,4.7541
541.00,4.2708
540.00,4.0839
539.00,3.9549
538.00,3.7813
537.00,3.6971
536.00,3.6843
535.00,3.7615
534.00,3.9221
533.00,4.1322
532.00,4.1167
531.00,3.9929
530.00,3.9975
529.00,4.0688
528.00,4.1117
527.00,4.1663
526.00,4.1038
525.00,3.9953
524.00,3.8781
523.00,3.6842
522.00,3.5649
521.00,3.5761
520.00,3.6550
519.00,3.7129
518.00,3.7826
517.00,4.1049
516.00,4.4901
515.00,4.0674
514.00,3.9396
513.00,3.8449
512.00,3.6974
511.00,3.5660
510.00,3.4738
509.00,3.4513
508.00,3.4739
507.00,3.5243
506.00,3.5970
505.00,3.7163
504.00,3.9306
503.00,4.1396
502.00,4.2254
501.00,4.3721
500.00,4.1639
499.00,3.8740
498.00,3.7608
497.00,3.7776
496.00,3.9027
495.00,3.8875
494.00,3.6589
493.00,3.5297
492.00,3.5439
491.00,3.6771
490.00,3.8723
489.00,4.0578
488.00,4.1714
487.00,4.2046
486.00,4.4682
485.00,4.2613
484.00,4.2525
483.00,4.5099
482.00,4.0609
481.00,4.1979
480.00,3.9164
479.00,3.4216
478.00,3.2223
477.00,3.1388
476.00,3.1181
475.00,3.1439
474.00,3.2402
473.00,3.4360
472.00,3.8699
471.00,4.4803
470.00,3.8707
469.00,3.9061
468.00,4.2155
467.00,3.7448
466.00,3.3941
465.00,3.2450
464.00,3.2239
463.00,3.2631
462.00,3.3146
461.00,3.3472
460.00,3.3448
459.00,3.2865
458.00,3.2060
457.00,3.1751
456.00,3.2400
455.00,3.4175
454.00,3.5716
453.00,3.5628
452.00,3.5018
451.00,3.3867
450.00,3.2946
449.00,3.3201
448.00,3.3871
447.00,3.2921
446.00,3.1685
445.00,3.1163
444.00,3.1032
443.00,3.1404
442.00,3.2766
441.00,3.5706
440.00,4.0317
439.00,3.9806
438.00,3.6192
437.00,3.4160
436.00,3.2865
435.00,3.2052
434.00,3.2304
433.00,3.3845
432.00,3.8056
431.00,4.0231
430.00,3.3893
429.00,3.1701
428.00,3.1495
427.00,3.2630
426.00,3.3753
425.00,3.3148
424.00,3.2558
423.00,3.2521
422.00,3.2760
421.00,3.2841
420.00,3.2958
419.00,3.4321
418.00,3.6545
417.00,3.4929
416.00,3.3536
415.00,3.3769
414.00,3.5069
413.00,3.8552
412.00,3.6361
411.00,3.6635
410.00,4.1092
409.00,3.3078
408.00,3.1816
407.00,3.5688
406.00,3.5320
405.00,3.0962
404.00,2.9352
403.00,2.8670
402.00,2.8708
401.00,3.0439
400.00,3.6215
