Created as New Dataset,Sample 162 By Administrator Date Friday, November 26 2021
cm-1,A
7000.00,0.9221
6999.00,0.9258
6998.00,0.9297
6997.00,0.9338
6996.00,0.9378
6995.00,0.9418
6994.00,0.9457
6993.00,0.9497
6992.00,0.9536
6991.00,0.9573
6990.00,0.9608
6989.00,0.9643
6988.00,0.9679
6987.00,0.9718
6986.00,0.9757
6985.00,0.9793
6984.00,0.9828
6983.00,0.9864
6982.00,0.9901
6981.00,0.9939
6980.00,0.9973
6979.00,1.0005
6978.00,1.0038
6977.00,1.0073
6976.00,1.0110
6975.00,1.0146
6974.00,1.0181
6973.00,1.0217
6972.00,1.0256
6971.00,1.0295
6970.00,1.0335
6969.00,1.0373
6968.00,1.0406
6967.00,1.0438
6966.00,1.0471
6965.00,1.0504
6964.00,1.0537
6963.00,1.0567
6962.00,1.0597
6961.00,1.0627
6960.00,1.0658
6959.00,1.0688
6958.00,1.0718
6957.00,1.0749
6956.00,1.0782
6955.00,1.0816
6954.00,1.0849
6953.00,1.0882
6952.00,1.0913
6951.00,1.0942
6950.00,1.0971
6949.00,1.1000
6948.00,1.1030
6947.00,1.1061
6946.00,1.1094
6945.00,1.1125
6944.00,1.1153
6943.00,1.1177
6942.00,1.1199
6941.00,1.1223
6940.00,1.1247
6939.00,1.1270
6938.00,1.1293
6937.00,1.1319
6936.00,1.1350
6935.00,1.1381
6934.00,1.1410
6933.00,1.1436
6932.00,1.1461
6931.00,1.1486
6930.00,1.1509
6929.00,1.1529
6928.00,1.1548
6927.00,1.1567
6926.00,1.1589
6925.00,1.1612
6924.00,1.1635
6923.00,1.1655
6922.00,1.1672
6921.00,1.1688
6920.00,1.1704
6919.00,1.1721
6918.00,1.1738
6917.00,1.1755
6916.00,1.1774
6915.00,1.1797
6914.00,1.1822
6913.00,1.1844
6912.00,1.1859
6911.00,1.1872
6910.00,1.1885
6909.00,1.1900
6908.00,1.1913
6907.00,1.1923
6906.00,1.1932
6905.00,1.1944
6904.00,1.1961
6903.00,1.1979
6902.00,1.1996
6901.00,1.2010
6900.00,1.2020
6899.00,1.2030
6898.00,1.2042
6897.00,1.2055
6896.00,1.2065
6895.00,1.2072
6894.00,1.2079
6893.00,1.2087
6892.00,1.2096
6891.00,1.2103
6890.00,1.2108
6889.00,1.2112
6888.00,1.2115
6887.00,1.2120
6886.00,1.2127
6885.00,1.2133
6884.00,1.2135
6883.00,1.2131
6882.00,1.2123
6881.00,1.2118
6880.00,1.2119
6879.00,1.2122
6878.00,1.2124
6877.00,1.2124
6876.00,1.2123
6875.00,1.2123
6874.00,1.2123
6873.00,1.2120
6872.00,1.2113
6871.00,1.2106
6870.00,1.2102
6869.00,1.2101
6868.00,1.2099
6867.00,1.2094
6866.00,1.2086
6865.00,1.2078
6864.00,1.2071
6863.00,1.2064
6862.00,1.2058
6861.00,1.2052
6860.00,1.2045
6859.00,1.2038
6858.00,1.2029
6857.00,1.2019
6856.00,1.2008
6855.00,1.1993
6854.00,1.1977
6853.00,1.1960
6852.00,1.1946
6851.00,1.1935
6850.00,1.1928
6849.00,1.1920
6848.00,1.1910
6847.00,1.1898
6846.00,1.1885
6845.00,1.1872
6844.00,1.1859
6843.00,1.1844
6842.00,1.1826
6841.00,1.1805
6840.00,1.1782
6839.00,1.1759
6838.00,1.1737
6837.00,1.1715
6836.00,1.1692
6835.00,1.1671
6834.00,1.1654
6833.00,1.1639
6832.00,1.1624
6831.00,1.1607
6830.00,1.1589
6829.00,1.1570
6828.00,1.1552
6827.00,1.1533
6826.00,1.1510
6825.00,1.1484
6824.00,1.1457
6823.00,1.1428
6822.00,1.1399
6821.00,1.1370
6820.00,1.1343
6819.00,1.1317
6818.00,1.1294
6817.00,1.1269
6816.00,1.1242
6815.00,1.1213
6814.00,1.1182
6813.00,1.1152
6812.00,1.1122
6811.00,1.1093
6810.00,1.1064
6809.00,1.1036
6808.00,1.1009
6807.00,1.0980
6806.00,1.0950
6805.00,1.0918
6804.00,1.0884
6803.00,1.0849
6802.00,1.0814
6801.00,1.0780
6800.00,1.0747
6799.00,1.0713
6798.00,1.0676
6797.00,1.0639
6796.00,1.0602
6795.00,1.0564
6794.00,1.0524
6793.00,1.0484
6792.00,1.0444
6791.00,1.0404
6790.00,1.0363
6789.00,1.0322
6788.00,1.0280
6787.00,1.0238
6786.00,1.0197
6785.00,1.0157
6784.00,1.0116
6783.00,1.0075
6782.00,1.0032
6781.00,0.9988
6780.00,0.9944
6779.00,0.9902
6778.00,0.9859
6777.00,0.9814
6776.00,0.9768
6775.00,0.9720
6774.00,0.9673
6773.00,0.9626
6772.00,0.9580
6771.00,0.9534
6770.00,0.9489
6769.00,0.9445
6768.00,0.9401
6767.00,0.9357
6766.00,0.9310
6765.00,0.9262
6764.00,0.9213
6763.00,0.9165
6762.00,0.9120
6761.00,0.9077
6760.00,0.9033
6759.00,0.8989
6758.00,0.8945
6757.00,0.8901
6756.00,0.8857
6755.00,0.8810
6754.00,0.8763
6753.00,0.8716
6752.00,0.8672
6751.00,0.8629
6750.00,0.8588
6749.00,0.8545
6748.00,0.8501
6747.00,0.8458
6746.00,0.8417
6745.00,0.8375
6744.00,0.8332
6743.00,0.8289
6742.00,0.8247
6741.00,0.8208
6740.00,0.8170
6739.00,0.8131
6738.00,0.8093
6737.00,0.8055
6736.00,0.8019
6735.00,0.7982
6734.00,0.7946
6733.00,0.7910
6732.00,0.7875
6731.00,0.7840
6730.00,0.7807
6729.00,0.7774
6728.00,0.7741
6727.00,0.7709
6726.00,0.7678
6725.00,0.7647
6724.00,0.7617
6723.00,0.7587
6722.00,0.7559
6721.00,0.7534
6720.00,0.7510
6719.00,0.7486
6718.00,0.7463
6717.00,0.7441
6716.00,0.7422
6715.00,0.7403
6714.00,0.7385
6713.00,0.7366
6712.00,0.7348
6711.00,0.7329
6710.00,0.7312
6709.00,0.7297
6708.00,0.7281
6707.00,0.7267
6706.00,0.7253
6705.00,0.7243
6704.00,0.7235
6703.00,0.7227
6702.00,0.7220
6701.00,0.7214
6700.00,0.7211
6699.00,0.7210
6698.00,0.7208
6697.00,0.7206
6696.00,0.7203
6695.00,0.7201
6694.00,0.7200
6693.00,0.7202
6692.00,0.7204
6691.00,0.7208
6690.00,0.7214
6689.00,0.7222
6688.00,0.7232
6687.00,0.7242
6686.00,0.7252
6685.00,0.7263
6684.00,0.7276
6683.00,0.7290
6682.00,0.7305
6681.00,0.7321
6680.00,0.7338
6679.00,0.7355
6678.00,0.7373
6677.00,0.7391
6676.00,0.7409
6675.00,0.7428
6674.00,0.7447
6673.00,0.7468
6672.00,0.7491
6671.00,0.7515
6670.00,0.7540
6669.00,0.7565
6668.00,0.7590
6667.00,0.7616
6666.00,0.7642
6665.00,0.7669
6664.00,0.7698
6663.00,0.7729
6662.00,0.7760
6661.00,0.7792
6660.00,0.7822
6659.00,0.7853
6658.00,0.7885
6657.00,0.7916
6656.00,0.7946
6655.00,0.7977
6654.00,0.8011
6653.00,0.8047
6652.00,0.8084
6651.00,0.8120
6650.00,0.8155
6649.00,0.8191
6648.00,0.8226
6647.00,0.8262
6646.00,0.8298
6645.00,0.8334
6644.00,0.8371
6643.00,0.8410
6642.00,0.8451
6641.00,0.8492
6640.00,0.8531
6639.00,0.8569
6638.00,0.8607
6637.00,0.8647
6636.00,0.8688
6635.00,0.8728
6634.00,0.8768
6633.00,0.8809
6632.00,0.8849
6631.00,0.8890
6630.00,0.8931
6629.00,0.8972
6628.00,0.9013
6627.00,0.9055
6626.00,0.9097
6625.00,0.9138
6624.00,0.9180
6623.00,0.9221
6622.00,0.9262
6621.00,0.9304
6620.00,0.9346
6619.00,0.9388
6618.00,0.9430
6617.00,0.9472
6616.00,0.9513
6615.00,0.9554
6614.00,0.9594
6613.00,0.9633
6612.00,0.9673
6611.00,0.9712
6610.00,0.9752
6609.00,0.9793
6608.00,0.9834
6607.00,0.9875
6606.00,0.9916
6605.00,0.9957
6604.00,0.9996
6603.00,1.0034
6602.00,1.0072
6601.00,1.0111
6600.00,1.0150
6599.00,1.0190
6598.00,1.0232
6597.00,1.0274
6596.00,1.0315
6595.00,1.0355
6594.00,1.0394
6593.00,1.0432
6592.00,1.0469
6591.00,1.0507
6590.00,1.0545
6589.00,1.0583
6588.00,1.0619
6587.00,1.0656
6586.00,1.0693
6585.00,1.0731
6584.00,1.0768
6583.00,1.0803
6582.00,1.0837
6581.00,1.0872
6580.00,1.0906
6579.00,1.0940
6578.00,1.0975
6577.00,1.1011
6576.00,1.1048
6575.00,1.1086
6574.00,1.1124
6573.00,1.1161
6572.00,1.1194
6571.00,1.1223
6570.00,1.1252
6569.00,1.1282
6568.00,1.1312
6567.00,1.1342
6566.00,1.1373
6565.00,1.1405
6564.00,1.1439
6563.00,1.1472
6562.00,1.1505
6561.00,1.1536
6560.00,1.1565
6559.00,1.1592
6558.00,1.1618
6557.00,1.1644
6556.00,1.1668
6555.00,1.1693
6554.00,1.1718
6553.00,1.1746
6552.00,1.1775
6551.00,1.1802
6550.00,1.1828
6549.00,1.1854
6548.00,1.1879
6547.00,1.1903
6546.00,1.1926
6545.00,1.1948
6544.00,1.1970
6543.00,1.1993
6542.00,1.2015
6541.00,1.2036
6540.00,1.2055
6539.00,1.2072
6538.00,1.2089
6537.00,1.2108
6536.00,1.2126
6535.00,1.2145
6534.00,1.2165
6533.00,1.2187
6532.00,1.2210
6531.00,1.2229
6530.00,1.2246
6529.00,1.2261
6528.00,1.2275
6527.00,1.2288
6526.00,1.2300
6525.00,1.2312
6524.00,1.2326
6523.00,1.2342
6522.00,1.2358
6521.00,1.2372
6520.00,1.2384
6519.00,1.2397
6518.00,1.2410
6517.00,1.2420
6516.00,1.2428
6515.00,1.2436
6514.00,1.2444
6513.00,1.2453
6512.00,1.2462
6511.00,1.2471
6510.00,1.2478
6509.00,1.2485
6508.00,1.2493
6507.00,1.2501
6506.00,1.2507
6505.00,1.2510
6504.00,1.2509
6503.00,1.2510
6502.00,1.2513
6501.00,1.2516
6500.00,1.2515
6499.00,1.2514
6498.00,1.2517
6497.00,1.2522
6496.00,1.2524
6495.00,1.2523
6494.00,1.2521
6493.00,1.2520
6492.00,1.2518
6491.00,1.2515
6490.00,1.2509
6489.00,1.2504
6488.00,1.2499
6487.00,1.2495
6486.00,1.2492
6485.00,1.2489
6484.00,1.2484
6483.00,1.2478
6482.00,1.2473
6481.00,1.2473
6480.00,1.2472
6479.00,1.2466
6478.00,1.2455
6477.00,1.2444
6476.00,1.2431
6475.00,1.2417
6474.00,1.2401
6473.00,1.2386
6472.00,1.2374
6471.00,1.2364
6470.00,1.2354
6469.00,1.2343
6468.00,1.2329
6467.00,1.2312
6466.00,1.2295
6465.00,1.2279
6464.00,1.2264
6463.00,1.2250
6462.00,1.2233
6461.00,1.2214
6460.00,1.2194
6459.00,1.2175
6458.00,1.2157
6457.00,1.2138
6456.00,1.2117
6455.00,1.2095
6454.00,1.2075
6453.00,1.2056
6452.00,1.2035
6451.00,1.2010
6450.00,1.1984
6449.00,1.1960
6448.00,1.1939
6447.00,1.1919
6446.00,1.1897
6445.00,1.1875
6444.00,1.1851
6443.00,1.1826
6442.00,1.1799
6441.00,1.1770
6440.00,1.1742
6439.00,1.1713
6438.00,1.1684
6437.00,1.1655
6436.00,1.1625
6435.00,1.1592
6434.00,1.1556
6433.00,1.1521
6432.00,1.1489
6431.00,1.1460
6430.00,1.1432
6429.00,1.1402
6428.00,1.1370
6427.00,1.1336
6426.00,1.1299
6425.00,1.1260
6424.00,1.1220
6423.00,1.1180
6422.00,1.1142
6421.00,1.1107
6420.00,1.1071
6419.00,1.1033
6418.00,1.0996
6417.00,1.0962
6416.00,1.0928
6415.00,1.0892
6414.00,1.0853
6413.00,1.0813
6412.00,1.0771
6411.00,1.0727
6410.00,1.0683
6409.00,1.0639
6408.00,1.0595
6407.00,1.0550
6406.00,1.0504
6405.00,1.0460
6404.00,1.0416
6403.00,1.0373
6402.00,1.0329
6401.00,1.0286
6400.00,1.0244
6399.00,1.0200
6398.00,1.0154
6397.00,1.0107
6396.00,1.0060
6395.00,1.0013
6394.00,0.9966
6393.00,0.9919
6392.00,0.9873
6391.00,0.9828
6390.00,0.9781
6389.00,0.9733
6388.00,0.9685
6387.00,0.9636
6386.00,0.9588
6385.00,0.9539
6384.00,0.9492
6383.00,0.9445
6382.00,0.9398
6381.00,0.9351
6380.00,0.9305
6379.00,0.9258
6378.00,0.9210
6377.00,0.9162
6376.00,0.9115
6375.00,0.9069
6374.00,0.9022
6373.00,0.8976
6372.00,0.8929
6371.00,0.8883
6370.00,0.8836
6369.00,0.8791
6368.00,0.8746
6367.00,0.8700
6366.00,0.8654
6365.00,0.8608
6364.00,0.8563
6363.00,0.8519
6362.00,0.8476
6361.00,0.8434
6360.00,0.8392
6359.00,0.8351
6358.00,0.8308
6357.00,0.8266
6356.00,0.8226
6355.00,0.8187
6354.00,0.8150
6353.00,0.8114
6352.00,0.8079
6351.00,0.8043
6350.00,0.8008
6349.00,0.7972
6348.00,0.7936
6347.00,0.7901
6346.00,0.7868
6345.00,0.7836
6344.00,0.7806
6343.00,0.7777
6342.00,0.7750
6341.00,0.7724
6340.00,0.7699
6339.00,0.7673
6338.00,0.7649
6337.00,0.7626
6336.00,0.7604
6335.00,0.7583
6334.00,0.7563
6333.00,0.7545
6332.00,0.7528
6331.00,0.7511
6330.00,0.7496
6329.00,0.7484
6328.00,0.7472
6327.00,0.7461
6326.00,0.7452
6325.00,0.7443
6324.00,0.7436
6323.00,0.7429
6322.00,0.7424
6321.00,0.7420
6320.00,0.7418
6319.00,0.7416
6318.00,0.7416
6317.00,0.7417
6316.00,0.7421
6315.00,0.7426
6314.00,0.7434
6313.00,0.7444
6312.00,0.7455
6311.00,0.7465
6310.00,0.7476
6309.00,0.7487
6308.00,0.7499
6307.00,0.7511
6306.00,0.7526
6305.00,0.7542
6304.00,0.7560
6303.00,0.7577
6302.00,0.7596
6301.00,0.7617
6300.00,0.7639
6299.00,0.7661
6298.00,0.7684
6297.00,0.7707
6296.00,0.7733
6295.00,0.7760
6294.00,0.7788
6293.00,0.7818
6292.00,0.7848
6291.00,0.7879
6290.00,0.7911
6289.00,0.7943
6288.00,0.7975
6287.00,0.8007
6286.00,0.8039
6285.00,0.8072
6284.00,0.8105
6283.00,0.8140
6282.00,0.8176
6281.00,0.8212
6280.00,0.8249
6279.00,0.8286
6278.00,0.8323
6277.00,0.8362
6276.00,0.8402
6275.00,0.8441
6274.00,0.8480
6273.00,0.8521
6272.00,0.8563
6271.00,0.8604
6270.00,0.8646
6269.00,0.8687
6268.00,0.8727
6267.00,0.8769
6266.00,0.8811
6265.00,0.8855
6264.00,0.8900
6263.00,0.8944
6262.00,0.8987
6261.00,0.9032
6260.00,0.9075
6259.00,0.9117
6258.00,0.9159
6257.00,0.9202
6256.00,0.9246
6255.00,0.9290
6254.00,0.9334
6253.00,0.9377
6252.00,0.9419
6251.00,0.9462
6250.00,0.9505
6249.00,0.9549
6248.00,0.9591
6247.00,0.9634
6246.00,0.9676
6245.00,0.9719
6244.00,0.9764
6243.00,0.9809
6242.00,0.9856
6241.00,0.9903
6240.00,0.9950
6239.00,0.9994
6238.00,1.0035
6237.00,1.0075
6236.00,1.0115
6235.00,1.0157
6234.00,1.0199
6233.00,1.0244
6232.00,1.0289
6231.00,1.0333
6230.00,1.0375
6229.00,1.0416
6228.00,1.0456
6227.00,1.0495
6226.00,1.0535
6225.00,1.0575
6224.00,1.0616
6223.00,1.0655
6222.00,1.0694
6221.00,1.0733
6220.00,1.0774
6219.00,1.0816
6218.00,1.0860
6217.00,1.0904
6216.00,1.0949
6215.00,1.0990
6214.00,1.1027
6213.00,1.1060
6212.00,1.1091
6211.00,1.1123
6210.00,1.1156
6209.00,1.1192
6208.00,1.1229
6207.00,1.1267
6206.00,1.1303
6205.00,1.1337
6204.00,1.1370
6203.00,1.1403
6202.00,1.1438
6201.00,1.1474
6200.00,1.1512
6199.00,1.1549
6198.00,1.1586
6197.00,1.1619
6196.00,1.1648
6195.00,1.1676
6194.00,1.1703
6193.00,1.1732
6192.00,1.1762
6191.00,1.1792
6190.00,1.1823
6189.00,1.1854
6188.00,1.1884
6187.00,1.1912
6186.00,1.1938
6185.00,1.1964
6184.00,1.1989
6183.00,1.2014
6182.00,1.2037
6181.00,1.2060
6180.00,1.2084
6179.00,1.2108
6178.00,1.2133
6177.00,1.2158
6176.00,1.2181
6175.00,1.2203
6174.00,1.2224
6173.00,1.2245
6172.00,1.2266
6171.00,1.2286
6170.00,1.2306
6169.00,1.2327
6168.00,1.2351
6167.00,1.2374
6166.00,1.2395
6165.00,1.2414
6164.00,1.2432
6163.00,1.2450
6162.00,1.2466
6161.00,1.2482
6160.00,1.2496
6159.00,1.2510
6158.00,1.2524
6157.00,1.2537
6156.00,1.2549
6155.00,1.2561
6154.00,1.2571
6153.00,1.2582
6152.00,1.2593
6151.00,1.2603
6150.00,1.2613
6149.00,1.2622
6148.00,1.2630
6147.00,1.2638
6146.00,1.2645
6145.00,1.2653
6144.00,1.2660
6143.00,1.2665
6142.00,1.2668
6141.00,1.2673
6140.00,1.2677
6139.00,1.2681
6138.00,1.2684
6137.00,1.2687
6136.00,1.2690
6135.00,1.2693
6134.00,1.2696
6133.00,1.2697
6132.00,1.2700
6131.00,1.2703
6130.00,1.2705
6129.00,1.2704
6128.00,1.2701
6127.00,1.2695
6126.00,1.2689
6125.00,1.2683
6124.00,1.2677
6123.00,1.2673
6122.00,1.2671
6121.00,1.2670
6120.00,1.2668
6119.00,1.2664
6118.00,1.2659
6117.00,1.2652
6116.00,1.2643
6115.00,1.2632
6114.00,1.2618
6113.00,1.2605
6112.00,1.2594
6111.00,1.2583
6110.00,1.2571
6109.00,1.2557
6108.00,1.2542
6107.00,1.2527
6106.00,1.2509
6105.00,1.2489
6104.00,1.2469
6103.00,1.2452
6102.00,1.2438
6101.00,1.2426
6100.00,1.2411
6099.00,1.2395
6098.00,1.2377
6097.00,1.2356
6096.00,1.2331
6095.00,1.2305
6094.00,1.2279
6093.00,1.2256
6092.00,1.2234
6091.00,1.2212
6090.00,1.2189
6089.00,1.2166
6088.00,1.2142
6087.00,1.2117
6086.00,1.2092
6085.00,1.2068
6084.00,1.2043
6083.00,1.2017
6082.00,1.1991
6081.00,1.1963
6080.00,1.1935
6079.00,1.1904
6078.00,1.1871
6077.00,1.1840
6076.00,1.1810
6075.00,1.1782
6074.00,1.1753
6073.00,1.1723
6072.00,1.1691
6071.00,1.1659
6070.00,1.1625
6069.00,1.1592
6068.00,1.1560
6067.00,1.1530
6066.00,1.1500
6065.00,1.1469
6064.00,1.1436
6063.00,1.1399
6062.00,1.1361
6061.00,1.1324
6060.00,1.1288
6059.00,1.1253
6058.00,1.1219
6057.00,1.1187
6056.00,1.1157
6055.00,1.1128
6054.00,1.1100
6053.00,1.1071
6052.00,1.1042
6051.00,1.1010
6050.00,1.0975
6049.00,1.0939
6048.00,1.0901
6047.00,1.0866
6046.00,1.0831
6045.00,1.0798
6044.00,1.0765
6043.00,1.0732
6042.00,1.0699
6041.00,1.0666
6040.00,1.0632
6039.00,1.0599
6038.00,1.0564
6037.00,1.0528
6036.00,1.0491
6035.00,1.0454
6034.00,1.0416
6033.00,1.0379
6032.00,1.0344
6031.00,1.0308
6030.00,1.0272
6029.00,1.0234
6028.00,1.0195
6027.00,1.0154
6026.00,1.0114
6025.00,1.0073
6024.00,1.0033
6023.00,0.9992
6022.00,0.9950
6021.00,0.9907
6020.00,0.9862
6019.00,0.9816
6018.00,0.9771
6017.00,0.9726
6016.00,0.9682
6015.00,0.9638
6014.00,0.9595
6013.00,0.9551
6012.00,0.9506
6011.00,0.9460
6010.00,0.9414
6009.00,0.9370
6008.00,0.9326
6007.00,0.9283
6006.00,0.9239
6005.00,0.9195
6004.00,0.9149
6003.00,0.9102
6002.00,0.9055
6001.00,0.9008
6000.00,0.8960
5999.00,0.8912
5998.00,0.8863
5997.00,0.8816
5996.00,0.8769
5995.00,0.8723
5994.00,0.8677
5993.00,0.8632
5992.00,0.8588
5991.00,0.8544
5990.00,0.8499
5989.00,0.8455
5988.00,0.8412
5987.00,0.8370
5986.00,0.8328
5985.00,0.8288
5984.00,0.8249
5983.00,0.8209
5982.00,0.8169
5981.00,0.8129
5980.00,0.8088
5979.00,0.8047
5978.00,0.8006
5977.00,0.7966
5976.00,0.7928
5975.00,0.7892
5974.00,0.7857
5973.00,0.7824
5972.00,0.7790
5971.00,0.7757
5970.00,0.7725
5969.00,0.7695
5968.00,0.7666
5967.00,0.7639
5966.00,0.7612
5965.00,0.7587
5964.00,0.7563
5963.00,0.7539
5962.00,0.7516
5961.00,0.7495
5960.00,0.7476
5959.00,0.7458
5958.00,0.7442
5957.00,0.7426
5956.00,0.7411
5955.00,0.7397
5954.00,0.7385
5953.00,0.7375
5952.00,0.7366
5951.00,0.7358
5950.00,0.7352
5949.00,0.7348
5948.00,0.7345
5947.00,0.7343
5946.00,0.7343
5945.00,0.7344
5944.00,0.7346
5943.00,0.7350
5942.00,0.7357
5941.00,0.7365
5940.00,0.7373
5939.00,0.7383
5938.00,0.7394
5937.00,0.7405
5936.00,0.7418
5935.00,0.7432
5934.00,0.7448
5933.00,0.7467
5932.00,0.7488
5931.00,0.7509
5930.00,0.7532
5929.00,0.7556
5928.00,0.7580
5927.00,0.7605
5926.00,0.7631
5925.00,0.7658
5924.00,0.7686
5923.00,0.7716
5922.00,0.7747
5921.00,0.7778
5920.00,0.7810
5919.00,0.7843
5918.00,0.7877
5917.00,0.7912
5916.00,0.7948
5915.00,0.7985
5914.00,0.8023
5913.00,0.8062
5912.00,0.8101
5911.00,0.8140
5910.00,0.8180
5909.00,0.8221
5908.00,0.8262
5907.00,0.8303
5906.00,0.8346
5905.00,0.8390
5904.00,0.8433
5903.00,0.8477
5902.00,0.8521
5901.00,0.8566
5900.00,0.8611
5899.00,0.8657
5898.00,0.8703
5897.00,0.8750
5896.00,0.8797
5895.00,0.8843
5894.00,0.8890
5893.00,0.8937
5892.00,0.8985
5891.00,0.9032
5890.00,0.9080
5889.00,0.9129
5888.00,0.9178
5887.00,0.9226
5886.00,0.9275
5885.00,0.9324
5884.00,0.9373
5883.00,0.9420
5882.00,0.9467
5881.00,0.9516
5880.00,0.9565
5879.00,0.9614
5878.00,0.9664
5877.00,0.9714
5876.00,0.9763
5875.00,0.9811
5874.00,0.9860
5873.00,0.9909
5872.00,0.9960
5871.00,1.0009
5870.00,1.0057
5869.00,1.0105
5868.00,1.0152
5867.00,1.0198
5866.00,1.0244
5865.00,1.0290
5864.00,1.0338
5863.00,1.0387
5862.00,1.0436
5861.00,1.0483
5860.00,1.0529
5859.00,1.0575
5858.00,1.0620
5857.00,1.0665
5856.00,1.0710
5855.00,1.0757
5854.00,1.0805
5853.00,1.0854
5852.00,1.0901
5851.00,1.0947
5850.00,1.0991
5849.00,1.1034
5848.00,1.1075
5847.00,1.1116
5846.00,1.1157
5845.00,1.1200
5844.00,1.1242
5843.00,1.1285
5842.00,1.1327
5841.00,1.1370
5840.00,1.1412
5839.00,1.1452
5838.00,1.1493
5837.00,1.1533
5836.00,1.1572
5835.00,1.1611
5834.00,1.1648
5833.00,1.1684
5832.00,1.1718
5831.00,1.1752
5830.00,1.1788
5829.00,1.1824
5828.00,1.1860
5827.00,1.1894
5826.00,1.1927
5825.00,1.1961
5824.00,1.1996
5823.00,1.2031
5822.00,1.2065
5821.00,1.2100
5820.00,1.2134
5819.00,1.2167
5818.00,1.2199
5817.00,1.2230
5816.00,1.2262
5815.00,1.2293
5814.00,1.2325
5813.00,1.2355
5812.00,1.2384
5811.00,1.2411
5810.00,1.2438
5809.00,1.2466
5808.00,1.2494
5807.00,1.2521
5806.00,1.2547
5805.00,1.2573
5804.00,1.2600
5803.00,1.2626
5802.00,1.2651
5801.00,1.2675
5800.00,1.2699
5799.00,1.2723
5798.00,1.2745
5797.00,1.2766
5796.00,1.2787
5795.00,1.2810
5794.00,1.2834
5793.00,1.2859
5792.00,1.2883
5791.00,1.2904
5790.00,1.2921
5789.00,1.2937
5788.00,1.2952
5787.00,1.2967
5786.00,1.2983
5785.00,1.3002
5784.00,1.3025
5783.00,1.3049
5782.00,1.3070
5781.00,1.3089
5780.00,1.3106
5779.00,1.3121
5778.00,1.3132
5777.00,1.3142
5776.00,1.3153
5775.00,1.3165
5774.00,1.3179
5773.00,1.3191
5772.00,1.3204
5771.00,1.3216
5770.00,1.3227
5769.00,1.3239
5768.00,1.3250
5767.00,1.3259
5766.00,1.3266
5765.00,1.3273
5764.00,1.3280
5763.00,1.3290
5762.00,1.3301
5761.00,1.3311
5760.00,1.3320
5759.00,1.3326
5758.00,1.3331
5757.00,1.3335
5756.00,1.3338
5755.00,1.3342
5754.00,1.3349
5753.00,1.3355
5752.00,1.3358
5751.00,1.3358
5750.00,1.3357
5749.00,1.3356
5748.00,1.3355
5747.00,1.3354
5746.00,1.3353
5745.00,1.3353
5744.00,1.3350
5743.00,1.3347
5742.00,1.3343
5741.00,1.3341
5740.00,1.3341
5739.00,1.3341
5738.00,1.3340
5737.00,1.3338
5736.00,1.3332
5735.00,1.3322
5734.00,1.3309
5733.00,1.3295
5732.00,1.3282
5731.00,1.3271
5730.00,1.3261
5729.00,1.3253
5728.00,1.3246
5727.00,1.3238
5726.00,1.3229
5725.00,1.3217
5724.00,1.3203
5723.00,1.3187
5722.00,1.3169
5721.00,1.3150
5720.00,1.3132
5719.00,1.3115
5718.00,1.3100
5717.00,1.3083
5716.00,1.3065
5715.00,1.3045
5714.00,1.3023
5713.00,1.2999
5712.00,1.2974
5711.00,1.2950
5710.00,1.2925
5709.00,1.2900
5708.00,1.2874
5707.00,1.2848
5706.00,1.2823
5705.00,1.2798
5704.00,1.2771
5703.00,1.2741
5702.00,1.2708
5701.00,1.2673
5700.00,1.2641
5699.00,1.2611
5698.00,1.2583
5697.00,1.2555
5696.00,1.2528
5695.00,1.2498
5694.00,1.2465
5693.00,1.2430
5692.00,1.2396
5691.00,1.2362
5690.00,1.2328
5689.00,1.2294
5688.00,1.2259
5687.00,1.2223
5686.00,1.2187
5685.00,1.2150
5684.00,1.2115
5683.00,1.2080
5682.00,1.2045
5681.00,1.2009
5680.00,1.1973
5679.00,1.1937
5678.00,1.1900
5677.00,1.1862
5676.00,1.1822
5675.00,1.1783
5674.00,1.1744
5673.00,1.1705
5672.00,1.1666
5671.00,1.1625
5670.00,1.1584
5669.00,1.1541
5668.00,1.1495
5667.00,1.1449
5666.00,1.1403
5665.00,1.1358
5664.00,1.1314
5663.00,1.1270
5662.00,1.1226
5661.00,1.1180
5660.00,1.1131
5659.00,1.1082
5658.00,1.1032
5657.00,1.0981
5656.00,1.0929
5655.00,1.0879
5654.00,1.0830
5653.00,1.0780
5652.00,1.0730
5651.00,1.0679
5650.00,1.0627
5649.00,1.0574
5648.00,1.0519
5647.00,1.0464
5646.00,1.0409
5645.00,1.0355
5644.00,1.0301
5643.00,1.0246
5642.00,1.0191
5641.00,1.0137
5640.00,1.0081
5639.00,1.0025
5638.00,0.9970
5637.00,0.9915
5636.00,0.9860
5635.00,0.9804
5634.00,0.9747
5633.00,0.9689
5632.00,0.9631
5631.00,0.9573
5630.00,0.9516
5629.00,0.9460
5628.00,0.9403
5627.00,0.9346
5626.00,0.9289
5625.00,0.9231
5624.00,0.9174
5623.00,0.9116
5622.00,0.9060
5621.00,0.9005
5620.00,0.8949
5619.00,0.8894
5618.00,0.8838
5617.00,0.8782
5616.00,0.8728
5615.00,0.8673
5614.00,0.8620
5613.00,0.8568
5612.00,0.8517
5611.00,0.8466
5610.00,0.8415
5609.00,0.8364
5608.00,0.8313
5607.00,0.8264
5606.00,0.8216
5605.00,0.8169
5604.00,0.8123
5603.00,0.8077
5602.00,0.8032
5601.00,0.7987
5600.00,0.7943
5599.00,0.7900
5598.00,0.7859
5597.00,0.7820
5596.00,0.7782
5595.00,0.7745
5594.00,0.7710
5593.00,0.7675
5592.00,0.7642
5591.00,0.7609
5590.00,0.7578
5589.00,0.7549
5588.00,0.7520
5587.00,0.7494
5586.00,0.7469
5585.00,0.7447
5584.00,0.7425
5583.00,0.7405
5582.00,0.7386
5581.00,0.7369
5580.00,0.7353
5579.00,0.7340
5578.00,0.7329
5577.00,0.7320
5576.00,0.7313
5575.00,0.7307
5574.00,0.7302
5573.00,0.7300
5572.00,0.7298
5571.00,0.7299
5570.00,0.7302
5569.00,0.7306
5568.00,0.7311
5567.00,0.7318
5566.00,0.7326
5565.00,0.7336
5564.00,0.7349
5563.00,0.7362
5562.00,0.7378
5561.00,0.7395
5560.00,0.7413
5559.00,0.7432
5558.00,0.7452
5557.00,0.7473
5556.00,0.7496
5555.00,0.7521
5554.00,0.7548
5553.00,0.7577
5552.00,0.7606
5551.00,0.7637
5550.00,0.7669
5549.00,0.7703
5548.00,0.7738
5547.00,0.7773
5546.00,0.7810
5545.00,0.7848
5544.00,0.7886
5543.00,0.7925
5542.00,0.7965
5541.00,0.8007
5540.00,0.8049
5539.00,0.8092
5538.00,0.8136
5537.00,0.8180
5536.00,0.8226
5535.00,0.8272
5534.00,0.8318
5533.00,0.8364
5532.00,0.8410
5531.00,0.8457
5530.00,0.8505
5529.00,0.8555
5528.00,0.8605
5527.00,0.8656
5526.00,0.8707
5525.00,0.8758
5524.00,0.8810
5523.00,0.8860
5522.00,0.8911
5521.00,0.8962
5520.00,0.9013
5519.00,0.9065
5518.00,0.9118
5517.00,0.9171
5516.00,0.9224
5515.00,0.9276
5514.00,0.9328
5513.00,0.9380
5512.00,0.9433
5511.00,0.9487
5510.00,0.9542
5509.00,0.9597
5508.00,0.9650
5507.00,0.9703
5506.00,0.9755
5505.00,0.9809
5504.00,0.9863
5503.00,0.9917
5502.00,0.9971
5501.00,1.0025
5500.00,1.0079
5499.00,1.0132
5498.00,1.0184
5497.00,1.0236
5496.00,1.0289
5495.00,1.0341
5494.00,1.0393
5493.00,1.0445
5492.00,1.0496
5491.00,1.0548
5490.00,1.0601
5489.00,1.0654
5488.00,1.0706
5487.00,1.0758
5486.00,1.0811
5485.00,1.0864
5484.00,1.0916
5483.00,1.0967
5482.00,1.1018
5481.00,1.1067
5480.00,1.1116
5479.00,1.1164
5478.00,1.1214
5477.00,1.1264
5476.00,1.1313
5475.00,1.1361
5474.00,1.1410
5473.00,1.1459
5472.00,1.1510
5471.00,1.1558
5470.00,1.1605
5469.00,1.1650
5468.00,1.1694
5467.00,1.1738
5466.00,1.1782
5465.00,1.1826
5464.00,1.1871
5463.00,1.1917
5462.00,1.1962
5461.00,1.2006
5460.00,1.2050
5459.00,1.2092
5458.00,1.2134
5457.00,1.2176
5456.00,1.2219
5455.00,1.2262
5454.00,1.2304
5453.00,1.2345
5452.00,1.2383
5451.00,1.2420
5450.00,1.2455
5449.00,1.2490
5448.00,1.2526
5447.00,1.2564
5446.00,1.2601
5445.00,1.2638
5444.00,1.2675
5443.00,1.2713
5442.00,1.2752
5441.00,1.2789
5440.00,1.2823
5439.00,1.2855
5438.00,1.2887
5437.00,1.2919
5436.00,1.2950
5435.00,1.2980
5434.00,1.3009
5433.00,1.3038
5432.00,1.3067
5431.00,1.3097
5430.00,1.3125
5429.00,1.3152
5428.00,1.3179
5427.00,1.3208
5426.00,1.3237
5425.00,1.3267
5424.00,1.3294
5423.00,1.3319
5422.00,1.3342
5421.00,1.3365
5420.00,1.3387
5419.00,1.3409
5418.00,1.3432
5417.00,1.3453
5416.00,1.3473
5415.00,1.3492
5414.00,1.3511
5413.00,1.3530
5412.00,1.3549
5411.00,1.3568
5410.00,1.3586
5409.00,1.3602
5408.00,1.3618
5407.00,1.3634
5406.00,1.3652
5405.00,1.3670
5404.00,1.3687
5403.00,1.3704
5402.00,1.3718
5401.00,1.3730
5400.00,1.3739
5399.00,1.3747
5398.00,1.3756
5397.00,1.3767
5396.00,1.3778
5395.00,1.3791
5394.00,1.3804
5393.00,1.3814
5392.00,1.3823
5391.00,1.3831
5390.00,1.3838
5389.00,1.3845
5388.00,1.3848
5387.00,1.3849
5386.00,1.3849
5385.00,1.3850
5384.00,1.3854
5383.00,1.3860
5382.00,1.3868
5381.00,1.3875
5380.00,1.3878
5379.00,1.3879
5378.00,1.3878
5377.00,1.3876
5376.00,1.3874
5375.00,1.3873
5374.00,1.3871
5373.00,1.3870
5372.00,1.3868
5371.00,1.3866
5370.00,1.3865
5369.00,1.3862
5368.00,1.3858
5367.00,1.3853
5366.00,1.3846
5365.00,1.3838
5364.00,1.3830
5363.00,1.3821
5362.00,1.3812
5361.00,1.3803
5360.00,1.3793
5359.00,1.3782
5358.00,1.3771
5357.00,1.3760
5356.00,1.3749
5355.00,1.3738
5354.00,1.3725
5353.00,1.3710
5352.00,1.3695
5351.00,1.3681
5350.00,1.3666
5349.00,1.3650
5348.00,1.3632
5347.00,1.3612
5346.00,1.3591
5345.00,1.3571
5344.00,1.3552
5343.00,1.3534
5342.00,1.3516
5341.00,1.3498
5340.00,1.3478
5339.00,1.3456
5338.00,1.3434
5337.00,1.3412
5336.00,1.3391
5335.00,1.3371
5334.00,1.3349
5333.00,1.3324
5332.00,1.3297
5331.00,1.3271
5330.00,1.3246
5329.00,1.3222
5328.00,1.3197
5327.00,1.3169
5326.00,1.3140
5325.00,1.3109
5324.00,1.3079
5323.00,1.3048
5322.00,1.3016
5321.00,1.2985
5320.00,1.2953
5319.00,1.2921
5318.00,1.2889
5317.00,1.2856
5316.00,1.2823
5315.00,1.2788
5314.00,1.2753
5313.00,1.2716
5312.00,1.2678
5311.00,1.2640
5310.00,1.2600
5309.00,1.2559
5308.00,1.2519
5307.00,1.2478
5306.00,1.2437
5305.00,1.2396
5304.00,1.2356
5303.00,1.2314
5302.00,1.2272
5301.00,1.2229
5300.00,1.2185
5299.00,1.2141
5298.00,1.2097
5297.00,1.2053
5296.00,1.2007
5295.00,1.1959
5294.00,1.1908
5293.00,1.1857
5292.00,1.1806
5291.00,1.1755
5290.00,1.1703
5289.00,1.1652
5288.00,1.1600
5287.00,1.1547
5286.00,1.1494
5285.00,1.1440
5284.00,1.1385
5283.00,1.1331
5282.00,1.1278
5281.00,1.1224
5280.00,1.1169
5279.00,1.1113
5278.00,1.1055
5277.00,1.0998
5276.00,1.0941
5275.00,1.0882
5274.00,1.0822
5273.00,1.0761
5272.00,1.0700
5271.00,1.0640
5270.00,1.0579
5269.00,1.0517
5268.00,1.0455
5267.00,1.0392
5266.00,1.0329
5265.00,1.0265
5264.00,1.0200
5263.00,1.0135
5262.00,1.0070
5261.00,1.0004
5260.00,0.9939
5259.00,0.9874
5258.00,0.9811
5257.00,0.9748
5256.00,0.9686
5255.00,0.9621
5254.00,0.9556
5253.00,0.9490
5252.00,0.9424
5251.00,0.9360
5250.00,0.9295
5249.00,0.9230
5248.00,0.9164
5247.00,0.9098
5246.00,0.9033
5245.00,0.8968
5244.00,0.8904
5243.00,0.8840
5242.00,0.8777
5241.00,0.8716
5240.00,0.8656
5239.00,0.8598
5238.00,0.8539
5237.00,0.8480
5236.00,0.8422
5235.00,0.8364
5234.00,0.8307
5233.00,0.8251
5232.00,0.8195
5231.00,0.8139
5230.00,0.8083
5229.00,0.8029
5228.00,0.7977
5227.00,0.7926
5226.00,0.7876
5225.00,0.7827
5224.00,0.7778
5223.00,0.7731
5222.00,0.7687
5221.00,0.7645
5220.00,0.7604
5219.00,0.7564
5218.00,0.7526
5217.00,0.7490
5216.00,0.7455
5215.00,0.7422
5214.00,0.7391
5213.00,0.7361
5212.00,0.7332
5211.00,0.7305
5210.00,0.7279
5209.00,0.7255
5208.00,0.7233
5207.00,0.7213
5206.00,0.7196
5205.00,0.7180
5204.00,0.7167
5203.00,0.7156
5202.00,0.7148
5201.00,0.7143
5200.00,0.7139
5199.00,0.7139
5198.00,0.7140
5197.00,0.7143
5196.00,0.7147
5195.00,0.7153
5194.00,0.7160
5193.00,0.7170
5192.00,0.7183
5191.00,0.7197
5190.00,0.7214
5189.00,0.7232
5188.00,0.7253
5187.00,0.7275
5186.00,0.7299
5185.00,0.7324
5184.00,0.7351
5183.00,0.7380
5182.00,0.7411
5181.00,0.7443
5180.00,0.7477
5179.00,0.7513
5178.00,0.7550
5177.00,0.7589
5176.00,0.7630
5175.00,0.7671
5174.00,0.7713
5173.00,0.7757
5172.00,0.7801
5171.00,0.7846
5170.00,0.7893
5169.00,0.7940
5168.00,0.7988
5167.00,0.8037
5166.00,0.8087
5165.00,0.8138
5164.00,0.8190
5163.00,0.8242
5162.00,0.8296
5161.00,0.8351
5160.00,0.8405
5159.00,0.8460
5158.00,0.8515
5157.00,0.8571
5156.00,0.8627
5155.00,0.8683
5154.00,0.8740
5153.00,0.8798
5152.00,0.8856
5151.00,0.8914
5150.00,0.8973
5149.00,0.9032
5148.00,0.9091
5147.00,0.9151
5146.00,0.9210
5145.00,0.9270
5144.00,0.9329
5143.00,0.9390
5142.00,0.9450
5141.00,0.9511
5140.00,0.9571
5139.00,0.9631
5138.00,0.9692
5137.00,0.9752
5136.00,0.9813
5135.00,0.9874
5134.00,0.9934
5133.00,0.9995
5132.00,1.0055
5131.00,1.0115
5130.00,1.0175
5129.00,1.0236
5128.00,1.0296
5127.00,1.0356
5126.00,1.0415
5125.00,1.0475
5124.00,1.0534
5123.00,1.0593
5122.00,1.0653
5121.00,1.0712
5120.00,1.0772
5119.00,1.0830
5118.00,1.0889
5117.00,1.0948
5116.00,1.1007
5115.00,1.1066
5114.00,1.1125
5113.00,1.1184
5112.00,1.1241
5111.00,1.1298
5110.00,1.1354
5109.00,1.1410
5108.00,1.1466
5107.00,1.1522
5106.00,1.1578
5105.00,1.1634
5104.00,1.1690
5103.00,1.1745
5102.00,1.1800
5101.00,1.1853
5100.00,1.1905
5099.00,1.1958
5098.00,1.2010
5097.00,1.2063
5096.00,1.2115
5095.00,1.2166
5094.00,1.2217
5093.00,1.2269
5092.00,1.2321
5091.00,1.2374
5090.00,1.2426
5089.00,1.2474
5088.00,1.2521
5087.00,1.2568
5086.00,1.2614
5085.00,1.2661
5084.00,1.2709
5083.00,1.2755
5082.00,1.2801
5081.00,1.2846
5080.00,1.2890
5079.00,1.2935
5078.00,1.2979
5077.00,1.3022
5076.00,1.3063
5075.00,1.3104
5074.00,1.3144
5073.00,1.3184
5072.00,1.3226
5071.00,1.3267
5070.00,1.3307
5069.00,1.3345
5068.00,1.3381
5067.00,1.3417
5066.00,1.3452
5065.00,1.3488
5064.00,1.3524
5063.00,1.3559
5062.00,1.3592
5061.00,1.3624
5060.00,1.3655
5059.00,1.3687
5058.00,1.3719
5057.00,1.3752
5056.00,1.3783
5055.00,1.3813
5054.00,1.3841
5053.00,1.3868
5052.00,1.3894
5051.00,1.3921
5050.00,1.3949
5049.00,1.3977
5048.00,1.4006
5047.00,1.4034
5046.00,1.4061
5045.00,1.4085
5044.00,1.4107
5043.00,1.4129
5042.00,1.4150
5041.00,1.4172
5040.00,1.4192
5039.00,1.4213
5038.00,1.4233
5037.00,1.4252
5036.00,1.4269
5035.00,1.4287
5034.00,1.4305
5033.00,1.4323
5032.00,1.4341
5031.00,1.4359
5030.00,1.4375
5029.00,1.4391
5028.00,1.4406
5027.00,1.4421
5026.00,1.4436
5025.00,1.4451
5024.00,1.4464
5023.00,1.4476
5022.00,1.4487
5021.00,1.4497
5020.00,1.4506
5019.00,1.4514
5018.00,1.4522
5017.00,1.4527
5016.00,1.4533
5015.00,1.4538
5014.00,1.4545
5013.00,1.4553
5012.00,1.4562
5011.00,1.4569
5010.00,1.4574
5009.00,1.4577
5008.00,1.4577
5007.00,1.4578
5006.00,1.4579
5005.00,1.4582
5004.00,1.4585
5003.00,1.4587
5002.00,1.4588
5001.00,1.4588
5000.00,1.4585
4999.00,1.4582
4998.00,1.4578
4997.00,1.4574
4996.00,1.4570
4995.00,1.4567
4994.00,1.4563
4993.00,1.4557
4992.00,1.4548
4991.00,1.4539
4990.00,1.4531
4989.00,1.4525
4988.00,1.4520
4987.00,1.4515
4986.00,1.4508
4985.00,1.4500
4984.00,1.4489
4983.00,1.4477
4982.00,1.4465
4981.00,1.4451
4980.00,1.4436
4979.00,1.4420
4978.00,1.4404
4977.00,1.4387
4976.00,1.4370
4975.00,1.4353
4974.00,1.4337
4973.00,1.4321
4972.00,1.4305
4971.00,1.4290
4970.00,1.4273
4969.00,1.4255
4968.00,1.4236
4967.00,1.4217
4966.00,1.4197
4965.00,1.4176
4964.00,1.4152
4963.00,1.4127
4962.00,1.4102
4961.00,1.4076
4960.00,1.4050
4959.00,1.4025
4958.00,1.3999
4957.00,1.3972
4956.00,1.3944
4955.00,1.3914
4954.00,1.3884
4953.00,1.3855
4952.00,1.3827
4951.00,1.3800
4950.00,1.3772
4949.00,1.3741
4948.00,1.3709
4947.00,1.3676
4946.00,1.3642
4945.00,1.3608
4944.00,1.3573
4943.00,1.3536
4942.00,1.3498
4941.00,1.3458
4940.00,1.3418
4939.00,1.3378
4938.00,1.3338
4937.00,1.3297
4936.00,1.3256
4935.00,1.3216
4934.00,1.3177
4933.00,1.3136
4932.00,1.3093
4931.00,1.3048
4930.00,1.3001
4929.00,1.2954
4928.00,1.2908
4927.00,1.2864
4926.00,1.2818
4925.00,1.2772
4924.00,1.2723
4923.00,1.2672
4922.00,1.2621
4921.00,1.2570
4920.00,1.2519
4919.00,1.2468
4918.00,1.2416
4917.00,1.2363
4916.00,1.2308
4915.00,1.2252
4914.00,1.2194
4913.00,1.2136
4912.00,1.2078
4911.00,1.2020
4910.00,1.1962
4909.00,1.1903
4908.00,1.1845
4907.00,1.1785
4906.00,1.1725
4905.00,1.1664
4904.00,1.1600
4903.00,1.1536
4902.00,1.1471
4901.00,1.1407
4900.00,1.1343
4899.00,1.1278
4898.00,1.1212
4897.00,1.1144
4896.00,1.1075
4895.00,1.1005
4894.00,1.0935
4893.00,1.0865
4892.00,1.0795
4891.00,1.0724
4890.00,1.0653
4889.00,1.0582
4888.00,1.0510
4887.00,1.0438
4886.00,1.0367
4885.00,1.0295
4884.00,1.0224
4883.00,1.0152
4882.00,1.0080
4881.00,1.0007
4880.00,0.9933
4879.00,0.9858
4878.00,0.9784
4877.00,0.9710
4876.00,0.9637
4875.00,0.9563
4874.00,0.9490
4873.00,0.9417
4872.00,0.9344
4871.00,0.9271
4870.00,0.9199
4869.00,0.9127
4868.00,0.9055
4867.00,0.8984
4866.00,0.8914
4865.00,0.8844
4864.00,0.8774
4863.00,0.8705
4862.00,0.8637
4861.00,0.8570
4860.00,0.8504
4859.00,0.8438
4858.00,0.8374
4857.00,0.8311
4856.00,0.8249
4855.00,0.8188
4854.00,0.8128
4853.00,0.8070
4852.00,0.8013
4851.00,0.7958
4850.00,0.7904
4849.00,0.7852
4848.00,0.7802
4847.00,0.7753
4846.00,0.7706
4845.00,0.7661
4844.00,0.7618
4843.00,0.7577
4842.00,0.7538
4841.00,0.7501
4840.00,0.7467
4839.00,0.7435
4838.00,0.7405
4837.00,0.7378
4836.00,0.7353
4835.00,0.7330
4834.00,0.7309
4833.00,0.7292
4832.00,0.7277
4831.00,0.7264
4830.00,0.7254
4829.00,0.7246
4828.00,0.7241
4827.00,0.7238
4826.00,0.7238
4825.00,0.7241
4824.00,0.7246
4823.00,0.7253
4822.00,0.7263
4821.00,0.7276
4820.00,0.7291
4819.00,0.7309
4818.00,0.7328
4817.00,0.7350
4816.00,0.7375
4815.00,0.7401
4814.00,0.7430
4813.00,0.7461
4812.00,0.7494
4811.00,0.7529
4810.00,0.7565
4809.00,0.7604
4808.00,0.7645
4807.00,0.7687
4806.00,0.7730
4805.00,0.7776
4804.00,0.7823
4803.00,0.7871
4802.00,0.7922
4801.00,0.7974
4800.00,0.8027
4799.00,0.8081
4798.00,0.8136
4797.00,0.8192
4796.00,0.8249
4795.00,0.8307
4794.00,0.8366
4793.00,0.8426
4792.00,0.8486
4791.00,0.8548
4790.00,0.8610
4789.00,0.8674
4788.00,0.8738
4787.00,0.8802
4786.00,0.8866
4785.00,0.8931
4784.00,0.8996
4783.00,0.9062
4782.00,0.9129
4781.00,0.9195
4780.00,0.9262
4779.00,0.9329
4778.00,0.9396
4777.00,0.9464
4776.00,0.9533
4775.00,0.9602
4774.00,0.9671
4773.00,0.9740
4772.00,0.9810
4771.00,0.9879
4770.00,0.9949
4769.00,1.0017
4768.00,1.0086
4767.00,1.0154
4766.00,1.0222
4765.00,1.0291
4764.00,1.0360
4763.00,1.0430
4762.00,1.0500
4761.00,1.0569
4760.00,1.0637
4759.00,1.0706
4758.00,1.0774
4757.00,1.0841
4756.00,1.0908
4755.00,1.0974
4754.00,1.1040
4753.00,1.1107
4752.00,1.1174
4751.00,1.1241
4750.00,1.1308
4749.00,1.1374
4748.00,1.1442
4747.00,1.1509
4746.00,1.1575
4745.00,1.1641
4744.00,1.1706
4743.00,1.1769
4742.00,1.1832
4741.00,1.1895
4740.00,1.1958
4739.00,1.2020
4738.00,1.2082
4737.00,1.2142
4736.00,1.2204
4735.00,1.2265
4734.00,1.2328
4733.00,1.2390
4732.00,1.2452
4731.00,1.2513
4730.00,1.2573
4729.00,1.2631
4728.00,1.2688
4727.00,1.2746
4726.00,1.2804
4725.00,1.2862
4724.00,1.2921
4723.00,1.2979
4722.00,1.3035
4721.00,1.3091
4720.00,1.3144
4719.00,1.3197
4718.00,1.3249
4717.00,1.3301
4716.00,1.3352
4715.00,1.3403
4714.00,1.3454
4713.00,1.3504
4712.00,1.3554
4711.00,1.3605
4710.00,1.3655
4709.00,1.3706
4708.00,1.3754
4707.00,1.3802
4706.00,1.3849
4705.00,1.3895
4704.00,1.3940
4703.00,1.3985
4702.00,1.4029
4701.00,1.4072
4700.00,1.4116
4699.00,1.4158
4698.00,1.4199
4697.00,1.4238
4696.00,1.4274
4695.00,1.4310
4694.00,1.4346
4693.00,1.4384
4692.00,1.4421
4691.00,1.4458
4690.00,1.4494
4689.00,1.4528
4688.00,1.4561
4687.00,1.4596
4686.00,1.4631
4685.00,1.4666
4684.00,1.4700
4683.00,1.4731
4682.00,1.4762
4681.00,1.4791
4680.00,1.4820
4679.00,1.4848
4678.00,1.4876
4677.00,1.4901
4676.00,1.4926
4675.00,1.4950
4674.00,1.4973
4673.00,1.4995
4672.00,1.5018
4671.00,1.5041
4670.00,1.5066
4669.00,1.5091
4668.00,1.5114
4667.00,1.5136
4666.00,1.5156
4665.00,1.5175
4664.00,1.5192
4663.00,1.5208
4662.00,1.5222
4661.00,1.5236
4660.00,1.5249
4659.00,1.5264
4658.00,1.5279
4657.00,1.5294
4656.00,1.5310
4655.00,1.5327
4654.00,1.5343
4653.00,1.5357
4652.00,1.5369
4651.00,1.5377
4650.00,1.5383
4649.00,1.5389
4648.00,1.5397
4647.00,1.5405
4646.00,1.5414
4645.00,1.5421
4644.00,1.5428
4643.00,1.5433
4642.00,1.5438
4641.00,1.5443
4640.00,1.5449
4639.00,1.5456
4638.00,1.5463
4637.00,1.5468
4636.00,1.5471
4635.00,1.5472
4634.00,1.5472
4633.00,1.5471
4632.00,1.5471
4631.00,1.5472
4630.00,1.5471
4629.00,1.5470
4628.00,1.5468
4627.00,1.5465
4626.00,1.5462
4625.00,1.5457
4624.00,1.5452
4623.00,1.5445
4622.00,1.5436
4621.00,1.5428
4620.00,1.5420
4619.00,1.5413
4618.00,1.5406
4617.00,1.5400
4616.00,1.5393
4615.00,1.5385
4614.00,1.5375
4613.00,1.5363
4612.00,1.5351
4611.00,1.5339
4610.00,1.5328
4609.00,1.5316
4608.00,1.5304
4607.00,1.5290
4606.00,1.5274
4605.00,1.5258
4604.00,1.5241
4603.00,1.5225
4602.00,1.5207
4601.00,1.5187
4600.00,1.5167
4599.00,1.5147
4598.00,1.5126
4597.00,1.5106
4596.00,1.5086
4595.00,1.5065
4594.00,1.5042
4593.00,1.5017
4592.00,1.4992
4591.00,1.4966
4590.00,1.4941
4589.00,1.4915
4588.00,1.4889
4587.00,1.4862
4586.00,1.4834
4585.00,1.4805
4584.00,1.4776
4583.00,1.4746
4582.00,1.4715
4581.00,1.4684
4580.00,1.4654
4579.00,1.4623
4578.00,1.4592
4577.00,1.4558
4576.00,1.4523
4575.00,1.4487
4574.00,1.4450
4573.00,1.4415
4572.00,1.4380
4571.00,1.4344
4570.00,1.4305
4569.00,1.4263
4568.00,1.4219
4567.00,1.4174
4566.00,1.4130
4565.00,1.4087
4564.00,1.4044
4563.00,1.4000
4562.00,1.3956
4561.00,1.3911
4560.00,1.3864
4559.00,1.3818
4558.00,1.3771
4557.00,1.3724
4556.00,1.3675
4555.00,1.3625
4554.00,1.3574
4553.00,1.3521
4552.00,1.3469
4551.00,1.3417
4550.00,1.3364
4549.00,1.3309
4548.00,1.3253
4547.00,1.3196
4546.00,1.3138
4545.00,1.3079
4544.00,1.3021
4543.00,1.2962
4542.00,1.2902
4541.00,1.2841
4540.00,1.2778
4539.00,1.2714
4538.00,1.2649
4537.00,1.2584
4536.00,1.2518
4535.00,1.2452
4534.00,1.2385
4533.00,1.2317
4532.00,1.2248
4531.00,1.2178
4530.00,1.2106
4529.00,1.2033
4528.00,1.1960
4527.00,1.1886
4526.00,1.1812
4525.00,1.1738
4524.00,1.1663
4523.00,1.1588
4522.00,1.1512
4521.00,1.1435
4520.00,1.1356
4519.00,1.1277
4518.00,1.1197
4517.00,1.1117
4516.00,1.1036
4515.00,1.0955
4514.00,1.0873
4513.00,1.0791
4512.00,1.0707
4511.00,1.0623
4510.00,1.0539
4509.00,1.0455
4508.00,1.0371
4507.00,1.0287
4506.00,1.0202
4505.00,1.0116
4504.00,1.0031
4503.00,0.9946
4502.00,0.9861
4501.00,0.9776
4500.00,0.9691
4499.00,0.9605
4498.00,0.9520
4497.00,0.9434
4496.00,0.9349
4495.00,0.9265
4494.00,0.9182
4493.00,0.9100
4492.00,0.9019
4491.00,0.8938
4490.00,0.8857
4489.00,0.8778
4488.00,0.8699
4487.00,0.8622
4486.00,0.8546
4485.00,0.8471
4484.00,0.8398
4483.00,0.8326
4482.00,0.8255
4481.00,0.8187
4480.00,0.8120
4479.00,0.8055
4478.00,0.7991
4477.00,0.7930
4476.00,0.7871
4475.00,0.7813
4474.00,0.7759
4473.00,0.7706
4472.00,0.7657
4471.00,0.7610
4470.00,0.7566
4469.00,0.7525
4468.00,0.7487
4467.00,0.7451
4466.00,0.7418
4465.00,0.7389
4464.00,0.7362
4463.00,0.7339
4462.00,0.7319
4461.00,0.7302
4460.00,0.7288
4459.00,0.7278
4458.00,0.7271
4457.00,0.7268
4456.00,0.7267
4455.00,0.7270
4454.00,0.7276
4453.00,0.7285
4452.00,0.7297
4451.00,0.7313
4450.00,0.7332
4449.00,0.7354
4448.00,0.7380
4447.00,0.7407
4446.00,0.7438
4445.00,0.7471
4444.00,0.7507
4443.00,0.7546
4442.00,0.7587
4441.00,0.7630
4440.00,0.7676
4439.00,0.7724
4438.00,0.7775
4437.00,0.7828
4436.00,0.7882
4435.00,0.7939
4434.00,0.7997
4433.00,0.8057
4432.00,0.8119
4431.00,0.8183
4430.00,0.8249
4429.00,0.8316
4428.00,0.8384
4427.00,0.8453
4426.00,0.8523
4425.00,0.8595
4424.00,0.8667
4423.00,0.8740
4422.00,0.8814
4421.00,0.8889
4420.00,0.8966
4419.00,0.9042
4418.00,0.9120
4417.00,0.9198
4416.00,0.9276
4415.00,0.9355
4414.00,0.9435
4413.00,0.9515
4412.00,0.9595
4411.00,0.9675
4410.00,0.9756
4409.00,0.9836
4408.00,0.9917
4407.00,0.9998
4406.00,1.0079
4405.00,1.0161
4404.00,1.0242
4403.00,1.0325
4402.00,1.0407
4401.00,1.0489
4400.00,1.0570
4399.00,1.0651
4398.00,1.0732
4397.00,1.0813
4396.00,1.0894
4395.00,1.0974
4394.00,1.1055
4393.00,1.1135
4392.00,1.1216
4391.00,1.1296
4390.00,1.1376
4389.00,1.1455
4388.00,1.1533
4387.00,1.1609
4386.00,1.1686
4385.00,1.1762
4384.00,1.1839
4383.00,1.1916
4382.00,1.1993
4381.00,1.2070
4380.00,1.2145
4379.00,1.2221
4378.00,1.2295
4377.00,1.2369
4376.00,1.2442
4375.00,1.2514
4374.00,1.2585
4373.00,1.2655
4372.00,1.2724
4371.00,1.2791
4370.00,1.2858
4369.00,1.2925
4368.00,1.2991
4367.00,1.3055
4366.00,1.3119
4365.00,1.3182
4364.00,1.3245
4363.00,1.3308
4362.00,1.3371
4361.00,1.3433
4360.00,1.3495
4359.00,1.3556
4358.00,1.3617
4357.00,1.3678
4356.00,1.3738
4355.00,1.3798
4354.00,1.3857
4353.00,1.3916
4352.00,1.3974
4351.00,1.4030
4350.00,1.4084
4349.00,1.4139
4348.00,1.4195
4347.00,1.4253
4346.00,1.4311
4345.00,1.4368
4344.00,1.4424
4343.00,1.4477
4342.00,1.4528
4341.00,1.4578
4340.00,1.4626
4339.00,1.4674
4338.00,1.4722
4337.00,1.4770
4336.00,1.4818
4335.00,1.4866
4334.00,1.4914
4333.00,1.4960
4332.00,1.5005
4331.00,1.5051
4330.00,1.5096
4329.00,1.5141
4328.00,1.5186
4327.00,1.5231
4326.00,1.5275
4325.00,1.5319
4324.00,1.5362
4323.00,1.5403
4322.00,1.5443
4321.00,1.5481
4320.00,1.5518
4319.00,1.5555
4318.00,1.5591
4317.00,1.5627
4316.00,1.5663
4315.00,1.5700
4314.00,1.5736
4313.00,1.5770
4312.00,1.5803
4311.00,1.5834
4310.00,1.5864
4309.00,1.5894
4308.00,1.5923
4307.00,1.5952
4306.00,1.5981
4305.00,1.6009
4304.00,1.6037
4303.00,1.6063
4302.00,1.6089
4301.00,1.6112
4300.00,1.6135
4299.00,1.6157
4298.00,1.6179
4297.00,1.6202
4296.00,1.6224
4295.00,1.6246
4294.00,1.6266
4293.00,1.6286
4292.00,1.6305
4291.00,1.6324
4290.00,1.6343
4289.00,1.6363
4288.00,1.6384
4287.00,1.6405
4286.00,1.6425
4285.00,1.6441
4284.00,1.6455
4283.00,1.6467
4282.00,1.6480
4281.00,1.6495
4280.00,1.6510
4279.00,1.6524
4278.00,1.6537
4277.00,1.6548
4276.00,1.6559
4275.00,1.6569
4274.00,1.6577
4273.00,1.6584
4272.00,1.6590
4271.00,1.6597
4270.00,1.6605
4269.00,1.6612
4268.00,1.6615
4267.00,1.6616
4266.00,1.6615
4265.00,1.6614
4264.00,1.6614
4263.00,1.6617
4262.00,1.6619
4261.00,1.6621
4260.00,1.6623
4259.00,1.6624
4258.00,1.6625
4257.00,1.6626
4256.00,1.6626
4255.00,1.6623
4254.00,1.6618
4253.00,1.6612
4252.00,1.6607
4251.00,1.6603
4250.00,1.6597
4249.00,1.6590
4248.00,1.6583
4247.00,1.6577
4246.00,1.6572
4245.00,1.6566
4244.00,1.6558
4243.00,1.6548
4242.00,1.6535
4241.00,1.6521
4240.00,1.6508
4239.00,1.6494
4238.00,1.6480
4237.00,1.6466
4236.00,1.6453
4235.00,1.6440
4234.00,1.6426
4233.00,1.6410
4232.00,1.6394
4231.00,1.6377
4230.00,1.6360
4229.00,1.6343
4228.00,1.6326
4227.00,1.6307
4226.00,1.6288
4225.00,1.6266
4224.00,1.6244
4223.00,1.6222
4222.00,1.6201
4221.00,1.6180
4220.00,1.6160
4219.00,1.6139
4218.00,1.6116
4217.00,1.6092
4216.00,1.6066
4215.00,1.6038
4214.00,1.6009
4213.00,1.5980
4212.00,1.5951
4211.00,1.5922
4210.00,1.5891
4209.00,1.5859
4208.00,1.5826
4207.00,1.5793
4206.00,1.5761
4205.00,1.5726
4204.00,1.5690
4203.00,1.5651
4202.00,1.5611
4201.00,1.5572
4200.00,1.5533
4199.00,1.5495
4198.00,1.5456
4197.00,1.5415
4196.00,1.5373
4195.00,1.5332
4194.00,1.5291
4193.00,1.5251
4192.00,1.5209
4191.00,1.5165
4190.00,1.5118
4189.00,1.5070
4188.00,1.5020
4187.00,1.4970
4186.00,1.4920
4185.00,1.4870
4184.00,1.4820
4183.00,1.4771
4182.00,1.4720
4181.00,1.4669
4180.00,1.4616
4179.00,1.4561
4178.00,1.4506
4177.00,1.4449
4176.00,1.4391
4175.00,1.4332
4174.00,1.4272
4173.00,1.4211
4172.00,1.4150
4171.00,1.4088
4170.00,1.4026
4169.00,1.3963
4168.00,1.3899
4167.00,1.3834
4166.00,1.3767
4165.00,1.3699
4164.00,1.3630
4163.00,1.3561
4162.00,1.3491
4161.00,1.3420
4160.00,1.3349
4159.00,1.3276
4158.00,1.3202
4157.00,1.3126
4156.00,1.3049
4155.00,1.2971
4154.00,1.2893
4153.00,1.2814
4152.00,1.2734
4151.00,1.2653
4150.00,1.2571
4149.00,1.2488
4148.00,1.2403
4147.00,1.2319
4146.00,1.2233
4145.00,1.2147
4144.00,1.2060
4143.00,1.1971
4142.00,1.1882
4141.00,1.1792
4140.00,1.1700
4139.00,1.1608
4138.00,1.1515
4137.00,1.1422
4136.00,1.1328
4135.00,1.1233
4134.00,1.1139
4133.00,1.1043
4132.00,1.0947
4131.00,1.0850
4130.00,1.0753
4129.00,1.0656
4128.00,1.0559
4127.00,1.0463
4126.00,1.0366
4125.00,1.0270
4124.00,1.0174
4123.00,1.0077
4122.00,0.9980
4121.00,0.9883
4120.00,0.9787
4119.00,0.9692
4118.00,0.9598
4117.00,0.9504
4116.00,0.9410
4115.00,0.9318
4114.00,0.9227
4113.00,0.9137
4112.00,0.9048
4111.00,0.8961
4110.00,0.8875
4109.00,0.8791
4108.00,0.8710
4107.00,0.8631
4106.00,0.8554
4105.00,0.8479
4104.00,0.8406
4103.00,0.8335
4102.00,0.8267
4101.00,0.8201
4100.00,0.8139
4099.00,0.8079
4098.00,0.8023
4097.00,0.7970
4096.00,0.7922
4095.00,0.7876
4094.00,0.7835
4093.00,0.7798
4092.00,0.7765
4091.00,0.7736
4090.00,0.7711
4089.00,0.7691
4088.00,0.7674
4087.00,0.7662
4086.00,0.7653
4085.00,0.7649
4084.00,0.7648
4083.00,0.7652
4082.00,0.7659
4081.00,0.7670
4080.00,0.7685
4079.00,0.7703
4078.00,0.7726
4077.00,0.7751
4076.00,0.7780
4075.00,0.7813
4074.00,0.7849
4073.00,0.7888
4072.00,0.7930
4071.00,0.7976
4070.00,0.8024
4069.00,0.8075
4068.00,0.8129
4067.00,0.8186
4066.00,0.8247
4065.00,0.8310
4064.00,0.8375
4063.00,0.8443
4062.00,0.8513
4061.00,0.8586
4060.00,0.8660
4059.00,0.8737
4058.00,0.8815
4057.00,0.8894
4056.00,0.8975
4055.00,0.9058
4054.00,0.9142
4053.00,0.9226
4052.00,0.9312
4051.00,0.9398
4050.00,0.9485
4049.00,0.9573
4048.00,0.9661
4047.00,0.9751
4046.00,0.9840
4045.00,0.9930
4044.00,1.0020
4043.00,1.0110
4042.00,1.0199
4041.00,1.0289
4040.00,1.0379
4039.00,1.0469
4038.00,1.0559
4037.00,1.0649
4036.00,1.0739
4035.00,1.0829
4034.00,1.0920
4033.00,1.1010
4032.00,1.1101
4031.00,1.1191
4030.00,1.1282
4029.00,1.1373
4028.00,1.1464
4027.00,1.1556
4026.00,1.1647
4025.00,1.1738
4024.00,1.1829
4023.00,1.1920
4022.00,1.2010
4021.00,1.2099
4020.00,1.2188
4019.00,1.2277
4018.00,1.2365
4017.00,1.2453
4016.00,1.2541
4015.00,1.2628
4014.00,1.2716
4013.00,1.2803
4012.00,1.2889
4011.00,1.2974
4010.00,1.3058
4009.00,1.3140
4008.00,1.3222
4007.00,1.3305
4006.00,1.3387
4005.00,1.3470
4004.00,1.3552
4003.00,1.3633
4002.00,1.3713
4001.00,1.3793
4000.00,1.3873
3999.00,1.3952
3998.00,1.4030
3997.00,1.4107
3996.00,1.4184
3995.00,1.4261
3994.00,1.4336
3993.00,1.4411
3992.00,1.4486
3991.00,1.4559
3990.00,1.4632
3989.00,1.4705
3988.00,1.4777
3987.00,1.4849
3986.00,1.4922
3985.00,1.4994
3984.00,1.5065
3983.00,1.5134
3982.00,1.5200
3981.00,1.5265
3980.00,1.5329
3979.00,1.5392
3978.00,1.5455
3977.00,1.5517
3976.00,1.5578
3975.00,1.5639
3974.00,1.5699
3973.00,1.5759
3972.00,1.5818
3971.00,1.5878
3970.00,1.5937
3969.00,1.5993
3968.00,1.6047
3967.00,1.6097
3966.00,1.6146
3965.00,1.6196
3964.00,1.6247
3963.00,1.6299
3962.00,1.6351
3961.00,1.6402
3960.00,1.6452
3959.00,1.6498
3958.00,1.6542
3957.00,1.6585
3956.00,1.6628
3955.00,1.6672
3954.00,1.6716
3953.00,1.6760
3952.00,1.6801
3951.00,1.6841
3950.00,1.6877
3949.00,1.6913
3948.00,1.6949
3947.00,1.6986
3946.00,1.7022
3945.00,1.7057
3944.00,1.7092
3943.00,1.7126
3942.00,1.7162
3941.00,1.7197
3940.00,1.7230
3939.00,1.7262
3938.00,1.7292
3937.00,1.7320
3936.00,1.7345
3935.00,1.7369
3934.00,1.7395
3933.00,1.7422
3932.00,1.7450
3931.00,1.7478
3930.00,1.7504
3929.00,1.7531
3928.00,1.7557
3927.00,1.7581
3926.00,1.7603
3925.00,1.7623
3924.00,1.7644
3923.00,1.7665
3922.00,1.7683
3921.00,1.7699
3920.00,1.7712
3919.00,1.7724
3918.00,1.7739
3917.00,1.7755
3916.00,1.7773
3915.00,1.7793
3914.00,1.7812
3913.00,1.7831
3912.00,1.7848
3911.00,1.7863
3910.00,1.7877
3909.00,1.7888
3908.00,1.7897
3907.00,1.7905
3906.00,1.7910
3905.00,1.7914
3904.00,1.7917
3903.00,1.7920
3902.00,1.7924
3901.00,1.7930
3900.00,1.7938
3899.00,1.7949
3898.00,1.7963
3897.00,1.7977
3896.00,1.7988
3895.00,1.7995
3894.00,1.7996
3893.00,1.7994
3892.00,1.7991
3891.00,1.7992
3890.00,1.7994
3889.00,1.7994
3888.00,1.7990
3887.00,1.7985
3886.00,1.7986
3885.00,1.7992
3884.00,1.7996
3883.00,1.7992
3882.00,1.7982
3881.00,1.7971
3880.00,1.7965
3879.00,1.7963
3878.00,1.7962
3877.00,1.7957
3876.00,1.7949
3875.00,1.7940
3874.00,1.7933
3873.00,1.7924
3872.00,1.7910
3871.00,1.7892
3870.00,1.7874
3869.00,1.7859
3868.00,1.7844
3867.00,1.7828
3866.00,1.7811
3865.00,1.7798
3864.00,1.7785
3863.00,1.7772
3862.00,1.7757
3861.00,1.7744
3860.00,1.7732
3859.00,1.7720
3858.00,1.7702
3857.00,1.7673
3856.00,1.7637
3855.00,1.7600
3854.00,1.7571
3853.00,1.7547
3852.00,1.7522
3851.00,1.7496
3850.00,1.7471
3849.00,1.7452
3848.00,1.7437
3847.00,1.7422
3846.00,1.7406
3845.00,1.7384
3844.00,1.7359
3843.00,1.7332
3842.00,1.7302
3841.00,1.7267
3840.00,1.7229
3839.00,1.7189
3838.00,1.7150
3837.00,1.7111
3836.00,1.7072
3835.00,1.7032
3834.00,1.6990
3833.00,1.6947
3832.00,1.6906
3831.00,1.6871
3830.00,1.6840
3829.00,1.6810
3828.00,1.6776
3827.00,1.6738
3826.00,1.6698
3825.00,1.6654
3824.00,1.6603
3823.00,1.6548
3822.00,1.6494
3821.00,1.6442
3820.00,1.6391
3819.00,1.6335
3818.00,1.6276
3817.00,1.6215
3816.00,1.6158
3815.00,1.6106
3814.00,1.6055
3813.00,1.6003
3812.00,1.5950
3811.00,1.5897
3810.00,1.5844
3809.00,1.5785
3808.00,1.5723
3807.00,1.5660
3806.00,1.5597
3805.00,1.5532
3804.00,1.5461
3803.00,1.5388
3802.00,1.5316
3801.00,1.5248
3800.00,1.5179
3799.00,1.5106
3798.00,1.5031
3797.00,1.4955
3796.00,1.4883
3795.00,1.4812
3794.00,1.4741
3793.00,1.4669
3792.00,1.4595
3791.00,1.4522
3790.00,1.4448
3789.00,1.4371
3788.00,1.4290
3787.00,1.4207
3786.00,1.4122
3785.00,1.4033
3784.00,1.3943
3783.00,1.3851
3782.00,1.3758
3781.00,1.3666
3780.00,1.3573
3779.00,1.3479
3778.00,1.3384
3777.00,1.3286
3776.00,1.3186
3775.00,1.3088
3774.00,1.2992
3773.00,1.2895
3772.00,1.2796
3771.00,1.2693
3770.00,1.2588
3769.00,1.2481
3768.00,1.2371
3767.00,1.2260
3766.00,1.2150
3765.00,1.2041
3764.00,1.1934
3763.00,1.1826
3762.00,1.1718
3761.00,1.1608
3760.00,1.1498
3759.00,1.1385
3758.00,1.1269
3757.00,1.1151
3756.00,1.1031
3755.00,1.0912
3754.00,1.0794
3753.00,1.0676
3752.00,1.0557
3751.00,1.0431
3750.00,1.0298
3749.00,1.0163
3748.00,1.0032
3747.00,0.9905
3746.00,0.9780
3745.00,0.9659
3744.00,0.9544
3743.00,0.9436
3742.00,0.9330
3741.00,0.9229
3740.00,0.9134
3739.00,0.9047
3738.00,0.8963
3737.00,0.8879
3736.00,0.8790
3735.00,0.8697
3734.00,0.8600
3733.00,0.8503
3732.00,0.8414
3731.00,0.8335
3730.00,0.8265
3729.00,0.8204
3728.00,0.8149
3727.00,0.8101
3726.00,0.8059
3725.00,0.8020
3724.00,0.7981
3723.00,0.7946
3722.00,0.7915
3721.00,0.7891
3720.00,0.7872
3719.00,0.7860
3718.00,0.7854
3717.00,0.7857
3716.00,0.7866
3715.00,0.7883
3714.00,0.7906
3713.00,0.7938
3712.00,0.7976
3711.00,0.8014
3710.00,0.8049
3709.00,0.8086
3708.00,0.8132
3707.00,0.8189
3706.00,0.8255
3705.00,0.8327
3704.00,0.8403
3703.00,0.8485
3702.00,0.8570
3701.00,0.8657
3700.00,0.8745
3699.00,0.8834
3698.00,0.8925
3697.00,0.9021
3696.00,0.9122
3695.00,0.9225
3694.00,0.9327
3693.00,0.9429
3692.00,0.9533
3691.00,0.9637
3690.00,0.9742
3689.00,0.9850
3688.00,0.9965
3687.00,1.0082
3686.00,1.0197
3685.00,1.0307
3684.00,1.0416
3683.00,1.0529
3682.00,1.0643
3681.00,1.0758
3680.00,1.0871
3679.00,1.0979
3678.00,1.1079
3677.00,1.1180
3676.00,1.1294
3675.00,1.1422
3674.00,1.1552
3673.00,1.1668
3672.00,1.1771
3671.00,1.1874
3670.00,1.1991
3669.00,1.2118
3668.00,1.2247
3667.00,1.2370
3666.00,1.2485
3665.00,1.2595
3664.00,1.2703
3663.00,1.2810
3662.00,1.2917
3661.00,1.3024
3660.00,1.3127
3659.00,1.3226
3658.00,1.3321
3657.00,1.3419
3656.00,1.3527
3655.00,1.3642
3654.00,1.3751
3653.00,1.3846
3652.00,1.3932
3651.00,1.4018
3650.00,1.4113
3649.00,1.4217
3648.00,1.4329
3647.00,1.4446
3646.00,1.4562
3645.00,1.4672
3644.00,1.4773
3643.00,1.4868
3642.00,1.4957
3641.00,1.5044
3640.00,1.5132
3639.00,1.5221
3638.00,1.5310
3637.00,1.5397
3636.00,1.5483
3635.00,1.5569
3634.00,1.5653
3633.00,1.5731
3632.00,1.5799
3631.00,1.5857
3630.00,1.5918
3629.00,1.5996
3628.00,1.6092
3627.00,1.6197
3626.00,1.6298
3625.00,1.6388
3624.00,1.6470
3623.00,1.6542
3622.00,1.6605
3621.00,1.6664
3620.00,1.6728
3619.00,1.6798
3618.00,1.6873
3617.00,1.6947
3616.00,1.7017
3615.00,1.7081
3614.00,1.7140
3613.00,1.7197
3612.00,1.7254
3611.00,1.7311
3610.00,1.7368
3609.00,1.7428
3608.00,1.7493
3607.00,1.7561
3606.00,1.7628
3605.00,1.7693
3604.00,1.7754
3603.00,1.7812
3602.00,1.7866
3601.00,1.7921
3600.00,1.7977
3599.00,1.8031
3598.00,1.8081
3597.00,1.8127
3596.00,1.8175
3595.00,1.8223
3594.00,1.8270
3593.00,1.8315
3592.00,1.8358
3591.00,1.8398
3590.00,1.8435
3589.00,1.8475
3588.00,1.8519
3587.00,1.8563
3586.00,1.8606
3585.00,1.8648
3584.00,1.8691
3583.00,1.8734
3582.00,1.8775
3581.00,1.8813
3580.00,1.8851
3579.00,1.8888
3578.00,1.8923
3577.00,1.8957
3576.00,1.8992
3575.00,1.9026
3574.00,1.9059
3573.00,1.9092
3572.00,1.9125
3571.00,1.9155
3570.00,1.9182
3569.00,1.9207
3568.00,1.9235
3567.00,1.9263
3566.00,1.9290
3565.00,1.9317
3564.00,1.9347
3563.00,1.9377
3562.00,1.9406
3561.00,1.9434
3560.00,1.9460
3559.00,1.9485
3558.00,1.9505
3557.00,1.9523
3556.00,1.9541
3555.00,1.9559
3554.00,1.9578
3553.00,1.9598
3552.00,1.9619
3551.00,1.9639
3550.00,1.9657
3549.00,1.9676
3548.00,1.9695
3547.00,1.9712
3546.00,1.9725
3545.00,1.9737
3544.00,1.9752
3543.00,1.9767
3542.00,1.9779
3541.00,1.9788
3540.00,1.9797
3539.00,1.9806
3538.00,1.9816
3537.00,1.9827
3536.00,1.9839
3535.00,1.9851
3534.00,1.9861
3533.00,1.9870
3532.00,1.9875
3531.00,1.9878
3530.00,1.9877
3529.00,1.9879
3528.00,1.9884
3527.00,1.9889
3526.00,1.9892
3525.00,1.9892
3524.00,1.9893
3523.00,1.9896
3522.00,1.9899
3521.00,1.9900
3520.00,1.9901
3519.00,1.9902
3518.00,1.9900
3517.00,1.9895
3516.00,1.9889
3515.00,1.9881
3514.00,1.9872
3513.00,1.9863
3512.00,1.9853
3511.00,1.9843
3510.00,1.9836
3509.00,1.9833
3508.00,1.9833
3507.00,1.9832
3506.00,1.9827
3505.00,1.9817
3504.00,1.9804
3503.00,1.9789
3502.00,1.9773
3501.00,1.9760
3500.00,1.9749
3499.00,1.9737
3498.00,1.9722
3497.00,1.9704
3496.00,1.9686
3495.00,1.9667
3494.00,1.9645
3493.00,1.9623
3492.00,1.9603
3491.00,1.9587
3490.00,1.9571
3489.00,1.9554
3488.00,1.9535
3487.00,1.9511
3486.00,1.9484
3485.00,1.9458
3484.00,1.9432
3483.00,1.9406
3482.00,1.9381
3481.00,1.9357
3480.00,1.9334
3479.00,1.9310
3478.00,1.9280
3477.00,1.9246
3476.00,1.9211
3475.00,1.9176
3474.00,1.9140
3473.00,1.9104
3472.00,1.9069
3471.00,1.9033
3470.00,1.8997
3469.00,1.8963
3468.00,1.8928
3467.00,1.8892
3466.00,1.8852
3465.00,1.8809
3464.00,1.8767
3463.00,1.8725
3462.00,1.8684
3461.00,1.8642
3460.00,1.8599
3459.00,1.8555
3458.00,1.8509
3457.00,1.8463
3456.00,1.8418
3455.00,1.8371
3454.00,1.8321
3453.00,1.8270
3452.00,1.8221
3451.00,1.8171
3450.00,1.8119
3449.00,1.8065
3448.00,1.8010
3447.00,1.7954
3446.00,1.7894
3445.00,1.7832
3444.00,1.7769
3443.00,1.7705
3442.00,1.7643
3441.00,1.7582
3440.00,1.7519
3439.00,1.7454
3438.00,1.7386
3437.00,1.7318
3436.00,1.7250
3435.00,1.7182
3434.00,1.7113
3433.00,1.7043
3432.00,1.6972
3431.00,1.6899
3430.00,1.6825
3429.00,1.6751
3428.00,1.6677
3427.00,1.6602
3426.00,1.6527
3425.00,1.6452
3424.00,1.6379
3423.00,1.6305
3422.00,1.6232
3421.00,1.6158
3420.00,1.6086
3419.00,1.6014
3418.00,1.5942
3417.00,1.5871
3416.00,1.5802
3415.00,1.5735
3414.00,1.5672
3413.00,1.5610
3412.00,1.5551
3411.00,1.5491
3410.00,1.5431
3409.00,1.5369
3408.00,1.5308
3407.00,1.5245
3406.00,1.5181
3405.00,1.5113
3404.00,1.5041
3403.00,1.4964
3402.00,1.4882
3401.00,1.4794
3400.00,1.4702
3399.00,1.4604
3398.00,1.4500
3397.00,1.4391
3396.00,1.4278
3395.00,1.4160
3394.00,1.4038
3393.00,1.3913
3392.00,1.3785
3391.00,1.3655
3390.00,1.3522
3389.00,1.3388
3388.00,1.3254
3387.00,1.3119
3386.00,1.2983
3385.00,1.2846
3384.00,1.2708
3383.00,1.2570
3382.00,1.2431
3381.00,1.2293
3380.00,1.2157
3379.00,1.2022
3378.00,1.1889
3377.00,1.1757
3376.00,1.1625
3375.00,1.1495
3374.00,1.1367
3373.00,1.1242
3372.00,1.1119
3371.00,1.0998
3370.00,1.0880
3369.00,1.0766
3368.00,1.0655
3367.00,1.0548
3366.00,1.0446
3365.00,1.0347
3364.00,1.0252
3363.00,1.0161
3362.00,1.0074
3361.00,0.9993
3360.00,0.9917
3359.00,0.9846
3358.00,0.9782
3357.00,0.9723
3356.00,0.9670
3355.00,0.9623
3354.00,0.9583
3353.00,0.9548
3352.00,0.9520
3351.00,0.9498
3350.00,0.9483
3349.00,0.9475
3348.00,0.9473
3347.00,0.9477
3346.00,0.9488
3345.00,0.9504
3344.00,0.9527
3343.00,0.9555
3342.00,0.9589
3341.00,0.9628
3340.00,0.9673
3339.00,0.9723
3338.00,0.9778
3337.00,0.9838
3336.00,0.9904
3335.00,0.9973
3334.00,1.0047
3333.00,1.0124
3332.00,1.0205
3331.00,1.0289
3330.00,1.0377
3329.00,1.0468
3328.00,1.0562
3327.00,1.0658
3326.00,1.0755
3325.00,1.0855
3324.00,1.0958
3323.00,1.1062
3322.00,1.1169
3321.00,1.1277
3320.00,1.1386
3319.00,1.1497
3318.00,1.1608
3317.00,1.1720
3316.00,1.1833
3315.00,1.1947
3314.00,1.2061
3313.00,1.2177
3312.00,1.2293
3311.00,1.2410
3310.00,1.2527
3309.00,1.2643
3308.00,1.2759
3307.00,1.2876
3306.00,1.2993
3305.00,1.3110
3304.00,1.3227
3303.00,1.3345
3302.00,1.3463
3301.00,1.3580
3300.00,1.3697
3299.00,1.3814
3298.00,1.3930
3297.00,1.4045
3296.00,1.4160
3295.00,1.4276
3294.00,1.4391
3293.00,1.4506
3292.00,1.4620
3291.00,1.4732
3290.00,1.4845
3289.00,1.4958
3288.00,1.5072
3287.00,1.5184
3286.00,1.5296
3285.00,1.5408
3284.00,1.5519
3283.00,1.5629
3282.00,1.5738
3281.00,1.5845
3280.00,1.5952
3279.00,1.6058
3278.00,1.6162
3277.00,1.6266
3276.00,1.6369
3275.00,1.6471
3274.00,1.6572
3273.00,1.6672
3272.00,1.6770
3271.00,1.6867
3270.00,1.6964
3269.00,1.7062
3268.00,1.7158
3267.00,1.7251
3266.00,1.7340
3265.00,1.7428
3264.00,1.7515
3263.00,1.7604
3262.00,1.7691
3261.00,1.7777
3260.00,1.7860
3259.00,1.7942
3258.00,1.8022
3257.00,1.8105
3256.00,1.8188
3255.00,1.8269
3254.00,1.8346
3253.00,1.8418
3252.00,1.8490
3251.00,1.8561
3250.00,1.8632
3249.00,1.8701
3248.00,1.8771
3247.00,1.8841
3246.00,1.8910
3245.00,1.8978
3244.00,1.9043
3243.00,1.9104
3242.00,1.9164
3241.00,1.9223
3240.00,1.9284
3239.00,1.9344
3238.00,1.9402
3237.00,1.9458
3236.00,1.9513
3235.00,1.9568
3234.00,1.9622
3233.00,1.9674
3232.00,1.9727
3231.00,1.9780
3230.00,1.9834
3229.00,1.9888
3228.00,1.9940
3227.00,1.9989
3226.00,2.0033
3225.00,2.0074
3224.00,2.0115
3223.00,2.0156
3222.00,2.0199
3221.00,2.0244
3220.00,2.0287
3219.00,2.0327
3218.00,2.0363
3217.00,2.0399
3216.00,2.0439
3215.00,2.0479
3214.00,2.0518
3213.00,2.0558
3212.00,2.0597
3211.00,2.0636
3210.00,2.0674
3209.00,2.0710
3208.00,2.0744
3207.00,2.0775
3206.00,2.0802
3205.00,2.0830
3204.00,2.0861
3203.00,2.0892
3202.00,2.0920
3201.00,2.0944
3200.00,2.0971
3199.00,2.1003
3198.00,2.1038
3197.00,2.1071
3196.00,2.1099
3195.00,2.1121
3194.00,2.1141
3193.00,2.1161
3192.00,2.1182
3191.00,2.1202
3190.00,2.1220
3189.00,2.1237
3188.00,2.1252
3187.00,2.1269
3186.00,2.1288
3185.00,2.1311
3184.00,2.1334
3183.00,2.1352
3182.00,2.1362
3181.00,2.1368
3180.00,2.1375
3179.00,2.1384
3178.00,2.1395
3177.00,2.1408
3176.00,2.1421
3175.00,2.1433
3174.00,2.1443
3173.00,2.1453
3172.00,2.1463
3171.00,2.1470
3170.00,2.1474
3169.00,2.1479
3168.00,2.1485
3167.00,2.1494
3166.00,2.1502
3165.00,2.1508
3164.00,2.1512
3163.00,2.1514
3162.00,2.1513
3161.00,2.1511
3160.00,2.1508
3159.00,2.1504
3158.00,2.1498
3157.00,2.1493
3156.00,2.1491
3155.00,2.1491
3154.00,2.1491
3153.00,2.1491
3152.00,2.1487
3151.00,2.1478
3150.00,2.1469
3149.00,2.1462
3148.00,2.1457
3147.00,2.1450
3146.00,2.1440
3145.00,2.1429
3144.00,2.1417
3143.00,2.1404
3142.00,2.1390
3141.00,2.1377
3140.00,2.1363
3139.00,2.1348
3138.00,2.1332
3137.00,2.1317
3136.00,2.1305
3135.00,2.1292
3134.00,2.1275
3133.00,2.1252
3132.00,2.1226
3131.00,2.1198
3130.00,2.1171
3129.00,2.1148
3128.00,2.1127
3127.00,2.1107
3126.00,2.1084
3125.00,2.1057
3124.00,2.1029
3123.00,2.0999
3122.00,2.0968
3121.00,2.0937
3120.00,2.0906
3119.00,2.0875
3118.00,2.0844
3117.00,2.0814
3116.00,2.0782
3115.00,2.0744
3114.00,2.0701
3113.00,2.0655
3112.00,2.0613
3111.00,2.0574
3110.00,2.0535
3109.00,2.0496
3108.00,2.0454
3107.00,2.0411
3106.00,2.0366
3105.00,2.0319
3104.00,2.0272
3103.00,2.0224
3102.00,2.0176
3101.00,2.0127
3100.00,2.0076
3099.00,2.0023
3098.00,1.9967
3097.00,1.9911
3096.00,1.9854
3095.00,1.9792
3094.00,1.9727
3093.00,1.9661
3092.00,1.9598
3091.00,1.9536
3090.00,1.9471
3089.00,1.9405
3088.00,1.9339
3087.00,1.9273
3086.00,1.9203
3085.00,1.9130
3084.00,1.9054
3083.00,1.8975
3082.00,1.8893
3081.00,1.8811
3080.00,1.8729
3079.00,1.8645
3078.00,1.8560
3077.00,1.8472
3076.00,1.8382
3075.00,1.8289
3074.00,1.8193
3073.00,1.8097
3072.00,1.8001
3071.00,1.7904
3070.00,1.7805
3069.00,1.7702
3068.00,1.7597
3067.00,1.7490
3066.00,1.7380
3065.00,1.7268
3064.00,1.7155
3063.00,1.7041
3062.00,1.6924
3061.00,1.6805
3060.00,1.6682
3059.00,1.6555
3058.00,1.6425
3057.00,1.6293
3056.00,1.6159
3055.00,1.6022
3054.00,1.5881
3053.00,1.5738
3052.00,1.5592
3051.00,1.5443
3050.00,1.5290
3049.00,1.5134
3048.00,1.4974
3047.00,1.4809
3046.00,1.4639
3045.00,1.4465
3044.00,1.4287
3043.00,1.4107
3042.00,1.3925
3041.00,1.3744
3040.00,1.3562
3039.00,1.3381
3038.00,1.3200
3037.00,1.3020
3036.00,1.2843
3035.00,1.2669
3034.00,1.2499
3033.00,1.2334
3032.00,1.2173
3031.00,1.2017
3030.00,1.1866
3029.00,1.1720
3028.00,1.1582
3027.00,1.1450
3026.00,1.1326
3025.00,1.1210
3024.00,1.1105
3023.00,1.1011
3022.00,1.0930
3021.00,1.0862
3020.00,1.0810
3019.00,1.0773
3018.00,1.0752
3017.00,1.0749
3016.00,1.0764
3015.00,1.0798
3014.00,1.0851
3013.00,1.0923
3012.00,1.1014
3011.00,1.1123
3010.00,1.1249
3009.00,1.1394
3008.00,1.1555
3007.00,1.1732
3006.00,1.1923
3005.00,1.2129
3004.00,1.2348
3003.00,1.2579
3002.00,1.2821
3001.00,1.3073
3000.00,1.3334
2999.00,1.3603
2998.00,1.3880
2997.00,1.4162
2996.00,1.4451
2995.00,1.4745
2994.00,1.5046
2993.00,1.5352
2992.00,1.5661
2991.00,1.5972
2990.00,1.6284
2989.00,1.6598
2988.00,1.6916
2987.00,1.7239
2986.00,1.7563
2985.00,1.7888
2984.00,1.8214
2983.00,1.8540
2982.00,1.8868
2981.00,1.9198
2980.00,1.9528
2979.00,1.9858
2978.00,2.0186
2977.00,2.0511
2976.00,2.0836
2975.00,2.1161
2974.00,2.1484
2973.00,2.1806
2972.00,2.2128
2971.00,2.2453
2970.00,2.2782
2969.00,2.3114
2968.00,2.3449
2967.00,2.3785
2966.00,2.4126
2965.00,2.4475
2964.00,2.4826
2963.00,2.5169
2962.00,2.5492
2961.00,2.5793
2960.00,2.6076
2959.00,2.6345
2958.00,2.6603
2957.00,2.6850
2956.00,2.7088
2955.00,2.7319
2954.00,2.7545
2953.00,2.7775
2952.00,2.8011
2951.00,2.8248
2950.00,2.8484
2949.00,2.8727
2948.00,2.8990
2947.00,2.9271
2946.00,2.9559
2945.00,2.9839
2944.00,3.0092
2943.00,3.0306
2942.00,3.0489
2941.00,3.0672
2940.00,3.0872
2939.00,3.1058
2938.00,3.1178
2937.00,3.1199
2936.00,3.1128
2935.00,3.0986
2934.00,3.0786
2933.00,3.0529
2932.00,3.0209
2931.00,2.9826
2930.00,2.9395
2929.00,2.8948
2928.00,2.8503
2927.00,2.8057
2926.00,2.7597
2925.00,2.7120
2924.00,2.6632
2923.00,2.6143
2922.00,2.5664
2921.00,2.5196
2920.00,2.4740
2919.00,2.4289
2918.00,2.3843
2917.00,2.3404
2916.00,2.2977
2915.00,2.2570
2914.00,2.2191
2913.00,2.1847
2912.00,2.1543
2911.00,2.1277
2910.00,2.1048
2909.00,2.0855
2908.00,2.0694
2907.00,2.0559
2906.00,2.0438
2905.00,2.0326
2904.00,2.0218
2903.00,2.0114
2902.00,2.0015
2901.00,1.9926
2900.00,1.9848
2899.00,1.9782
2898.00,1.9729
2897.00,1.9694
2896.00,1.9676
2895.00,1.9676
2894.00,1.9691
2893.00,1.9720
2892.00,1.9763
2891.00,1.9819
2890.00,1.9888
2889.00,1.9971
2888.00,2.0071
2887.00,2.0188
2886.00,2.0324
2885.00,2.0477
2884.00,2.0646
2883.00,2.0830
2882.00,2.1028
2881.00,2.1241
2880.00,2.1468
2879.00,2.1704
2878.00,2.1947
2877.00,2.2194
2876.00,2.2447
2875.00,2.2706
2874.00,2.2976
2873.00,2.3260
2872.00,2.3557
2871.00,2.3860
2870.00,2.4162
2869.00,2.4460
2868.00,2.4749
2867.00,2.5014
2866.00,2.5233
2865.00,2.5384
2864.00,2.5455
2863.00,2.5436
2862.00,2.5320
2861.00,2.5102
2860.00,2.4788
2859.00,2.4394
2858.00,2.3944
2857.00,2.3455
2856.00,2.2932
2855.00,2.2377
2854.00,2.1804
2853.00,2.1237
2852.00,2.0701
2851.00,2.0215
2850.00,1.9790
2849.00,1.9436
2848.00,1.9154
2847.00,1.8945
2846.00,1.8803
2845.00,1.8723
2844.00,1.8698
2843.00,1.8721
2842.00,1.8784
2841.00,1.8879
2840.00,1.8998
2839.00,1.9132
2838.00,1.9276
2837.00,1.9426
2836.00,1.9581
2835.00,1.9738
2834.00,1.9894
2833.00,2.0045
2832.00,2.0190
2831.00,2.0325
2830.00,2.0453
2829.00,2.0573
2828.00,2.0686
2827.00,2.0791
2826.00,2.0886
2825.00,2.0972
2824.00,2.1050
2823.00,2.1123
2822.00,2.1195
2821.00,2.1268
2820.00,2.1344
2819.00,2.1423
2818.00,2.1502
2817.00,2.1579
2816.00,2.1655
2815.00,2.1732
2814.00,2.1809
2813.00,2.1886
2812.00,2.1965
2811.00,2.2044
2810.00,2.2123
2809.00,2.2201
2808.00,2.2277
2807.00,2.2349
2806.00,2.2415
2805.00,2.2475
2804.00,2.2531
2803.00,2.2588
2802.00,2.2647
2801.00,2.2711
2800.00,2.2774
2799.00,2.2832
2798.00,2.2884
2797.00,2.2931
2796.00,2.2976
2795.00,2.3019
2794.00,2.3062
2793.00,2.3106
2792.00,2.3149
2791.00,2.3190
2790.00,2.3231
2789.00,2.3272
2788.00,2.3309
2787.00,2.3337
2786.00,2.3358
2785.00,2.3381
2784.00,2.3411
2783.00,2.3446
2782.00,2.3481
2781.00,2.3512
2780.00,2.3537
2779.00,2.3557
2778.00,2.3578
2777.00,2.3607
2776.00,2.3643
2775.00,2.3680
2774.00,2.3707
2773.00,2.3729
2772.00,2.3751
2771.00,2.3779
2770.00,2.3809
2769.00,2.3835
2768.00,2.3852
2767.00,2.3862
2766.00,2.3871
2765.00,2.3878
2764.00,2.3884
2763.00,2.3886
2762.00,2.3886
2761.00,2.3888
2760.00,2.3899
2759.00,2.3916
2758.00,2.3938
2757.00,2.3957
2756.00,2.3968
2755.00,2.3967
2754.00,2.3961
2753.00,2.3956
2752.00,2.3958
2751.00,2.3962
2750.00,2.3964
2749.00,2.3963
2748.00,2.3959
2747.00,2.3953
2746.00,2.3947
2745.00,2.3942
2744.00,2.3941
2743.00,2.3940
2742.00,2.3936
2741.00,2.3932
2740.00,2.3928
2739.00,2.3924
2738.00,2.3919
2737.00,2.3912
2736.00,2.3904
2735.00,2.3896
2734.00,2.3885
2733.00,2.3871
2732.00,2.3856
2731.00,2.3843
2730.00,2.3831
2729.00,2.3817
2728.00,2.3799
2727.00,2.3779
2726.00,2.3758
2725.00,2.3738
2724.00,2.3717
2723.00,2.3693
2722.00,2.3665
2721.00,2.3637
2720.00,2.3614
2719.00,2.3595
2718.00,2.3576
2717.00,2.3552
2716.00,2.3522
2715.00,2.3487
2714.00,2.3453
2713.00,2.3423
2712.00,2.3398
2711.00,2.3373
2710.00,2.3344
2709.00,2.3311
2708.00,2.3277
2707.00,2.3244
2706.00,2.3211
2705.00,2.3176
2704.00,2.3135
2703.00,2.3088
2702.00,2.3039
2701.00,2.2994
2700.00,2.2953
2699.00,2.2914
2698.00,2.2871
2697.00,2.2825
2696.00,2.2776
2695.00,2.2726
2694.00,2.2676
2693.00,2.2627
2692.00,2.2578
2691.00,2.2527
2690.00,2.2472
2689.00,2.2415
2688.00,2.2357
2687.00,2.2300
2686.00,2.2243
2685.00,2.2186
2684.00,2.2129
2683.00,2.2074
2682.00,2.2021
2681.00,2.1970
2680.00,2.1919
2679.00,2.1867
2678.00,2.1816
2677.00,2.1768
2676.00,2.1719
2675.00,2.1667
2674.00,2.1612
2673.00,2.1558
2672.00,2.1507
2671.00,2.1457
2670.00,2.1404
2669.00,2.1347
2668.00,2.1286
2667.00,2.1221
2666.00,2.1150
2665.00,2.1072
2664.00,2.0990
2663.00,2.0906
2662.00,2.0820
2661.00,2.0730
2660.00,2.0634
2659.00,2.0533
2658.00,2.0429
2657.00,2.0328
2656.00,2.0229
2655.00,2.0129
2654.00,2.0026
2653.00,1.9921
2652.00,1.9815
2651.00,1.9710
2650.00,1.9606
2649.00,1.9502
2648.00,1.9398
2647.00,1.9291
2646.00,1.9177
2645.00,1.9059
2644.00,1.8936
2643.00,1.8808
2642.00,1.8676
2641.00,1.8539
2640.00,1.8400
2639.00,1.8258
2638.00,1.8114
2637.00,1.7965
2636.00,1.7812
2635.00,1.7655
2634.00,1.7494
2633.00,1.7329
2632.00,1.7163
2631.00,1.6994
2630.00,1.6823
2629.00,1.6650
2628.00,1.6473
2627.00,1.6295
2626.00,1.6116
2625.00,1.5936
2624.00,1.5757
2623.00,1.5577
2622.00,1.5398
2621.00,1.5217
2620.00,1.5036
2619.00,1.4855
2618.00,1.4676
2617.00,1.4498
2616.00,1.4323
2615.00,1.4149
2614.00,1.3975
2613.00,1.3802
2612.00,1.3630
2611.00,1.3459
2610.00,1.3289
2609.00,1.3118
2608.00,1.2945
2607.00,1.2769
2606.00,1.2592
2605.00,1.2414
2604.00,1.2238
2603.00,1.2066
2602.00,1.1898
2601.00,1.1738
2600.00,1.1586
2599.00,1.1445
2598.00,1.1314
2597.00,1.1196
2596.00,1.1093
2595.00,1.1005
2594.00,1.0933
2593.00,1.0879
2592.00,1.0840
2591.00,1.0818
2590.00,1.0812
2589.00,1.0821
2588.00,1.0844
2587.00,1.0880
2586.00,1.0929
2585.00,1.0990
2584.00,1.1062
2583.00,1.1145
2582.00,1.1237
2581.00,1.1339
2580.00,1.1451
2579.00,1.1571
2578.00,1.1699
2577.00,1.1833
2576.00,1.1974
2575.00,1.2120
2574.00,1.2270
2573.00,1.2423
2572.00,1.2579
2571.00,1.2737
2570.00,1.2897
2569.00,1.3057
2568.00,1.3219
2567.00,1.3381
2566.00,1.3543
2565.00,1.3705
2564.00,1.3867
2563.00,1.4030
2562.00,1.4194
2561.00,1.4358
2560.00,1.4523
2559.00,1.4688
2558.00,1.4854
2557.00,1.5021
2556.00,1.5188
2555.00,1.5357
2554.00,1.5525
2553.00,1.5694
2552.00,1.5864
2551.00,1.6034
2550.00,1.6204
2549.00,1.6372
2548.00,1.6540
2547.00,1.6708
2546.00,1.6876
2545.00,1.7042
2544.00,1.7207
2543.00,1.7369
2542.00,1.7529
2541.00,1.7690
2540.00,1.7852
2539.00,1.8012
2538.00,1.8169
2537.00,1.8324
2536.00,1.8477
2535.00,1.8628
2534.00,1.8776
2533.00,1.8921
2532.00,1.9064
2531.00,1.9206
2530.00,1.9347
2529.00,1.9488
2528.00,1.9626
2527.00,1.9759
2526.00,1.9886
2525.00,2.0014
2524.00,2.0142
2523.00,2.0269
2522.00,2.0392
2521.00,2.0511
2520.00,2.0629
2519.00,2.0746
2518.00,2.0861
2517.00,2.0973
2516.00,2.1084
2515.00,2.1195
2514.00,2.1307
2513.00,2.1417
2512.00,2.1524
2511.00,2.1626
2510.00,2.1726
2509.00,2.1826
2508.00,2.1927
2507.00,2.2027
2506.00,2.2121
2505.00,2.2210
2504.00,2.2298
2503.00,2.2389
2502.00,2.2482
2501.00,2.2575
2500.00,2.2664
2499.00,2.2751
2498.00,2.2836
2497.00,2.2924
2496.00,2.3013
2495.00,2.3099
2494.00,2.3180
2493.00,2.3258
2492.00,2.3332
2491.00,2.3401
2490.00,2.3466
2489.00,2.3532
2488.00,2.3600
2487.00,2.3668
2486.00,2.3732
2485.00,2.3791
2484.00,2.3846
2483.00,2.3901
2482.00,2.3961
2481.00,2.4028
2480.00,2.4098
2479.00,2.4163
2478.00,2.4217
2477.00,2.4264
2476.00,2.4314
2475.00,2.4372
2474.00,2.4434
2473.00,2.4490
2472.00,2.4539
2471.00,2.4587
2470.00,2.4643
2469.00,2.4706
2468.00,2.4763
2467.00,2.4806
2466.00,2.4837
2465.00,2.4870
2464.00,2.4916
2463.00,2.4972
2462.00,2.5029
2461.00,2.5078
2460.00,2.5118
2459.00,2.5153
2458.00,2.5191
2457.00,2.5232
2456.00,2.5274
2455.00,2.5311
2454.00,2.5338
2453.00,2.5361
2452.00,2.5386
2451.00,2.5417
2450.00,2.5456
2449.00,2.5498
2448.00,2.5535
2447.00,2.5560
2446.00,2.5579
2445.00,2.5604
2444.00,2.5640
2443.00,2.5683
2442.00,2.5728
2441.00,2.5769
2440.00,2.5806
2439.00,2.5834
2438.00,2.5855
2437.00,2.5872
2436.00,2.5891
2435.00,2.5911
2434.00,2.5935
2433.00,2.5963
2432.00,2.5992
2431.00,2.6015
2430.00,2.6029
2429.00,2.6039
2428.00,2.6053
2427.00,2.6072
2426.00,2.6091
2425.00,2.6104
2424.00,2.6113
2423.00,2.6123
2422.00,2.6137
2421.00,2.6159
2420.00,2.6183
2419.00,2.6201
2418.00,2.6211
2417.00,2.6219
2416.00,2.6228
2415.00,2.6240
2414.00,2.6256
2413.00,2.6274
2412.00,2.6289
2411.00,2.6297
2410.00,2.6296
2409.00,2.6295
2408.00,2.6300
2407.00,2.6310
2406.00,2.6318
2405.00,2.6322
2404.00,2.6324
2403.00,2.6327
2402.00,2.6334
2401.00,2.6344
2400.00,2.6351
2399.00,2.6350
2398.00,2.6346
2397.00,2.6345
2396.00,2.6351
2395.00,2.6359
2394.00,2.6364
2393.00,2.6362
2392.00,2.6353
2391.00,2.6335
2390.00,2.6316
2389.00,2.6307
2388.00,2.6306
2387.00,2.6302
2386.00,2.6287
2385.00,2.6272
2384.00,2.6270
2383.00,2.6279
2382.00,2.6286
2381.00,2.6284
2380.00,2.6282
2379.00,2.6286
2378.00,2.6293
2377.00,2.6293
2376.00,2.6286
2375.00,2.6279
2374.00,2.6279
2373.00,2.6281
2372.00,2.6277
2371.00,2.6261
2370.00,2.6235
2369.00,2.6212
2368.00,2.6198
2367.00,2.6191
2366.00,2.6184
2365.00,2.6173
2364.00,2.6160
2363.00,2.6143
2362.00,2.6116
2361.00,2.6083
2360.00,2.6053
2359.00,2.6032
2358.00,2.6017
2357.00,2.5997
2356.00,2.5968
2355.00,2.5931
2354.00,2.5889
2353.00,2.5841
2352.00,2.5793
2351.00,2.5758
2350.00,2.5739
2349.00,2.5726
2348.00,2.5707
2347.00,2.5675
2346.00,2.5637
2345.00,2.5599
2344.00,2.5564
2343.00,2.5526
2342.00,2.5475
2341.00,2.5414
2340.00,2.5350
2339.00,2.5299
2338.00,2.5266
2337.00,2.5244
2336.00,2.5212
2335.00,2.5160
2334.00,2.5096
2333.00,2.5033
2332.00,2.4972
2331.00,2.4912
2330.00,2.4849
2329.00,2.4791
2328.00,2.4741
2327.00,2.4695
2326.00,2.4649
2325.00,2.4597
2324.00,2.4542
2323.00,2.4482
2322.00,2.4415
2321.00,2.4340
2320.00,2.4264
2319.00,2.4196
2318.00,2.4135
2317.00,2.4072
2316.00,2.3997
2315.00,2.3912
2314.00,2.3825
2313.00,2.3743
2312.00,2.3662
2311.00,2.3577
2310.00,2.3487
2309.00,2.3398
2308.00,2.3312
2307.00,2.3227
2306.00,2.3144
2305.00,2.3060
2304.00,2.2977
2303.00,2.2890
2302.00,2.2801
2301.00,2.2710
2300.00,2.2619
2299.00,2.2527
2298.00,2.2432
2297.00,2.2336
2296.00,2.2237
2295.00,2.2134
2294.00,2.2027
2293.00,2.1916
2292.00,2.1803
2291.00,2.1691
2290.00,2.1579
2289.00,2.1467
2288.00,2.1354
2287.00,2.1235
2286.00,2.1112
2285.00,2.0985
2284.00,2.0855
2283.00,2.0724
2282.00,2.0588
2281.00,2.0447
2280.00,2.0302
2279.00,2.0152
2278.00,2.0001
2277.00,1.9850
2276.00,1.9699
2275.00,1.9546
2274.00,1.9388
2273.00,1.9226
2272.00,1.9061
2271.00,1.8892
2270.00,1.8720
2269.00,1.8544
2268.00,1.8364
2267.00,1.8179
2266.00,1.7989
2265.00,1.7794
2264.00,1.7596
2263.00,1.7394
2262.00,1.7189
2261.00,1.6981
2260.00,1.6770
2259.00,1.6558
2258.00,1.6345
2257.00,1.6131
2256.00,1.5917
2255.00,1.5701
2254.00,1.5483
2253.00,1.5263
2252.00,1.5042
2251.00,1.4822
2250.00,1.4605
2249.00,1.4393
2248.00,1.4188
2247.00,1.3989
2246.00,1.3797
2245.00,1.3612
2244.00,1.3434
2243.00,1.3264
2242.00,1.3103
2241.00,1.2954
2240.00,1.2818
2239.00,1.2696
2238.00,1.2587
2237.00,1.2493
2236.00,1.2413
2235.00,1.2349
2234.00,1.2302
2233.00,1.2271
2232.00,1.2257
2231.00,1.2261
2230.00,1.2282
2229.00,1.2319
2228.00,1.2373
2227.00,1.2442
2226.00,1.2524
2225.00,1.2620
2224.00,1.2728
2223.00,1.2849
2222.00,1.2981
2221.00,1.3122
2220.00,1.3272
2219.00,1.3431
2218.00,1.3596
2217.00,1.3767
2216.00,1.3945
2215.00,1.4126
2214.00,1.4310
2213.00,1.4497
2212.00,1.4686
2211.00,1.4875
2210.00,1.5065
2209.00,1.5255
2208.00,1.5447
2207.00,1.5639
2206.00,1.5833
2205.00,1.6029
2204.00,1.6225
2203.00,1.6419
2202.00,1.6610
2201.00,1.6800
2200.00,1.6990
2199.00,1.7179
2198.00,1.7370
2197.00,1.7561
2196.00,1.7754
2195.00,1.7948
2194.00,1.8141
2193.00,1.8333
2192.00,1.8524
2191.00,1.8715
2190.00,1.8905
2189.00,1.9093
2188.00,1.9279
2187.00,1.9464
2186.00,1.9647
2185.00,1.9829
2184.00,2.0009
2183.00,2.0185
2182.00,2.0359
2181.00,2.0530
2180.00,2.0700
2179.00,2.0865
2178.00,2.1024
2177.00,2.1176
2176.00,2.1321
2175.00,2.1462
2174.00,2.1600
2173.00,2.1735
2172.00,2.1867
2171.00,2.2000
2170.00,2.2133
2169.00,2.2265
2168.00,2.2393
2167.00,2.2517
2166.00,2.2639
2165.00,2.2763
2164.00,2.2889
2163.00,2.3013
2162.00,2.3136
2161.00,2.3259
2160.00,2.3381
2159.00,2.3501
2158.00,2.3620
2157.00,2.3740
2156.00,2.3863
2155.00,2.3979
2154.00,2.4085
2153.00,2.4180
2152.00,2.4272
2151.00,2.4365
2150.00,2.4463
2149.00,2.4563
2148.00,2.4664
2147.00,2.4763
2146.00,2.4857
2145.00,2.4943
2144.00,2.5025
2143.00,2.5109
2142.00,2.5199
2141.00,2.5293
2140.00,2.5383
2139.00,2.5463
2138.00,2.5535
2137.00,2.5607
2136.00,2.5681
2135.00,2.5753
2134.00,2.5826
2133.00,2.5903
2132.00,2.5984
2131.00,2.6063
2130.00,2.6133
2129.00,2.6198
2128.00,2.6262
2127.00,2.6329
2126.00,2.6396
2125.00,2.6462
2124.00,2.6524
2123.00,2.6578
2122.00,2.6625
2121.00,2.6670
2120.00,2.6723
2119.00,2.6785
2118.00,2.6847
2117.00,2.6903
2116.00,2.6954
2115.00,2.7004
2114.00,2.7061
2113.00,2.7126
2112.00,2.7191
2111.00,2.7249
2110.00,2.7296
2109.00,2.7335
2108.00,2.7371
2107.00,2.7406
2106.00,2.7445
2105.00,2.7490
2104.00,2.7542
2103.00,2.7599
2102.00,2.7657
2101.00,2.7707
2100.00,2.7745
2099.00,2.7773
2098.00,2.7800
2097.00,2.7841
2096.00,2.7897
2095.00,2.7955
2094.00,2.8001
2093.00,2.8028
2092.00,2.8041
2091.00,2.8047
2090.00,2.8059
2089.00,2.8086
2088.00,2.8127
2087.00,2.8175
2086.00,2.8227
2085.00,2.8280
2084.00,2.8332
2083.00,2.8373
2082.00,2.8399
2081.00,2.8417
2080.00,2.8436
2079.00,2.8455
2078.00,2.8461
2077.00,2.8452
2076.00,2.8441
2075.00,2.8442
2074.00,2.8455
2073.00,2.8466
2072.00,2.8471
2071.00,2.8488
2070.00,2.8533
2069.00,2.8596
2068.00,2.8646
2067.00,2.8670
2066.00,2.8683
2065.00,2.8713
2064.00,2.8757
2063.00,2.8796
2062.00,2.8819
2061.00,2.8831
2060.00,2.8843
2059.00,2.8858
2058.00,2.8873
2057.00,2.8888
2056.00,2.8900
2055.00,2.8903
2054.00,2.8898
2053.00,2.8892
2052.00,2.8894
2051.00,2.8904
2050.00,2.8917
2049.00,2.8928
2048.00,2.8934
2047.00,2.8934
2046.00,2.8930
2045.00,2.8931
2044.00,2.8933
2043.00,2.8929
2042.00,2.8914
2041.00,2.8899
2040.00,2.8894
2039.00,2.8906
2038.00,2.8927
2037.00,2.8950
2036.00,2.8960
2035.00,2.8953
2034.00,2.8940
2033.00,2.8940
2032.00,2.8959
2031.00,2.8986
2030.00,2.9009
2029.00,2.9019
2028.00,2.9011
2027.00,2.8977
2026.00,2.8923
2025.00,2.8874
2024.00,2.8849
2023.00,2.8843
2022.00,2.8838
2021.00,2.8820
2020.00,2.8787
2019.00,2.8745
2018.00,2.8709
2017.00,2.8694
2016.00,2.8707
2015.00,2.8732
2014.00,2.8743
2013.00,2.8726
2012.00,2.8684
2011.00,2.8632
2010.00,2.8587
2009.00,2.8565
2008.00,2.8570
2007.00,2.8588
2006.00,2.8599
2005.00,2.8594
2004.00,2.8574
2003.00,2.8542
2002.00,2.8498
2001.00,2.8448
2000.00,2.8404
1999.00,2.8375
1998.00,2.8361
1997.00,2.8348
1996.00,2.8316
1995.00,2.8251
1994.00,2.8163
1993.00,2.8086
1992.00,2.8045
1991.00,2.8033
1990.00,2.8026
1989.00,2.8014
1988.00,2.8007
1987.00,2.8006
1986.00,2.7998
1985.00,2.7970
1984.00,2.7928
1983.00,2.7889
1982.00,2.7862
1981.00,2.7840
1980.00,2.7812
1979.00,2.7766
1978.00,2.7703
1977.00,2.7638
1976.00,2.7581
1975.00,2.7530
1974.00,2.7473
1973.00,2.7408
1972.00,2.7339
1971.00,2.7270
1970.00,2.7197
1969.00,2.7117
1968.00,2.7040
1967.00,2.6979
1966.00,2.6938
1965.00,2.6906
1964.00,2.6868
1963.00,2.6814
1962.00,2.6745
1961.00,2.6670
1960.00,2.6598
1959.00,2.6531
1958.00,2.6463
1957.00,2.6391
1956.00,2.6315
1955.00,2.6237
1954.00,2.6161
1953.00,2.6090
1952.00,2.6021
1951.00,2.5943
1950.00,2.5853
1949.00,2.5755
1948.00,2.5656
1947.00,2.5556
1946.00,2.5443
1945.00,2.5312
1944.00,2.5171
1943.00,2.5043
1942.00,2.4947
1941.00,2.4883
1940.00,2.4831
1939.00,2.4763
1938.00,2.4670
1937.00,2.4560
1936.00,2.4444
1935.00,2.4320
1934.00,2.4188
1933.00,2.4053
1932.00,2.3922
1931.00,2.3794
1930.00,2.3659
1929.00,2.3516
1928.00,2.3369
1927.00,2.3216
1926.00,2.3045
1925.00,2.2845
1924.00,2.2632
1923.00,2.2429
1922.00,2.2250
1921.00,2.2084
1920.00,2.1911
1919.00,2.1724
1918.00,2.1535
1917.00,2.1365
1916.00,2.1215
1915.00,2.1068
1914.00,2.0901
1913.00,2.0703
1912.00,2.0477
1911.00,2.0235
1910.00,1.9990
1909.00,1.9755
1908.00,1.9535
1907.00,1.9324
1906.00,1.9104
1905.00,1.8869
1904.00,1.8620
1903.00,1.8360
1902.00,1.8095
1901.00,1.7830
1900.00,1.7562
1899.00,1.7287
1898.00,1.7001
1897.00,1.6707
1896.00,1.6419
1895.00,1.6147
1894.00,1.5892
1893.00,1.5645
1892.00,1.5392
1891.00,1.5137
1890.00,1.4903
1889.00,1.4720
1888.00,1.4595
1887.00,1.4508
1886.00,1.4439
1885.00,1.4384
1884.00,1.4349
1883.00,1.4339
1882.00,1.4352
1881.00,1.4387
1880.00,1.4448
1879.00,1.4535
1878.00,1.4648
1877.00,1.4784
1876.00,1.4937
1875.00,1.5101
1874.00,1.5255
1873.00,1.5403
1872.00,1.5499
1871.00,1.5621
1870.00,1.5663
1869.00,1.5985
1868.00,1.6405
1867.00,1.6519
1866.00,1.6745
1865.00,1.6917
1864.00,1.7138
1863.00,1.7339
1862.00,1.7572
1861.00,1.7770
1860.00,1.7968
1859.00,1.8228
1858.00,1.8479
1857.00,1.8748
1856.00,1.9015
1855.00,1.9285
1854.00,1.9550
1853.00,1.9815
1852.00,2.0068
1851.00,2.0301
1850.00,2.0511
1849.00,2.0707
1848.00,2.0897
1847.00,2.1087
1846.00,2.1288
1845.00,2.1517
1844.00,2.1788
1843.00,2.2096
1842.00,2.2417
1841.00,2.2725
1840.00,2.2998
1839.00,2.3231
1838.00,2.3436
1837.00,2.3639
1836.00,2.3849
1835.00,2.4054
1834.00,2.4237
1833.00,2.4395
1832.00,2.4535
1831.00,2.4673
1830.00,2.4830
1829.00,2.5004
1828.00,2.5171
1827.00,2.5313
1826.00,2.5449
1825.00,2.5619
1824.00,2.5840
1823.00,2.6084
1822.00,2.6311
1821.00,2.6499
1820.00,2.6647
1819.00,2.6768
1818.00,2.6885
1817.00,2.7023
1816.00,2.7181
1815.00,2.7332
1814.00,2.7454
1813.00,2.7550
1812.00,2.7633
1811.00,2.7721
1810.00,2.7819
1809.00,2.7928
1808.00,2.8041
1807.00,2.8149
1806.00,2.8239
1805.00,2.8294
1804.00,2.8298
1803.00,2.8264
1802.00,2.8248
1801.00,2.8303
1800.00,2.8432
1799.00,2.8590
1798.00,2.8739
1797.00,2.8868
1796.00,2.8987
1795.00,2.9087
1794.00,2.9149
1793.00,2.9164
1792.00,2.9170
1791.00,2.9235
1790.00,2.9390
1789.00,2.9594
1788.00,2.9769
1787.00,2.9873
1786.00,2.9926
1785.00,2.9977
1784.00,3.0040
1783.00,3.0098
1782.00,3.0141
1781.00,3.0186
1780.00,3.0255
1779.00,3.0354
1778.00,3.0464
1777.00,3.0560
1776.00,3.0628
1775.00,3.0680
1774.00,3.0739
1773.00,3.0804
1772.00,3.0842
1771.00,3.0836
1770.00,3.0824
1769.00,3.0857
1768.00,3.0960
1767.00,3.1111
1766.00,3.1263
1765.00,3.1369
1764.00,3.1402
1763.00,3.1374
1762.00,3.1337
1761.00,3.1345
1760.00,3.1400
1759.00,3.1463
1758.00,3.1503
1757.00,3.1518
1756.00,3.1517
1755.00,3.1509
1754.00,3.1487
1753.00,3.1433
1752.00,3.1337
1751.00,3.1230
1750.00,3.1163
1749.00,3.1153
1748.00,3.1175
1747.00,3.1198
1746.00,3.1219
1745.00,3.1229
1744.00,3.1217
1743.00,3.1179
1742.00,3.1124
1741.00,3.1056
1740.00,3.0954
1739.00,3.0796
1738.00,3.0590
1737.00,3.0345
1736.00,3.0046
1735.00,2.9691
1734.00,2.9351
1733.00,2.9147
1732.00,2.9163
1731.00,2.9437
1730.00,3.0014
1729.00,3.0934
1728.00,3.2179
1727.00,3.3687
1726.00,3.5399
1725.00,3.7264
1724.00,3.9093
1723.00,4.0628
1722.00,4.2001
1721.00,4.3996
1720.00,4.7568
1719.00,4.7622
1718.00,4.4963
1717.00,4.4285
1716.00,4.4748
1715.00,4.6288
1714.00,4.9402
1713.00,5.6086
1712.00,5.5997
1711.00,5.2750
1710.00,5.3975
1709.00,5.1868
1708.00,4.9471
1707.00,4.8409
1706.00,4.8630
1705.00,4.8878
1704.00,4.5565
1703.00,4.2595
1702.00,4.0562
1701.00,3.8458
1700.00,3.6222
1699.00,3.4273
1698.00,3.2712
1697.00,3.1305
1696.00,2.9847
1695.00,2.8401
1694.00,2.7149
1693.00,2.6158
1692.00,2.5391
1691.00,2.4813
1690.00,2.4437
1689.00,2.4297
1688.00,2.4385
1687.00,2.4640
1686.00,2.4988
1685.00,2.5406
1684.00,2.5908
1683.00,2.6472
1682.00,2.7031
1681.00,2.7548
1680.00,2.8016
1679.00,2.8410
1678.00,2.8710
1677.00,2.8933
1676.00,2.9118
1675.00,2.9290
1674.00,2.9441
1673.00,2.9555
1672.00,2.9638
1671.00,2.9717
1670.00,2.9830
1669.00,3.0001
1668.00,3.0197
1667.00,3.0359
1666.00,3.0461
1665.00,3.0527
1664.00,3.0596
1663.00,3.0686
1662.00,3.0813
1661.00,3.0953
1660.00,3.1105
1659.00,3.1196
1658.00,3.1313
1657.00,3.1462
1656.00,3.1516
1655.00,3.1571
1654.00,3.1589
1653.00,3.1620
1652.00,3.1667
1651.00,3.1723
1650.00,3.1772
1649.00,3.1820
1648.00,3.1877
1647.00,3.1937
1646.00,3.2006
1645.00,3.2059
1644.00,3.2129
1643.00,3.2127
1642.00,3.2109
1641.00,3.2169
1640.00,3.2145
1639.00,3.2074
1638.00,3.1975
1637.00,3.1932
1636.00,3.1976
1635.00,3.2080
1634.00,3.2179
1633.00,3.2240
1632.00,3.2266
1631.00,3.2265
1630.00,3.2257
1629.00,3.2256
1628.00,3.2257
1627.00,3.2239
1626.00,3.2208
1625.00,3.2193
1624.00,3.2205
1623.00,3.2217
1622.00,3.2198
1621.00,3.2151
1620.00,3.2108
1619.00,3.2095
1618.00,3.2113
1617.00,3.2139
1616.00,3.2154
1615.00,3.2170
1614.00,3.2206
1613.00,3.2247
1612.00,3.2250
1611.00,3.2191
1610.00,3.2105
1609.00,3.2039
1608.00,3.2000
1607.00,3.1974
1606.00,3.1960
1605.00,3.1961
1604.00,3.1972
1603.00,3.1989
1602.00,3.2012
1601.00,3.2040
1600.00,3.2051
1599.00,3.2024
1598.00,3.1959
1597.00,3.1875
1596.00,3.1784
1595.00,3.1689
1594.00,3.1606
1593.00,3.1551
1592.00,3.1529
1591.00,3.1524
1590.00,3.1520
1589.00,3.1507
1588.00,3.1479
1587.00,3.1439
1586.00,3.1409
1585.00,3.1414
1584.00,3.1446
1583.00,3.1470
1582.00,3.1451
1581.00,3.1368
1580.00,3.1239
1579.00,3.1109
1578.00,3.1026
1577.00,3.0998
1576.00,3.0985
1575.00,3.0948
1574.00,3.0903
1573.00,3.0882
1572.00,3.0875
1571.00,3.0836
1570.00,3.0742
1569.00,3.0619
1568.00,3.0504
1567.00,3.0407
1566.00,3.0319
1565.00,3.0230
1564.00,3.0127
1563.00,3.0007
1562.00,2.9841
1561.00,2.9648
1560.00,2.9370
1559.00,2.9226
1558.00,2.9063
1557.00,2.9315
1556.00,2.9718
1555.00,2.9491
1554.00,2.9417
1553.00,2.9261
1552.00,2.9173
1551.00,2.9076
1550.00,2.8996
1549.00,2.8913
1548.00,2.8830
1547.00,2.8738
1546.00,2.8628
1545.00,2.8503
1544.00,2.8368
1543.00,2.8240
1542.00,2.8094
1541.00,2.7974
1540.00,2.7787
1539.00,2.7681
1538.00,2.7341
1537.00,2.6928
1536.00,2.6820
1535.00,2.6582
1534.00,2.6359
1533.00,2.6136
1532.00,2.5996
1531.00,2.5893
1530.00,2.5759
1529.00,2.5548
1528.00,2.5282
1527.00,2.5030
1526.00,2.4849
1525.00,2.4740
1524.00,2.4659
1523.00,2.4562
1522.00,2.4440
1521.00,2.4336
1520.00,2.4250
1519.00,2.4184
1518.00,2.4010
1517.00,2.3870
1516.00,2.3563
1515.00,2.3649
1514.00,2.3950
1513.00,2.3484
1512.00,2.3326
1511.00,2.2844
1510.00,2.2839
1509.00,2.1857
1508.00,2.0618
1507.00,2.0567
1506.00,2.0457
1505.00,2.0504
1504.00,2.0401
1503.00,2.0256
1502.00,2.0041
1501.00,1.9795
1500.00,1.9526
1499.00,1.9261
1498.00,1.9029
1497.00,1.8861
1496.00,1.8775
1495.00,1.8752
1494.00,1.8752
1493.00,1.8743
1492.00,1.8718
1491.00,1.8718
1490.00,1.8833
1489.00,1.9120
1488.00,1.9523
1487.00,1.9919
1486.00,2.0227
1485.00,2.0449
1484.00,2.0622
1483.00,2.0787
1482.00,2.0977
1481.00,2.1211
1480.00,2.1464
1479.00,2.1684
1478.00,2.1843
1477.00,2.1974
1476.00,2.2140
1475.00,2.2380
1474.00,2.2710
1473.00,2.3152
1472.00,2.3726
1471.00,2.4378
1470.00,2.5005
1469.00,2.5539
1468.00,2.5973
1467.00,2.6337
1466.00,2.6678
1465.00,2.7028
1464.00,2.7371
1463.00,2.7655
1462.00,2.7845
1461.00,2.7946
1460.00,2.7988
1459.00,2.8029
1458.00,2.8188
1457.00,2.8640
1456.00,2.9443
1455.00,3.0425
1454.00,3.1377
1453.00,3.2192
1452.00,3.2787
1451.00,3.3062
1450.00,3.2959
1449.00,3.2474
1448.00,3.1644
1447.00,3.0596
1446.00,2.9518
1445.00,2.8549
1444.00,2.7768
1443.00,2.7221
1442.00,2.6920
1441.00,2.6827
1440.00,2.6865
1439.00,2.6971
1438.00,2.7158
1437.00,2.7520
1436.00,2.8126
1435.00,2.8867
1434.00,2.9539
1433.00,3.0027
1432.00,3.0315
1431.00,3.0438
1430.00,3.0459
1429.00,3.0443
1428.00,3.0414
1427.00,3.0350
1426.00,3.0241
1425.00,3.0118
1424.00,3.0031
1423.00,2.9985
1422.00,2.9898
1421.00,2.9642
1420.00,2.9155
1419.00,2.8552
1418.00,2.8050
1417.00,2.7751
1416.00,2.7601
1415.00,2.7516
1414.00,2.7446
1413.00,2.7388
1412.00,2.7369
1411.00,2.7419
1410.00,2.7543
1409.00,2.7712
1408.00,2.7877
1407.00,2.8019
1406.00,2.8166
1405.00,2.8373
1404.00,2.8648
1403.00,2.8928
1402.00,2.9133
1401.00,2.9246
1400.00,2.9315
1399.00,2.9407
1398.00,2.9535
1397.00,2.9665
1396.00,2.9784
1395.00,2.9943
1394.00,3.0206
1393.00,3.0562
1392.00,3.0923
1391.00,3.1187
1390.00,3.1308
1389.00,3.1326
1388.00,3.1348
1387.00,3.1470
1386.00,3.1687
1385.00,3.1906
1384.00,3.2066
1383.00,3.2194
1382.00,3.2337
1381.00,3.2489
1380.00,3.2603
1379.00,3.2663
1378.00,3.2703
1377.00,3.2750
1376.00,3.2794
1375.00,3.2845
1374.00,3.2965
1373.00,3.3181
1372.00,3.3425
1371.00,3.3592
1370.00,3.3660
1369.00,3.3692
1368.00,3.3750
1367.00,3.3851
1366.00,3.3975
1365.00,3.4087
1364.00,3.4161
1363.00,3.4201
1362.00,3.4248
1361.00,3.4344
1360.00,3.4486
1359.00,3.4657
1358.00,3.4848
1357.00,3.5033
1356.00,3.5174
1355.00,3.5251
1354.00,3.5316
1353.00,3.5444
1352.00,3.5651
1351.00,3.5890
1350.00,3.6125
1349.00,3.6359
1348.00,3.6567
1347.00,3.6654
1346.00,3.6553
1345.00,3.6330
1344.00,3.6112
1343.00,3.5955
1342.00,3.5839
1341.00,3.5738
1340.00,3.5661
1339.00,3.5616
1338.00,3.5573
1337.00,3.5490
1336.00,3.5385
1335.00,3.5327
1334.00,3.5355
1333.00,3.5430
1332.00,3.5475
1331.00,3.5462
1330.00,3.5433
1329.00,3.5445
1328.00,3.5519
1327.00,3.5644
1326.00,3.5808
1325.00,3.5999
1324.00,3.6192
1323.00,3.6367
1322.00,3.6532
1321.00,3.6671
1320.00,3.6715
1319.00,3.6647
1318.00,3.6579
1317.00,3.6663
1316.00,3.6954
1315.00,3.7384
1314.00,3.7835
1313.00,3.8203
1312.00,3.8407
1311.00,3.8390
1310.00,3.8158
1309.00,3.7787
1308.00,3.7351
1307.00,3.6892
1306.00,3.6448
1305.00,3.6079
1304.00,3.5865
1303.00,3.5861
1302.00,3.6044
1301.00,3.6271
1300.00,3.6342
1299.00,3.6197
1298.00,3.5974
1297.00,3.5830
1296.00,3.5801
1295.00,3.5857
1294.00,3.5997
1293.00,3.6206
1292.00,3.6383
1291.00,3.6403
1290.00,3.6280
1289.00,3.6162
1288.00,3.6156
1287.00,3.6222
1286.00,3.6240
1285.00,3.6155
1284.00,3.6037
1283.00,3.5988
1282.00,3.6068
1281.00,3.6272
1280.00,3.6551
1279.00,3.6842
1278.00,3.7089
1277.00,3.7238
1276.00,3.7267
1275.00,3.7207
1274.00,3.7114
1273.00,3.7015
1272.00,3.6886
1271.00,3.6716
1270.00,3.6542
1269.00,3.6399
1268.00,3.6313
1267.00,3.6318
1266.00,3.6432
1265.00,3.6618
1264.00,3.6778
1263.00,3.6821
1262.00,3.6723
1261.00,3.6544
1260.00,3.6383
1259.00,3.6304
1258.00,3.6340
1257.00,3.6444
1256.00,3.6518
1255.00,3.6541
1254.00,3.6596
1253.00,3.6719
1252.00,3.6798
1251.00,3.6668
1250.00,3.6385
1249.00,3.6212
1248.00,3.6322
1247.00,3.6671
1246.00,3.7014
1245.00,3.7056
1244.00,3.6792
1243.00,3.6491
1242.00,3.6343
1241.00,3.6328
1240.00,3.6291
1239.00,3.6123
1238.00,3.5909
1237.00,3.5824
1236.00,3.5938
1235.00,3.6153
1234.00,3.6300
1233.00,3.6289
1232.00,3.6150
1231.00,3.5959
1230.00,3.5821
1229.00,3.5838
1228.00,3.6058
1227.00,3.6464
1226.00,3.7055
1225.00,3.7918
1224.00,3.9163
1223.00,4.0696
1222.00,4.1918
1221.00,4.2015
1220.00,4.1188
1219.00,4.0199
1218.00,3.9371
1217.00,3.8801
1216.00,3.8519
1215.00,3.8334
1214.00,3.7966
1213.00,3.7465
1212.00,3.7153
1211.00,3.7267
1210.00,3.7783
1209.00,3.8386
1208.00,3.8699
1207.00,3.8698
1206.00,3.8571
1205.00,3.8307
1204.00,3.7816
1203.00,3.7209
1202.00,3.6705
1201.00,3.6455
1200.00,3.6513
1199.00,3.6843
1198.00,3.7246
1197.00,3.7361
1196.00,3.6987
1195.00,3.6362
1194.00,3.5833
1193.00,3.5524
1192.00,3.5374
1191.00,3.5329
1190.00,3.5434
1189.00,3.5730
1188.00,3.6092
1187.00,3.6267
1186.00,3.6193
1185.00,3.6071
1184.00,3.6036
1183.00,3.6017
1182.00,3.5867
1181.00,3.5606
1180.00,3.5420
1179.00,3.5404
1178.00,3.5438
1177.00,3.5332
1176.00,3.5059
1175.00,3.4748
1174.00,3.4510
1173.00,3.4353
1172.00,3.4231
1171.00,3.4108
1170.00,3.3973
1169.00,3.3826
1168.00,3.3682
1167.00,3.3576
1166.00,3.3533
1165.00,3.3541
1164.00,3.3553
1163.00,3.3512
1162.00,3.3384
1161.00,3.3184
1160.00,3.2957
1159.00,3.2738
1158.00,3.2526
1157.00,3.2307
1156.00,3.2098
1155.00,3.1935
1154.00,3.1815
1153.00,3.1683
1152.00,3.1489
1151.00,3.1239
1150.00,3.0975
1149.00,3.0727
1148.00,3.0490
1147.00,3.0253
1146.00,3.0014
1145.00,2.9767
1144.00,2.9506
1143.00,2.9225
1142.00,2.8933
1141.00,2.8650
1140.00,2.8388
1139.00,2.8138
1138.00,2.7891
1137.00,2.7652
1136.00,2.7452
1135.00,2.7327
1134.00,2.7300
1133.00,2.7372
1132.00,2.7548
1131.00,2.7833
1130.00,2.8232
1129.00,2.8742
1128.00,2.9373
1127.00,3.0153
1126.00,3.1109
1125.00,3.2262
1124.00,3.3633
1123.00,3.5233
1122.00,3.6947
1121.00,3.8405
1120.00,3.9175
1119.00,3.9291
1118.00,3.9092
1117.00,3.8595
1116.00,3.7761
1115.00,3.6799
1114.00,3.5894
1113.00,3.5042
1112.00,3.4204
1111.00,3.3432
1110.00,3.2760
1109.00,3.2120
1108.00,3.1445
1107.00,3.0759
1106.00,3.0132
1105.00,2.9594
1104.00,2.9132
1103.00,2.8735
1102.00,2.8408
1101.00,2.8149
1100.00,2.7954
1099.00,2.7835
1098.00,2.7809
1097.00,2.7873
1096.00,2.8004
1095.00,2.8201
1094.00,2.8482
1093.00,2.8841
1092.00,2.9214
1091.00,2.9519
1090.00,2.9731
1089.00,2.9897
1088.00,3.0060
1087.00,3.0230
1086.00,3.0402
1085.00,3.0571
1084.00,3.0731
1083.00,3.0885
1082.00,3.1062
1081.00,3.1295
1080.00,3.1575
1079.00,3.1834
1078.00,3.2029
1077.00,3.2204
1076.00,3.2449
1075.00,3.2790
1074.00,3.3136
1073.00,3.3354
1072.00,3.3412
1071.00,3.3452
1070.00,3.3614
1069.00,3.3876
1068.00,3.4101
1067.00,3.4221
1066.00,3.4318
1065.00,3.4491
1064.00,3.4718
1063.00,3.4898
1062.00,3.4991
1061.00,3.5058
1060.00,3.5168
1059.00,3.5341
1058.00,3.5533
1057.00,3.5678
1056.00,3.5764
1055.00,3.5857
1054.00,3.5987
1053.00,3.6040
1052.00,3.5942
1051.00,3.5657
1050.00,3.5090
1049.00,3.4485
1048.00,3.4141
1047.00,3.4106
1046.00,3.4337
1045.00,3.4768
1044.00,3.5303
1043.00,3.5790
1042.00,3.6113
1041.00,3.6303
1040.00,3.6443
1039.00,3.6554
1038.00,3.6606
1037.00,3.6639
1036.00,3.6791
1035.00,3.7102
1034.00,3.7461
1033.00,3.7766
1032.00,3.8049
1031.00,3.8391
1030.00,3.8744
1029.00,3.8948
1028.00,3.9050
1027.00,3.9352
1026.00,4.0040
1025.00,4.0923
1024.00,4.1454
1023.00,4.1326
1022.00,4.0830
1021.00,4.0308
1020.00,3.9921
1019.00,3.9765
1018.00,3.9838
1017.00,4.0016
1016.00,4.0166
1015.00,4.0224
1014.00,4.0336
1013.00,4.0658
1012.00,4.0944
1011.00,4.1001
1010.00,4.1035
1009.00,4.1018
1008.00,4.0785
1007.00,4.0231
1006.00,3.9622
1005.00,3.9382
1004.00,3.9455
1003.00,3.9557
1002.00,3.9655
1001.00,3.9936
1000.00,4.0439
999.00,4.0805
998.00,4.0614
997.00,4.0082
996.00,3.9724
995.00,3.9735
994.00,4.0049
993.00,4.0540
992.00,4.1137
991.00,4.1966
990.00,4.2638
989.00,4.2149
988.00,4.1124
987.00,4.0566
986.00,4.0861
985.00,4.2152
984.00,4.4370
983.00,4.6919
982.00,4.8222
981.00,4.7956
980.00,4.6746
979.00,4.4800
978.00,4.2906
977.00,4.1658
976.00,4.1370
975.00,4.2086
974.00,4.3548
973.00,4.5009
972.00,4.6246
971.00,4.9045
970.00,4.7692
969.00,4.3889
968.00,4.2556
967.00,4.2419
966.00,4.3200
965.00,4.4815
964.00,4.5814
963.00,4.4693
962.00,4.3153
961.00,4.2736
960.00,4.3614
959.00,4.5478
958.00,4.8931
957.00,5.0327
956.00,4.5916
955.00,4.5335
954.00,4.8109
953.00,4.8121
952.00,4.5840
951.00,4.5431
950.00,4.5104
949.00,4.6147
948.00,4.9967
947.00,5.1335
946.00,4.9811
945.00,4.7061
944.00,4.5183
943.00,4.5063
942.00,4.6545
941.00,4.9447
940.00,5.1086
939.00,4.8090
938.00,4.6478
937.00,4.6083
936.00,4.5350
935.00,4.4579
934.00,4.4652
933.00,4.6356
932.00,4.6648
931.00,4.4280
930.00,4.4178
929.00,4.5863
928.00,4.6822
927.00,4.5785
926.00,4.4842
925.00,4.4264
924.00,4.3576
923.00,4.3304
922.00,4.3939
921.00,4.6508
920.00,4.6979
919.00,4.3012
918.00,4.1502
917.00,4.1202
916.00,4.1476
915.00,4.2195
914.00,4.2721
913.00,4.2194
912.00,4.1440
911.00,4.1309
910.00,4.1747
909.00,4.2552
908.00,4.4045
907.00,4.6631
906.00,4.6192
905.00,4.4243
904.00,4.3955
903.00,4.4949
902.00,4.6258
901.00,4.7315
900.00,4.7985
899.00,4.5569
898.00,4.3714
897.00,4.3205
896.00,4.3827
895.00,4.5255
894.00,4.5560
893.00,4.5173
892.00,4.5788
891.00,4.6302
890.00,4.5422
889.00,4.5132
888.00,4.5803
887.00,4.5335
886.00,4.4225
885.00,4.3919
884.00,4.3817
883.00,4.3728
882.00,4.4980
881.00,4.6216
880.00,4.3846
879.00,4.2654
878.00,4.2019
877.00,4.1068
876.00,4.0483
875.00,4.0645
874.00,4.1741
873.00,4.3709
872.00,4.5979
871.00,4.7449
870.00,4.7160
869.00,4.5652
868.00,4.4212
867.00,4.2860
866.00,4.1986
865.00,4.2258
864.00,4.4524
863.00,4.8279
862.00,4.6034
861.00,4.6257
860.00,4.9012
859.00,4.6855
858.00,4.5206
857.00,4.4715
856.00,4.5731
855.00,4.6233
854.00,4.3582
853.00,4.3097
852.00,4.5420
851.00,4.4132
850.00,4.0782
849.00,3.9755
848.00,4.0582
847.00,4.3937
846.00,4.7055
845.00,4.4390
844.00,4.5499
843.00,4.8143
842.00,4.6203
841.00,4.3787
840.00,4.2195
839.00,4.1214
838.00,4.0622
837.00,4.0416
836.00,4.0745
835.00,4.1501
834.00,4.2203
833.00,4.2505
832.00,4.2528
831.00,4.2750
830.00,4.3149
829.00,4.2526
828.00,4.1322
827.00,4.1205
826.00,4.2116
825.00,4.2750
824.00,4.2746
823.00,4.2456
822.00,4.2289
821.00,4.2374
820.00,4.2190
819.00,4.2100
818.00,4.2829
817.00,4.4303
816.00,4.4764
815.00,4.4033
814.00,4.3994
813.00,4.3888
812.00,4.2716
811.00,4.1346
810.00,4.0853
809.00,4.1487
808.00,4.2339
807.00,4.2379
806.00,4.1876
805.00,4.1526
804.00,4.2134
803.00,4.3700
802.00,4.5120
801.00,4.4730
800.00,4.2989
799.00,4.1419
798.00,4.0444
797.00,4.0277
796.00,4.1210
795.00,4.4032
794.00,4.8182
793.00,4.5622
792.00,4.5047
791.00,4.6967
790.00,5.0689
789.00,4.5917
788.00,4.2551
787.00,4.0616
786.00,3.9665
785.00,3.9645
784.00,4.0266
783.00,4.1272
782.00,4.2471
781.00,4.3050
780.00,4.2965
779.00,4.2942
778.00,4.2540
777.00,4.1850
776.00,4.1811
775.00,4.2678
774.00,4.3166
773.00,4.2553
772.00,4.1796
771.00,4.1484
770.00,4.1843
769.00,4.2584
768.00,4.3367
767.00,4.4290
766.00,4.5701
765.00,4.6996
764.00,4.6050
763.00,4.4904
762.00,4.4850
761.00,4.4496
760.00,4.3567
759.00,4.3037
758.00,4.2286
757.00,4.1816
756.00,4.2954
755.00,4.6159
754.00,4.4676
753.00,4.2761
752.00,4.2949
751.00,4.3630
750.00,4.3090
749.00,4.2208
748.00,4.1585
747.00,4.1207
746.00,4.1289
745.00,4.2241
744.00,4.4819
743.00,4.6051
742.00,4.3288
741.00,4.3101
740.00,4.5602
739.00,4.4094
738.00,4.1335
737.00,4.0791
736.00,4.2001
735.00,4.5464
734.00,4.6822
733.00,4.3990
732.00,4.3459
731.00,4.4074
730.00,4.4721
729.00,4.3762
728.00,4.1790
727.00,4.0548
726.00,4.0430
725.00,4.1666
724.00,4.4420
723.00,4.5158
722.00,4.3394
721.00,4.2621
720.00,4.2560
719.00,4.2917
718.00,4.3491
717.00,4.3925
716.00,4.4723
715.00,4.7820
714.00,4.6120
713.00,4.2276
712.00,4.1397
711.00,4.2194
710.00,4.3601
709.00,4.3016
708.00,4.1248
707.00,4.0179
706.00,3.9657
705.00,3.9385
704.00,3.9325
703.00,3.9498
702.00,3.9796
701.00,4.0148
700.00,4.0835
699.00,4.1982
698.00,4.2615
697.00,4.2722
696.00,4.2643
695.00,4.2183
694.00,4.2527
693.00,4.3152
692.00,4.2031
691.00,4.0420
690.00,3.9342
689.00,3.8917
688.00,3.9134
687.00,3.9970
686.00,4.1383
685.00,4.3016
684.00,4.3321
683.00,4.1831
682.00,4.0825
681.00,4.0898
680.00,4.1779
679.00,4.3010
678.00,4.4006
677.00,4.3436
676.00,4.2111
675.00,4.2128
674.00,4.3846
673.00,4.4927
672.00,4.2998
671.00,4.0868
670.00,3.9302
669.00,3.8262
668.00,3.7745
667.00,3.7791
666.00,3.8176
665.00,3.8627
664.00,3.9344
663.00,4.1040
662.00,4.5259
661.00,4.7264
660.00,4.3590
659.00,4.3141
658.00,4.3596
657.00,4.3756
656.00,4.2714
655.00,4.0777
654.00,3.9171
653.00,3.8240
652.00,3.7856
651.00,3.7912
650.00,3.8381
649.00,3.9160
648.00,4.0009
647.00,4.0486
646.00,4.0314
645.00,3.9669
644.00,3.8859
643.00,3.8365
642.00,3.8623
641.00,3.9803
640.00,4.1774
639.00,4.4121
638.00,4.5166
637.00,4.5309
636.00,4.5930
635.00,4.2898
634.00,3.9996
633.00,3.8454
632.00,3.7848
631.00,3.7677
630.00,3.7565
629.00,3.7533
628.00,3.7980
627.00,3.9287
626.00,4.2231
625.00,4.7305
624.00,4.3199
623.00,4.1650
622.00,4.1303
621.00,4.1091
620.00,4.1605
619.00,4.3394
618.00,4.5157
617.00,4.4131
616.00,4.1245
615.00,3.9154
614.00,3.8471
613.00,3.8771
612.00,3.9162
611.00,3.9806
610.00,4.3019
609.00,4.3415
608.00,3.8927
607.00,3.7232
606.00,3.6579
605.00,3.6440
604.00,3.6683
603.00,3.6967
602.00,3.7055
601.00,3.7466
600.00,3.8879
599.00,4.1427
598.00,4.4385
597.00,4.6398
596.00,4.5777
595.00,4.4010
594.00,4.3191
593.00,4.3981
592.00,4.4207
591.00,4.1994
590.00,4.0123
589.00,3.9431
588.00,3.9851
587.00,4.0511
586.00,3.9726
585.00,3.9247
584.00,4.0009
583.00,3.9794
582.00,3.8310
581.00,3.7759
580.00,3.8299
579.00,3.9367
578.00,3.9743
577.00,3.9654
576.00,3.9685
575.00,3.9756
574.00,4.0547
573.00,4.2743
572.00,4.4020
571.00,4.1307
570.00,3.9478
569.00,3.9555
568.00,4.1524
567.00,4.1956
566.00,4.2134
565.00,4.6585
564.00,4.0947
563.00,3.7469
562.00,3.5854
561.00,3.5246
560.00,3.5431
559.00,3.6194
558.00,3.7401
557.00,3.9114
556.00,4.0949
555.00,4.1230
554.00,3.9819
553.00,3.8448
552.00,3.7626
551.00,3.7203
550.00,3.7457
549.00,3.9301
548.00,4.1921
547.00,3.9960
546.00,3.9394
545.00,3.9625
544.00,3.9777
543.00,4.0137
542.00,4.0817
541.00,4.1245
540.00,4.0534
539.00,3.9076
538.00,3.7812
537.00,3.7191
536.00,3.7305
535.00,3.8241
534.00,4.0259
533.00,4.4933
532.00,4.4350
531.00,4.1445
530.00,4.1977
529.00,4.1449
528.00,3.8882
527.00,3.7546
526.00,3.8156
525.00,4.3980
524.00,3.8736
523.00,3.5221
522.00,3.4035
521.00,3.4073
520.00,3.5091
519.00,3.7209
518.00,4.2058
517.00,4.0999
516.00,3.7905
515.00,3.7393
514.00,3.7035
513.00,3.6067
512.00,3.5991
511.00,3.6184
510.00,3.5560
509.00,3.5144
508.00,3.5236
507.00,3.5749
506.00,3.6993
505.00,3.8239
504.00,3.6962
503.00,3.5699
502.00,3.5458
501.00,3.6202
500.00,3.8241
499.00,4.1274
498.00,4.1871
497.00,4.3610
496.00,3.9902
495.00,3.6355
494.00,3.4593
493.00,3.4072
492.00,3.4779
491.00,3.6088
490.00,3.6781
489.00,3.6660
488.00,3.5191
487.00,3.4227
486.00,3.4042
485.00,3.3931
484.00,3.3633
483.00,3.3415
482.00,3.3381
481.00,3.3326
480.00,3.2865
479.00,3.2126
478.00,3.1663
477.00,3.1728
476.00,3.2401
475.00,3.3756
474.00,3.5697
473.00,3.7298
472.00,3.6804
471.00,3.5750
470.00,3.5546
469.00,3.5531
468.00,3.4673
467.00,3.3311
466.00,3.2378
465.00,3.2208
464.00,3.2850
463.00,3.4121
462.00,3.5159
461.00,3.5993
460.00,3.6693
459.00,3.6082
458.00,3.4603
457.00,3.1958
456.00,3.0000
455.00,2.9125
454.00,2.9117
453.00,2.9813
452.00,3.0843
451.00,3.1521
450.00,3.1486
449.00,3.1070
448.00,3.0915
447.00,3.1160
446.00,3.1032
445.00,3.0667
444.00,3.0761
443.00,3.0866
442.00,3.0999
441.00,3.1837
440.00,3.3066
439.00,3.3202
438.00,3.1859
437.00,3.0581
436.00,3.0232
435.00,3.0735
434.00,3.1488
433.00,3.2038
432.00,3.1778
431.00,3.0756
430.00,2.9869
429.00,2.9269
428.00,2.8769
427.00,2.8318
426.00,2.7994
425.00,2.7884
424.00,2.8176
423.00,2.9044
422.00,3.0328
421.00,3.1840
420.00,3.4646
419.00,3.4110
418.00,3.1364
417.00,3.1005
416.00,3.1578
415.00,3.2992
414.00,3.3601
413.00,3.1378
412.00,2.9998
411.00,2.9523
410.00,2.9564
409.00,2.9714
408.00,2.9419
407.00,2.8620
406.00,2.7775
405.00,2.7201
404.00,2.6917
403.00,2.6885
402.00,2.7297
401.00,2.8356
400.00,2.9825
