Created as New Dataset,Sample 163 By Administrator Date Friday, November 26 2021
cm-1,A
7000.00,0.7488
6999.00,0.7487
6998.00,0.7486
6997.00,0.7486
6996.00,0.7486
6995.00,0.7488
6994.00,0.7492
6993.00,0.7499
6992.00,0.7509
6991.00,0.7519
6990.00,0.7530
6989.00,0.7541
6988.00,0.7552
6987.00,0.7563
6986.00,0.7575
6985.00,0.7587
6984.00,0.7601
6983.00,0.7617
6982.00,0.7634
6981.00,0.7652
6980.00,0.7670
6979.00,0.7687
6978.00,0.7705
6977.00,0.7725
6976.00,0.7745
6975.00,0.7767
6974.00,0.7790
6973.00,0.7815
6972.00,0.7842
6971.00,0.7868
6970.00,0.7893
6969.00,0.7917
6968.00,0.7943
6967.00,0.7971
6966.00,0.7999
6965.00,0.8026
6964.00,0.8054
6963.00,0.8084
6962.00,0.8115
6961.00,0.8148
6960.00,0.8179
6959.00,0.8208
6958.00,0.8238
6957.00,0.8270
6956.00,0.8305
6955.00,0.8343
6954.00,0.8381
6953.00,0.8419
6952.00,0.8457
6951.00,0.8495
6950.00,0.8532
6949.00,0.8566
6948.00,0.8599
6947.00,0.8634
6946.00,0.8670
6945.00,0.8708
6944.00,0.8746
6943.00,0.8784
6942.00,0.8824
6941.00,0.8864
6940.00,0.8903
6939.00,0.8943
6938.00,0.8983
6937.00,0.9023
6936.00,0.9062
6935.00,0.9099
6934.00,0.9137
6933.00,0.9177
6932.00,0.9218
6931.00,0.9259
6930.00,0.9301
6929.00,0.9344
6928.00,0.9386
6927.00,0.9426
6926.00,0.9465
6925.00,0.9504
6924.00,0.9542
6923.00,0.9581
6922.00,0.9622
6921.00,0.9663
6920.00,0.9705
6919.00,0.9747
6918.00,0.9787
6917.00,0.9827
6916.00,0.9866
6915.00,0.9905
6914.00,0.9944
6913.00,0.9984
6912.00,1.0024
6911.00,1.0062
6910.00,1.0101
6909.00,1.0139
6908.00,1.0176
6907.00,1.0214
6906.00,1.0253
6905.00,1.0292
6904.00,1.0332
6903.00,1.0371
6902.00,1.0411
6901.00,1.0450
6900.00,1.0485
6899.00,1.0517
6898.00,1.0547
6897.00,1.0580
6896.00,1.0615
6895.00,1.0649
6894.00,1.0685
6893.00,1.0722
6892.00,1.0760
6891.00,1.0795
6890.00,1.0828
6889.00,1.0860
6888.00,1.0894
6887.00,1.0928
6886.00,1.0961
6885.00,1.0992
6884.00,1.1021
6883.00,1.1049
6882.00,1.1079
6881.00,1.1110
6880.00,1.1141
6879.00,1.1170
6878.00,1.1199
6877.00,1.1230
6876.00,1.1264
6875.00,1.1298
6874.00,1.1327
6873.00,1.1355
6872.00,1.1382
6871.00,1.1411
6870.00,1.1439
6869.00,1.1464
6868.00,1.1487
6867.00,1.1509
6866.00,1.1531
6865.00,1.1555
6864.00,1.1581
6863.00,1.1606
6862.00,1.1631
6861.00,1.1654
6860.00,1.1675
6859.00,1.1694
6858.00,1.1711
6857.00,1.1728
6856.00,1.1746
6855.00,1.1768
6854.00,1.1793
6853.00,1.1820
6852.00,1.1847
6851.00,1.1871
6850.00,1.1892
6849.00,1.1910
6848.00,1.1921
6847.00,1.1928
6846.00,1.1935
6845.00,1.1945
6844.00,1.1961
6843.00,1.1979
6842.00,1.1997
6841.00,1.2013
6840.00,1.2029
6839.00,1.2044
6838.00,1.2057
6837.00,1.2069
6836.00,1.2080
6835.00,1.2093
6834.00,1.2106
6833.00,1.2119
6832.00,1.2129
6831.00,1.2135
6830.00,1.2139
6829.00,1.2143
6828.00,1.2149
6827.00,1.2156
6826.00,1.2162
6825.00,1.2167
6824.00,1.2175
6823.00,1.2185
6822.00,1.2196
6821.00,1.2206
6820.00,1.2213
6819.00,1.2218
6818.00,1.2222
6817.00,1.2227
6816.00,1.2231
6815.00,1.2233
6814.00,1.2233
6813.00,1.2233
6812.00,1.2234
6811.00,1.2233
6810.00,1.2230
6809.00,1.2225
6808.00,1.2221
6807.00,1.2218
6806.00,1.2216
6805.00,1.2216
6804.00,1.2216
6803.00,1.2217
6802.00,1.2218
6801.00,1.2215
6800.00,1.2209
6799.00,1.2201
6798.00,1.2191
6797.00,1.2180
6796.00,1.2167
6795.00,1.2153
6794.00,1.2138
6793.00,1.2123
6792.00,1.2111
6791.00,1.2100
6790.00,1.2090
6789.00,1.2080
6788.00,1.2069
6787.00,1.2058
6786.00,1.2046
6785.00,1.2036
6784.00,1.2025
6783.00,1.2011
6782.00,1.1996
6781.00,1.1978
6780.00,1.1960
6779.00,1.1943
6778.00,1.1926
6777.00,1.1908
6776.00,1.1888
6775.00,1.1869
6774.00,1.1852
6773.00,1.1836
6772.00,1.1819
6771.00,1.1797
6770.00,1.1774
6769.00,1.1751
6768.00,1.1730
6767.00,1.1708
6766.00,1.1684
6765.00,1.1658
6764.00,1.1634
6763.00,1.1613
6762.00,1.1593
6761.00,1.1570
6760.00,1.1545
6759.00,1.1520
6758.00,1.1495
6757.00,1.1468
6756.00,1.1440
6755.00,1.1411
6754.00,1.1381
6753.00,1.1351
6752.00,1.1319
6751.00,1.1285
6750.00,1.1251
6749.00,1.1219
6748.00,1.1188
6747.00,1.1159
6746.00,1.1132
6745.00,1.1105
6744.00,1.1075
6743.00,1.1042
6742.00,1.1006
6741.00,1.0968
6740.00,1.0928
6739.00,1.0888
6738.00,1.0850
6737.00,1.0815
6736.00,1.0781
6735.00,1.0745
6734.00,1.0708
6733.00,1.0670
6732.00,1.0633
6731.00,1.0599
6730.00,1.0565
6729.00,1.0529
6728.00,1.0492
6727.00,1.0452
6726.00,1.0412
6725.00,1.0369
6724.00,1.0322
6723.00,1.0273
6722.00,1.0226
6721.00,1.0183
6720.00,1.0142
6719.00,1.0102
6718.00,1.0060
6717.00,1.0018
6716.00,0.9976
6715.00,0.9934
6714.00,0.9891
6713.00,0.9846
6712.00,0.9800
6711.00,0.9755
6710.00,0.9709
6709.00,0.9664
6708.00,0.9620
6707.00,0.9575
6706.00,0.9530
6705.00,0.9485
6704.00,0.9439
6703.00,0.9392
6702.00,0.9344
6701.00,0.9298
6700.00,0.9251
6699.00,0.9205
6698.00,0.9158
6697.00,0.9111
6696.00,0.9066
6695.00,0.9020
6694.00,0.8973
6693.00,0.8924
6692.00,0.8876
6691.00,0.8829
6690.00,0.8783
6689.00,0.8738
6688.00,0.8692
6687.00,0.8645
6686.00,0.8600
6685.00,0.8555
6684.00,0.8510
6683.00,0.8466
6682.00,0.8423
6681.00,0.8381
6680.00,0.8339
6679.00,0.8296
6678.00,0.8255
6677.00,0.8214
6676.00,0.8172
6675.00,0.8130
6674.00,0.8088
6673.00,0.8048
6672.00,0.8010
6671.00,0.7973
6670.00,0.7936
6669.00,0.7899
6668.00,0.7863
6667.00,0.7826
6666.00,0.7789
6665.00,0.7753
6664.00,0.7718
6663.00,0.7683
6662.00,0.7649
6661.00,0.7616
6660.00,0.7585
6659.00,0.7555
6658.00,0.7527
6657.00,0.7499
6656.00,0.7470
6655.00,0.7443
6654.00,0.7418
6653.00,0.7395
6652.00,0.7373
6651.00,0.7353
6650.00,0.7334
6649.00,0.7316
6648.00,0.7299
6647.00,0.7283
6646.00,0.7266
6645.00,0.7251
6644.00,0.7236
6643.00,0.7222
6642.00,0.7208
6641.00,0.7196
6640.00,0.7184
6639.00,0.7173
6638.00,0.7164
6637.00,0.7158
6636.00,0.7154
6635.00,0.7152
6634.00,0.7149
6633.00,0.7148
6632.00,0.7148
6631.00,0.7148
6630.00,0.7148
6629.00,0.7150
6628.00,0.7153
6627.00,0.7158
6626.00,0.7163
6625.00,0.7167
6624.00,0.7173
6623.00,0.7179
6622.00,0.7187
6621.00,0.7197
6620.00,0.7209
6619.00,0.7221
6618.00,0.7235
6617.00,0.7249
6616.00,0.7264
6615.00,0.7280
6614.00,0.7298
6613.00,0.7316
6612.00,0.7336
6611.00,0.7357
6610.00,0.7379
6609.00,0.7402
6608.00,0.7425
6607.00,0.7447
6606.00,0.7471
6605.00,0.7495
6604.00,0.7521
6603.00,0.7547
6602.00,0.7574
6601.00,0.7603
6600.00,0.7633
6599.00,0.7662
6598.00,0.7691
6597.00,0.7722
6596.00,0.7753
6595.00,0.7785
6594.00,0.7819
6593.00,0.7854
6592.00,0.7890
6591.00,0.7926
6590.00,0.7961
6589.00,0.7997
6588.00,0.8033
6587.00,0.8068
6586.00,0.8105
6585.00,0.8141
6584.00,0.8179
6583.00,0.8217
6582.00,0.8256
6581.00,0.8295
6580.00,0.8334
6579.00,0.8372
6578.00,0.8412
6577.00,0.8453
6576.00,0.8495
6575.00,0.8536
6574.00,0.8578
6573.00,0.8621
6572.00,0.8664
6571.00,0.8706
6570.00,0.8749
6569.00,0.8793
6568.00,0.8837
6567.00,0.8880
6566.00,0.8922
6565.00,0.8963
6564.00,0.9005
6563.00,0.9047
6562.00,0.9089
6561.00,0.9134
6560.00,0.9180
6559.00,0.9227
6558.00,0.9273
6557.00,0.9318
6556.00,0.9362
6555.00,0.9406
6554.00,0.9449
6553.00,0.9494
6552.00,0.9539
6551.00,0.9584
6550.00,0.9628
6549.00,0.9673
6548.00,0.9717
6547.00,0.9762
6546.00,0.9806
6545.00,0.9850
6544.00,0.9893
6543.00,0.9936
6542.00,0.9979
6541.00,1.0022
6540.00,1.0067
6539.00,1.0112
6538.00,1.0157
6537.00,1.0202
6536.00,1.0245
6535.00,1.0287
6534.00,1.0327
6533.00,1.0367
6532.00,1.0407
6531.00,1.0448
6530.00,1.0491
6529.00,1.0535
6528.00,1.0579
6527.00,1.0621
6526.00,1.0660
6525.00,1.0698
6524.00,1.0735
6523.00,1.0772
6522.00,1.0809
6521.00,1.0847
6520.00,1.0887
6519.00,1.0925
6518.00,1.0963
6517.00,1.1001
6516.00,1.1040
6515.00,1.1078
6514.00,1.1116
6513.00,1.1153
6512.00,1.1189
6511.00,1.1223
6510.00,1.1256
6509.00,1.1288
6508.00,1.1320
6507.00,1.1351
6506.00,1.1383
6505.00,1.1417
6504.00,1.1452
6503.00,1.1487
6502.00,1.1522
6501.00,1.1556
6500.00,1.1589
6499.00,1.1621
6498.00,1.1652
6497.00,1.1683
6496.00,1.1712
6495.00,1.1738
6494.00,1.1762
6493.00,1.1787
6492.00,1.1814
6491.00,1.1841
6490.00,1.1868
6489.00,1.1894
6488.00,1.1919
6487.00,1.1946
6486.00,1.1973
6485.00,1.2000
6484.00,1.2024
6483.00,1.2045
6482.00,1.2064
6481.00,1.2085
6480.00,1.2108
6479.00,1.2132
6478.00,1.2154
6477.00,1.2175
6476.00,1.2196
6475.00,1.2217
6474.00,1.2236
6473.00,1.2255
6472.00,1.2271
6471.00,1.2288
6470.00,1.2304
6469.00,1.2321
6468.00,1.2338
6467.00,1.2353
6466.00,1.2368
6465.00,1.2385
6464.00,1.2403
6463.00,1.2422
6462.00,1.2439
6461.00,1.2452
6460.00,1.2463
6459.00,1.2472
6458.00,1.2481
6457.00,1.2492
6456.00,1.2505
6455.00,1.2517
6454.00,1.2525
6453.00,1.2532
6452.00,1.2541
6451.00,1.2549
6450.00,1.2555
6449.00,1.2558
6448.00,1.2563
6447.00,1.2570
6446.00,1.2577
6445.00,1.2583
6444.00,1.2589
6443.00,1.2595
6442.00,1.2598
6441.00,1.2597
6440.00,1.2592
6439.00,1.2590
6438.00,1.2591
6437.00,1.2595
6436.00,1.2601
6435.00,1.2609
6434.00,1.2616
6433.00,1.2620
6432.00,1.2618
6431.00,1.2610
6430.00,1.2600
6429.00,1.2593
6428.00,1.2589
6427.00,1.2587
6426.00,1.2585
6425.00,1.2584
6424.00,1.2585
6423.00,1.2584
6422.00,1.2580
6421.00,1.2570
6420.00,1.2557
6419.00,1.2544
6418.00,1.2531
6417.00,1.2518
6416.00,1.2508
6415.00,1.2501
6414.00,1.2494
6413.00,1.2486
6412.00,1.2476
6411.00,1.2464
6410.00,1.2449
6409.00,1.2434
6408.00,1.2418
6407.00,1.2405
6406.00,1.2394
6405.00,1.2382
6404.00,1.2369
6403.00,1.2354
6402.00,1.2338
6401.00,1.2321
6400.00,1.2302
6399.00,1.2283
6398.00,1.2265
6397.00,1.2247
6396.00,1.2229
6395.00,1.2210
6394.00,1.2189
6393.00,1.2167
6392.00,1.2142
6391.00,1.2118
6390.00,1.2094
6389.00,1.2071
6388.00,1.2048
6387.00,1.2023
6386.00,1.1998
6385.00,1.1973
6384.00,1.1949
6383.00,1.1924
6382.00,1.1898
6381.00,1.1870
6380.00,1.1841
6379.00,1.1812
6378.00,1.1784
6377.00,1.1757
6376.00,1.1729
6375.00,1.1700
6374.00,1.1670
6373.00,1.1639
6372.00,1.1605
6371.00,1.1569
6370.00,1.1532
6369.00,1.1496
6368.00,1.1464
6367.00,1.1435
6366.00,1.1404
6365.00,1.1371
6364.00,1.1335
6363.00,1.1298
6362.00,1.1260
6361.00,1.1223
6360.00,1.1186
6359.00,1.1149
6358.00,1.1112
6357.00,1.1073
6356.00,1.1032
6355.00,1.0991
6354.00,1.0949
6353.00,1.0908
6352.00,1.0868
6351.00,1.0829
6350.00,1.0791
6349.00,1.0752
6348.00,1.0711
6347.00,1.0667
6346.00,1.0622
6345.00,1.0579
6344.00,1.0537
6343.00,1.0495
6342.00,1.0449
6341.00,1.0402
6340.00,1.0354
6339.00,1.0306
6338.00,1.0258
6337.00,1.0208
6336.00,1.0159
6335.00,1.0111
6334.00,1.0065
6333.00,1.0018
6332.00,0.9970
6331.00,0.9921
6330.00,0.9872
6329.00,0.9824
6328.00,0.9775
6327.00,0.9725
6326.00,0.9675
6325.00,0.9624
6324.00,0.9575
6323.00,0.9526
6322.00,0.9478
6321.00,0.9429
6320.00,0.9379
6319.00,0.9328
6318.00,0.9278
6317.00,0.9228
6316.00,0.9178
6315.00,0.9128
6314.00,0.9079
6313.00,0.9031
6312.00,0.8981
6311.00,0.8931
6310.00,0.8880
6309.00,0.8829
6308.00,0.8780
6307.00,0.8734
6306.00,0.8689
6305.00,0.8644
6304.00,0.8598
6303.00,0.8551
6302.00,0.8505
6301.00,0.8459
6300.00,0.8412
6299.00,0.8367
6298.00,0.8323
6297.00,0.8280
6296.00,0.8238
6295.00,0.8196
6294.00,0.8155
6293.00,0.8115
6292.00,0.8075
6291.00,0.8035
6290.00,0.7997
6289.00,0.7959
6288.00,0.7923
6287.00,0.7887
6286.00,0.7853
6285.00,0.7819
6284.00,0.7786
6283.00,0.7754
6282.00,0.7722
6281.00,0.7692
6280.00,0.7664
6279.00,0.7637
6278.00,0.7611
6277.00,0.7587
6276.00,0.7565
6275.00,0.7542
6274.00,0.7521
6273.00,0.7500
6272.00,0.7481
6271.00,0.7462
6270.00,0.7444
6269.00,0.7429
6268.00,0.7414
6267.00,0.7401
6266.00,0.7390
6265.00,0.7380
6264.00,0.7372
6263.00,0.7365
6262.00,0.7359
6261.00,0.7354
6260.00,0.7350
6259.00,0.7347
6258.00,0.7344
6257.00,0.7343
6256.00,0.7343
6255.00,0.7345
6254.00,0.7349
6253.00,0.7355
6252.00,0.7363
6251.00,0.7372
6250.00,0.7383
6249.00,0.7395
6248.00,0.7407
6247.00,0.7420
6246.00,0.7434
6245.00,0.7450
6244.00,0.7467
6243.00,0.7484
6242.00,0.7503
6241.00,0.7523
6240.00,0.7544
6239.00,0.7566
6238.00,0.7590
6237.00,0.7615
6236.00,0.7641
6235.00,0.7668
6234.00,0.7696
6233.00,0.7725
6232.00,0.7755
6231.00,0.7785
6230.00,0.7817
6229.00,0.7850
6228.00,0.7883
6227.00,0.7916
6226.00,0.7951
6225.00,0.7986
6224.00,0.8023
6223.00,0.8060
6222.00,0.8097
6221.00,0.8134
6220.00,0.8172
6219.00,0.8210
6218.00,0.8248
6217.00,0.8287
6216.00,0.8327
6215.00,0.8368
6214.00,0.8409
6213.00,0.8452
6212.00,0.8494
6211.00,0.8536
6210.00,0.8577
6209.00,0.8620
6208.00,0.8663
6207.00,0.8706
6206.00,0.8750
6205.00,0.8797
6204.00,0.8844
6203.00,0.8891
6202.00,0.8938
6201.00,0.8984
6200.00,0.9030
6199.00,0.9076
6198.00,0.9122
6197.00,0.9168
6196.00,0.9216
6195.00,0.9264
6194.00,0.9311
6193.00,0.9358
6192.00,0.9405
6191.00,0.9451
6190.00,0.9497
6189.00,0.9542
6188.00,0.9588
6187.00,0.9635
6186.00,0.9682
6185.00,0.9730
6184.00,0.9779
6183.00,0.9828
6182.00,0.9877
6181.00,0.9926
6180.00,0.9973
6179.00,1.0018
6178.00,1.0062
6177.00,1.0107
6176.00,1.0152
6175.00,1.0197
6174.00,1.0243
6173.00,1.0289
6172.00,1.0335
6171.00,1.0381
6170.00,1.0427
6169.00,1.0473
6168.00,1.0518
6167.00,1.0563
6166.00,1.0608
6165.00,1.0653
6164.00,1.0697
6163.00,1.0739
6162.00,1.0779
6161.00,1.0820
6160.00,1.0862
6159.00,1.0905
6158.00,1.0949
6157.00,1.0994
6156.00,1.1037
6155.00,1.1078
6154.00,1.1118
6153.00,1.1156
6152.00,1.1194
6151.00,1.1231
6150.00,1.1270
6149.00,1.1309
6148.00,1.1349
6147.00,1.1387
6146.00,1.1426
6145.00,1.1463
6144.00,1.1498
6143.00,1.1532
6142.00,1.1565
6141.00,1.1599
6140.00,1.1632
6139.00,1.1664
6138.00,1.1696
6137.00,1.1730
6136.00,1.1765
6135.00,1.1799
6134.00,1.1832
6133.00,1.1863
6132.00,1.1893
6131.00,1.1922
6130.00,1.1951
6129.00,1.1980
6128.00,1.2007
6127.00,1.2034
6126.00,1.2062
6125.00,1.2091
6124.00,1.2120
6123.00,1.2146
6122.00,1.2169
6121.00,1.2192
6120.00,1.2217
6119.00,1.2242
6118.00,1.2265
6117.00,1.2288
6116.00,1.2310
6115.00,1.2332
6114.00,1.2353
6113.00,1.2373
6112.00,1.2394
6111.00,1.2416
6110.00,1.2437
6109.00,1.2455
6108.00,1.2470
6107.00,1.2484
6106.00,1.2496
6105.00,1.2509
6104.00,1.2522
6103.00,1.2538
6102.00,1.2556
6101.00,1.2576
6100.00,1.2594
6099.00,1.2609
6098.00,1.2621
6097.00,1.2632
6096.00,1.2641
6095.00,1.2648
6094.00,1.2655
6093.00,1.2663
6092.00,1.2671
6091.00,1.2679
6090.00,1.2688
6089.00,1.2699
6088.00,1.2710
6087.00,1.2719
6086.00,1.2725
6085.00,1.2729
6084.00,1.2733
6083.00,1.2734
6082.00,1.2733
6081.00,1.2733
6080.00,1.2736
6079.00,1.2740
6078.00,1.2743
6077.00,1.2743
6076.00,1.2741
6075.00,1.2738
6074.00,1.2733
6073.00,1.2728
6072.00,1.2721
6071.00,1.2716
6070.00,1.2712
6069.00,1.2708
6068.00,1.2705
6067.00,1.2701
6066.00,1.2696
6065.00,1.2691
6064.00,1.2685
6063.00,1.2678
6062.00,1.2671
6061.00,1.2661
6060.00,1.2650
6059.00,1.2635
6058.00,1.2619
6057.00,1.2603
6056.00,1.2589
6055.00,1.2578
6054.00,1.2567
6053.00,1.2557
6052.00,1.2548
6051.00,1.2538
6050.00,1.2526
6049.00,1.2511
6048.00,1.2494
6047.00,1.2477
6046.00,1.2460
6045.00,1.2444
6044.00,1.2426
6043.00,1.2406
6042.00,1.2386
6041.00,1.2364
6040.00,1.2342
6039.00,1.2319
6038.00,1.2296
6037.00,1.2272
6036.00,1.2251
6035.00,1.2231
6034.00,1.2211
6033.00,1.2189
6032.00,1.2166
6031.00,1.2141
6030.00,1.2116
6029.00,1.2090
6028.00,1.2062
6027.00,1.2034
6026.00,1.2007
6025.00,1.1982
6024.00,1.1957
6023.00,1.1931
6022.00,1.1904
6021.00,1.1878
6020.00,1.1851
6019.00,1.1825
6018.00,1.1800
6017.00,1.1776
6016.00,1.1754
6015.00,1.1733
6014.00,1.1713
6013.00,1.1692
6012.00,1.1669
6011.00,1.1645
6010.00,1.1622
6009.00,1.1598
6008.00,1.1576
6007.00,1.1553
6006.00,1.1532
6005.00,1.1512
6004.00,1.1492
6003.00,1.1471
6002.00,1.1450
6001.00,1.1427
6000.00,1.1405
5999.00,1.1382
5998.00,1.1361
5997.00,1.1340
5996.00,1.1318
5995.00,1.1296
5994.00,1.1272
5993.00,1.1246
5992.00,1.1219
5991.00,1.1191
5990.00,1.1161
5989.00,1.1131
5988.00,1.1101
5987.00,1.1070
5986.00,1.1038
5985.00,1.1007
5984.00,1.0974
5983.00,1.0942
5982.00,1.0910
5981.00,1.0877
5980.00,1.0842
5979.00,1.0805
5978.00,1.0767
5977.00,1.0728
5976.00,1.0688
5975.00,1.0648
5974.00,1.0608
5973.00,1.0569
5972.00,1.0530
5971.00,1.0491
5970.00,1.0450
5969.00,1.0406
5968.00,1.0362
5967.00,1.0318
5966.00,1.0273
5965.00,1.0228
5964.00,1.0182
5963.00,1.0136
5962.00,1.0089
5961.00,1.0041
5960.00,0.9991
5959.00,0.9943
5958.00,0.9895
5957.00,0.9848
5956.00,0.9800
5955.00,0.9751
5954.00,0.9701
5953.00,0.9651
5952.00,0.9600
5951.00,0.9550
5950.00,0.9499
5949.00,0.9448
5948.00,0.9395
5947.00,0.9341
5946.00,0.9287
5945.00,0.9233
5944.00,0.9180
5943.00,0.9129
5942.00,0.9078
5941.00,0.9028
5940.00,0.8978
5939.00,0.8926
5938.00,0.8873
5937.00,0.8820
5936.00,0.8767
5935.00,0.8714
5934.00,0.8662
5933.00,0.8612
5932.00,0.8563
5931.00,0.8514
5930.00,0.8465
5929.00,0.8416
5928.00,0.8367
5927.00,0.8319
5926.00,0.8272
5925.00,0.8225
5924.00,0.8179
5923.00,0.8135
5922.00,0.8092
5921.00,0.8049
5920.00,0.8008
5919.00,0.7967
5918.00,0.7927
5917.00,0.7888
5916.00,0.7850
5915.00,0.7811
5914.00,0.7774
5913.00,0.7738
5912.00,0.7703
5911.00,0.7670
5910.00,0.7639
5909.00,0.7610
5908.00,0.7583
5907.00,0.7558
5906.00,0.7533
5905.00,0.7509
5904.00,0.7485
5903.00,0.7462
5902.00,0.7441
5901.00,0.7422
5900.00,0.7404
5899.00,0.7388
5898.00,0.7373
5897.00,0.7361
5896.00,0.7350
5895.00,0.7339
5894.00,0.7330
5893.00,0.7323
5892.00,0.7318
5891.00,0.7314
5890.00,0.7312
5889.00,0.7311
5888.00,0.7312
5887.00,0.7315
5886.00,0.7319
5885.00,0.7325
5884.00,0.7331
5883.00,0.7338
5882.00,0.7346
5881.00,0.7357
5880.00,0.7369
5879.00,0.7383
5878.00,0.7400
5877.00,0.7417
5876.00,0.7436
5875.00,0.7456
5874.00,0.7477
5873.00,0.7499
5872.00,0.7523
5871.00,0.7547
5870.00,0.7573
5869.00,0.7600
5868.00,0.7627
5867.00,0.7655
5866.00,0.7683
5865.00,0.7714
5864.00,0.7746
5863.00,0.7779
5862.00,0.7813
5861.00,0.7849
5860.00,0.7884
5859.00,0.7921
5858.00,0.7957
5857.00,0.7994
5856.00,0.8032
5855.00,0.8071
5854.00,0.8111
5853.00,0.8152
5852.00,0.8193
5851.00,0.8235
5850.00,0.8279
5849.00,0.8323
5848.00,0.8368
5847.00,0.8413
5846.00,0.8459
5845.00,0.8504
5844.00,0.8550
5843.00,0.8596
5842.00,0.8642
5841.00,0.8688
5840.00,0.8735
5839.00,0.8783
5838.00,0.8832
5837.00,0.8881
5836.00,0.8930
5835.00,0.8979
5834.00,0.9029
5833.00,0.9080
5832.00,0.9129
5831.00,0.9179
5830.00,0.9228
5829.00,0.9278
5828.00,0.9327
5827.00,0.9376
5826.00,0.9425
5825.00,0.9475
5824.00,0.9526
5823.00,0.9577
5822.00,0.9628
5821.00,0.9679
5820.00,0.9729
5819.00,0.9778
5818.00,0.9827
5817.00,0.9877
5816.00,0.9928
5815.00,0.9980
5814.00,1.0031
5813.00,1.0082
5812.00,1.0131
5811.00,1.0180
5810.00,1.0229
5809.00,1.0279
5808.00,1.0327
5807.00,1.0375
5806.00,1.0422
5805.00,1.0469
5804.00,1.0517
5803.00,1.0565
5802.00,1.0613
5801.00,1.0663
5800.00,1.0711
5799.00,1.0759
5798.00,1.0806
5797.00,1.0852
5796.00,1.0899
5795.00,1.0946
5794.00,1.0993
5793.00,1.1040
5792.00,1.1085
5791.00,1.1130
5790.00,1.1174
5789.00,1.1217
5788.00,1.1259
5787.00,1.1302
5786.00,1.1346
5785.00,1.1391
5784.00,1.1437
5783.00,1.1482
5782.00,1.1527
5781.00,1.1570
5780.00,1.1612
5779.00,1.1653
5778.00,1.1695
5777.00,1.1737
5776.00,1.1779
5775.00,1.1820
5774.00,1.1859
5773.00,1.1898
5772.00,1.1936
5771.00,1.1973
5770.00,1.2010
5769.00,1.2048
5768.00,1.2087
5767.00,1.2125
5766.00,1.2164
5765.00,1.2202
5764.00,1.2239
5763.00,1.2277
5762.00,1.2316
5761.00,1.2354
5760.00,1.2391
5759.00,1.2428
5758.00,1.2463
5757.00,1.2497
5756.00,1.2528
5755.00,1.2558
5754.00,1.2587
5753.00,1.2614
5752.00,1.2643
5751.00,1.2674
5750.00,1.2707
5749.00,1.2740
5748.00,1.2772
5747.00,1.2802
5746.00,1.2831
5745.00,1.2858
5744.00,1.2883
5743.00,1.2906
5742.00,1.2930
5741.00,1.2954
5740.00,1.2977
5739.00,1.2999
5738.00,1.3022
5737.00,1.3044
5736.00,1.3066
5735.00,1.3087
5734.00,1.3109
5733.00,1.3131
5732.00,1.3153
5731.00,1.3174
5730.00,1.3194
5729.00,1.3214
5728.00,1.3231
5727.00,1.3246
5726.00,1.3260
5725.00,1.3275
5724.00,1.3290
5723.00,1.3305
5722.00,1.3319
5721.00,1.3333
5720.00,1.3346
5719.00,1.3356
5718.00,1.3362
5717.00,1.3366
5716.00,1.3370
5715.00,1.3373
5714.00,1.3376
5713.00,1.3380
5712.00,1.3387
5711.00,1.3394
5710.00,1.3401
5709.00,1.3406
5708.00,1.3409
5707.00,1.3410
5706.00,1.3407
5705.00,1.3402
5704.00,1.3396
5703.00,1.3391
5702.00,1.3386
5701.00,1.3381
5700.00,1.3376
5699.00,1.3371
5698.00,1.3365
5697.00,1.3357
5696.00,1.3349
5695.00,1.3343
5694.00,1.3337
5693.00,1.3332
5692.00,1.3327
5691.00,1.3321
5690.00,1.3315
5689.00,1.3308
5688.00,1.3300
5687.00,1.3292
5686.00,1.3286
5685.00,1.3279
5684.00,1.3273
5683.00,1.3266
5682.00,1.3259
5681.00,1.3251
5680.00,1.3244
5679.00,1.3238
5678.00,1.3232
5677.00,1.3225
5676.00,1.3217
5675.00,1.3208
5674.00,1.3198
5673.00,1.3187
5672.00,1.3175
5671.00,1.3163
5670.00,1.3150
5669.00,1.3137
5668.00,1.3124
5667.00,1.3111
5666.00,1.3100
5665.00,1.3087
5664.00,1.3073
5663.00,1.3058
5662.00,1.3041
5661.00,1.3023
5660.00,1.3003
5659.00,1.2984
5658.00,1.2966
5657.00,1.2949
5656.00,1.2931
5655.00,1.2913
5654.00,1.2895
5653.00,1.2875
5652.00,1.2852
5651.00,1.2828
5650.00,1.2803
5649.00,1.2778
5648.00,1.2754
5647.00,1.2731
5646.00,1.2707
5645.00,1.2680
5644.00,1.2652
5643.00,1.2623
5642.00,1.2595
5641.00,1.2568
5640.00,1.2540
5639.00,1.2512
5638.00,1.2485
5637.00,1.2455
5636.00,1.2422
5635.00,1.2387
5634.00,1.2352
5633.00,1.2319
5632.00,1.2285
5631.00,1.2249
5630.00,1.2213
5629.00,1.2178
5628.00,1.2142
5627.00,1.2106
5626.00,1.2070
5625.00,1.2035
5624.00,1.1999
5623.00,1.1961
5622.00,1.1922
5621.00,1.1881
5620.00,1.1839
5619.00,1.1797
5618.00,1.1755
5617.00,1.1714
5616.00,1.1672
5615.00,1.1630
5614.00,1.1587
5613.00,1.1544
5612.00,1.1500
5611.00,1.1455
5610.00,1.1408
5609.00,1.1361
5608.00,1.1312
5607.00,1.1263
5606.00,1.1214
5605.00,1.1166
5604.00,1.1117
5603.00,1.1067
5602.00,1.1017
5601.00,1.0965
5600.00,1.0911
5599.00,1.0857
5598.00,1.0803
5597.00,1.0750
5596.00,1.0696
5595.00,1.0643
5594.00,1.0589
5593.00,1.0535
5592.00,1.0479
5591.00,1.0422
5590.00,1.0365
5589.00,1.0308
5588.00,1.0251
5587.00,1.0194
5586.00,1.0136
5585.00,1.0079
5584.00,1.0020
5583.00,0.9961
5582.00,0.9902
5581.00,0.9842
5580.00,0.9781
5579.00,0.9721
5578.00,0.9662
5577.00,0.9603
5576.00,0.9544
5575.00,0.9484
5574.00,0.9424
5573.00,0.9364
5572.00,0.9303
5571.00,0.9242
5570.00,0.9182
5569.00,0.9123
5568.00,0.9064
5567.00,0.9005
5566.00,0.8947
5565.00,0.8888
5564.00,0.8830
5563.00,0.8772
5562.00,0.8715
5561.00,0.8659
5560.00,0.8604
5559.00,0.8549
5558.00,0.8494
5557.00,0.8439
5556.00,0.8383
5555.00,0.8328
5554.00,0.8274
5553.00,0.8221
5552.00,0.8171
5551.00,0.8121
5550.00,0.8073
5549.00,0.8024
5548.00,0.7976
5547.00,0.7928
5546.00,0.7882
5545.00,0.7838
5544.00,0.7796
5543.00,0.7756
5542.00,0.7717
5541.00,0.7679
5540.00,0.7642
5539.00,0.7605
5538.00,0.7569
5537.00,0.7536
5536.00,0.7504
5535.00,0.7474
5534.00,0.7445
5533.00,0.7418
5532.00,0.7393
5531.00,0.7369
5530.00,0.7347
5529.00,0.7327
5528.00,0.7309
5527.00,0.7293
5526.00,0.7278
5525.00,0.7265
5524.00,0.7254
5523.00,0.7244
5522.00,0.7236
5521.00,0.7230
5520.00,0.7226
5519.00,0.7224
5518.00,0.7224
5517.00,0.7226
5516.00,0.7228
5515.00,0.7232
5514.00,0.7238
5513.00,0.7245
5512.00,0.7255
5511.00,0.7266
5510.00,0.7279
5509.00,0.7294
5508.00,0.7310
5507.00,0.7327
5506.00,0.7346
5505.00,0.7367
5504.00,0.7390
5503.00,0.7414
5502.00,0.7440
5501.00,0.7467
5500.00,0.7496
5499.00,0.7526
5498.00,0.7557
5497.00,0.7590
5496.00,0.7623
5495.00,0.7657
5494.00,0.7692
5493.00,0.7729
5492.00,0.7767
5491.00,0.7805
5490.00,0.7846
5489.00,0.7887
5488.00,0.7930
5487.00,0.7974
5486.00,0.8018
5485.00,0.8064
5484.00,0.8111
5483.00,0.8159
5482.00,0.8208
5481.00,0.8258
5480.00,0.8307
5479.00,0.8355
5478.00,0.8402
5477.00,0.8450
5476.00,0.8500
5475.00,0.8551
5474.00,0.8605
5473.00,0.8660
5472.00,0.8715
5471.00,0.8770
5470.00,0.8825
5469.00,0.8880
5468.00,0.8935
5467.00,0.8991
5466.00,0.9047
5465.00,0.9103
5464.00,0.9159
5463.00,0.9215
5462.00,0.9272
5461.00,0.9329
5460.00,0.9387
5459.00,0.9446
5458.00,0.9504
5457.00,0.9562
5456.00,0.9619
5455.00,0.9677
5454.00,0.9734
5453.00,0.9793
5452.00,0.9851
5451.00,0.9910
5450.00,0.9968
5449.00,1.0025
5448.00,1.0082
5447.00,1.0138
5446.00,1.0195
5445.00,1.0252
5444.00,1.0309
5443.00,1.0367
5442.00,1.0424
5441.00,1.0483
5440.00,1.0542
5439.00,1.0600
5438.00,1.0658
5437.00,1.0716
5436.00,1.0774
5435.00,1.0830
5434.00,1.0886
5433.00,1.0940
5432.00,1.0994
5431.00,1.1048
5430.00,1.1101
5429.00,1.1155
5428.00,1.1209
5427.00,1.1263
5426.00,1.1316
5425.00,1.1369
5424.00,1.1421
5423.00,1.1472
5422.00,1.1523
5421.00,1.1574
5420.00,1.1625
5419.00,1.1675
5418.00,1.1723
5417.00,1.1772
5416.00,1.1820
5415.00,1.1869
5414.00,1.1917
5413.00,1.1965
5412.00,1.2012
5411.00,1.2059
5410.00,1.2105
5409.00,1.2150
5408.00,1.2195
5407.00,1.2239
5406.00,1.2283
5405.00,1.2326
5404.00,1.2367
5403.00,1.2408
5402.00,1.2449
5401.00,1.2489
5400.00,1.2531
5399.00,1.2572
5398.00,1.2612
5397.00,1.2652
5396.00,1.2692
5395.00,1.2731
5394.00,1.2768
5393.00,1.2805
5392.00,1.2841
5391.00,1.2877
5390.00,1.2912
5389.00,1.2944
5388.00,1.2976
5387.00,1.3008
5386.00,1.3042
5385.00,1.3076
5384.00,1.3109
5383.00,1.3143
5382.00,1.3175
5381.00,1.3205
5380.00,1.3234
5379.00,1.3261
5378.00,1.3290
5377.00,1.3318
5376.00,1.3346
5375.00,1.3373
5374.00,1.3398
5373.00,1.3420
5372.00,1.3442
5371.00,1.3465
5370.00,1.3490
5369.00,1.3516
5368.00,1.3542
5367.00,1.3566
5366.00,1.3586
5365.00,1.3604
5364.00,1.3619
5363.00,1.3636
5362.00,1.3654
5361.00,1.3672
5360.00,1.3691
5359.00,1.3708
5358.00,1.3726
5357.00,1.3743
5356.00,1.3759
5355.00,1.3775
5354.00,1.3790
5353.00,1.3804
5352.00,1.3816
5351.00,1.3826
5350.00,1.3836
5349.00,1.3848
5348.00,1.3861
5347.00,1.3874
5346.00,1.3886
5345.00,1.3897
5344.00,1.3907
5343.00,1.3914
5342.00,1.3921
5341.00,1.3928
5340.00,1.3936
5339.00,1.3943
5338.00,1.3948
5337.00,1.3953
5336.00,1.3958
5335.00,1.3963
5334.00,1.3967
5333.00,1.3970
5332.00,1.3972
5331.00,1.3973
5330.00,1.3973
5329.00,1.3974
5328.00,1.3977
5327.00,1.3980
5326.00,1.3984
5325.00,1.3985
5324.00,1.3983
5323.00,1.3980
5322.00,1.3977
5321.00,1.3973
5320.00,1.3969
5319.00,1.3966
5318.00,1.3962
5317.00,1.3957
5316.00,1.3951
5315.00,1.3943
5314.00,1.3936
5313.00,1.3930
5312.00,1.3924
5311.00,1.3918
5310.00,1.3910
5309.00,1.3901
5308.00,1.3891
5307.00,1.3880
5306.00,1.3866
5305.00,1.3851
5304.00,1.3836
5303.00,1.3821
5302.00,1.3806
5301.00,1.3792
5300.00,1.3781
5299.00,1.3770
5298.00,1.3758
5297.00,1.3746
5296.00,1.3731
5295.00,1.3716
5294.00,1.3698
5293.00,1.3678
5292.00,1.3655
5291.00,1.3632
5290.00,1.3608
5289.00,1.3584
5288.00,1.3560
5287.00,1.3539
5286.00,1.3517
5285.00,1.3496
5284.00,1.3473
5283.00,1.3449
5282.00,1.3424
5281.00,1.3398
5280.00,1.3371
5279.00,1.3343
5278.00,1.3316
5277.00,1.3288
5276.00,1.3261
5275.00,1.3233
5274.00,1.3205
5273.00,1.3176
5272.00,1.3146
5271.00,1.3115
5270.00,1.3083
5269.00,1.3051
5268.00,1.3019
5267.00,1.2985
5266.00,1.2951
5265.00,1.2914
5264.00,1.2875
5263.00,1.2835
5262.00,1.2795
5261.00,1.2755
5260.00,1.2716
5259.00,1.2678
5258.00,1.2641
5257.00,1.2603
5256.00,1.2565
5255.00,1.2524
5254.00,1.2481
5253.00,1.2437
5252.00,1.2392
5251.00,1.2347
5250.00,1.2303
5249.00,1.2258
5248.00,1.2211
5247.00,1.2163
5246.00,1.2113
5245.00,1.2064
5244.00,1.2016
5243.00,1.1968
5242.00,1.1920
5241.00,1.1871
5240.00,1.1821
5239.00,1.1770
5238.00,1.1717
5237.00,1.1664
5236.00,1.1610
5235.00,1.1557
5234.00,1.1504
5233.00,1.1449
5232.00,1.1394
5231.00,1.1337
5230.00,1.1280
5229.00,1.1221
5228.00,1.1163
5227.00,1.1104
5226.00,1.1044
5225.00,1.0984
5224.00,1.0923
5223.00,1.0861
5222.00,1.0799
5221.00,1.0737
5220.00,1.0675
5219.00,1.0613
5218.00,1.0551
5217.00,1.0488
5216.00,1.0425
5215.00,1.0360
5214.00,1.0295
5213.00,1.0230
5212.00,1.0163
5211.00,1.0096
5210.00,1.0029
5209.00,0.9961
5208.00,0.9891
5207.00,0.9821
5206.00,0.9751
5205.00,0.9684
5204.00,0.9617
5203.00,0.9552
5202.00,0.9486
5201.00,0.9419
5200.00,0.9351
5199.00,0.9283
5198.00,0.9214
5197.00,0.9146
5196.00,0.9078
5195.00,0.9011
5194.00,0.8944
5193.00,0.8878
5192.00,0.8812
5191.00,0.8746
5190.00,0.8681
5189.00,0.8615
5188.00,0.8551
5187.00,0.8486
5186.00,0.8422
5185.00,0.8359
5184.00,0.8297
5183.00,0.8236
5182.00,0.8177
5181.00,0.8119
5180.00,0.8062
5179.00,0.8006
5178.00,0.7951
5177.00,0.7897
5176.00,0.7844
5175.00,0.7792
5174.00,0.7741
5173.00,0.7691
5172.00,0.7643
5171.00,0.7598
5170.00,0.7554
5169.00,0.7512
5168.00,0.7472
5167.00,0.7433
5166.00,0.7395
5165.00,0.7360
5164.00,0.7326
5163.00,0.7294
5162.00,0.7264
5161.00,0.7237
5160.00,0.7211
5159.00,0.7188
5158.00,0.7167
5157.00,0.7149
5156.00,0.7132
5155.00,0.7117
5154.00,0.7104
5153.00,0.7094
5152.00,0.7087
5151.00,0.7081
5150.00,0.7078
5149.00,0.7077
5148.00,0.7077
5147.00,0.7080
5146.00,0.7085
5145.00,0.7092
5144.00,0.7102
5143.00,0.7114
5142.00,0.7128
5141.00,0.7144
5140.00,0.7161
5139.00,0.7180
5138.00,0.7202
5137.00,0.7226
5136.00,0.7251
5135.00,0.7277
5134.00,0.7306
5133.00,0.7336
5132.00,0.7368
5131.00,0.7403
5130.00,0.7439
5129.00,0.7476
5128.00,0.7515
5127.00,0.7555
5126.00,0.7597
5125.00,0.7640
5124.00,0.7684
5123.00,0.7729
5122.00,0.7776
5121.00,0.7823
5120.00,0.7872
5119.00,0.7922
5118.00,0.7974
5117.00,0.8026
5116.00,0.8078
5115.00,0.8132
5114.00,0.8185
5113.00,0.8240
5112.00,0.8297
5111.00,0.8355
5110.00,0.8413
5109.00,0.8472
5108.00,0.8531
5107.00,0.8590
5106.00,0.8649
5105.00,0.8710
5104.00,0.8771
5103.00,0.8833
5102.00,0.8895
5101.00,0.8958
5100.00,0.9021
5099.00,0.9084
5098.00,0.9148
5097.00,0.9212
5096.00,0.9277
5095.00,0.9343
5094.00,0.9408
5093.00,0.9474
5092.00,0.9539
5091.00,0.9603
5090.00,0.9668
5089.00,0.9733
5088.00,0.9799
5087.00,0.9865
5086.00,0.9931
5085.00,0.9997
5084.00,1.0062
5083.00,1.0127
5082.00,1.0193
5081.00,1.0259
5080.00,1.0325
5079.00,1.0391
5078.00,1.0456
5077.00,1.0520
5076.00,1.0583
5075.00,1.0646
5074.00,1.0711
5073.00,1.0776
5072.00,1.0842
5071.00,1.0908
5070.00,1.0971
5069.00,1.1034
5068.00,1.1095
5067.00,1.1155
5066.00,1.1216
5065.00,1.1277
5064.00,1.1339
5063.00,1.1400
5062.00,1.1460
5061.00,1.1519
5060.00,1.1577
5059.00,1.1634
5058.00,1.1693
5057.00,1.1752
5056.00,1.1810
5055.00,1.1868
5054.00,1.1926
5053.00,1.1982
5052.00,1.2038
5051.00,1.2094
5050.00,1.2149
5049.00,1.2204
5048.00,1.2260
5047.00,1.2315
5046.00,1.2369
5045.00,1.2422
5044.00,1.2473
5043.00,1.2522
5042.00,1.2571
5041.00,1.2621
5040.00,1.2671
5039.00,1.2721
5038.00,1.2771
5037.00,1.2821
5036.00,1.2869
5035.00,1.2917
5034.00,1.2962
5033.00,1.3007
5032.00,1.3049
5031.00,1.3092
5030.00,1.3134
5029.00,1.3178
5028.00,1.3221
5027.00,1.3264
5026.00,1.3306
5025.00,1.3348
5024.00,1.3388
5023.00,1.3429
5022.00,1.3468
5021.00,1.3506
5020.00,1.3543
5019.00,1.3579
5018.00,1.3614
5017.00,1.3650
5016.00,1.3684
5015.00,1.3718
5014.00,1.3751
5013.00,1.3785
5012.00,1.3818
5011.00,1.3851
5010.00,1.3883
5009.00,1.3914
5008.00,1.3943
5007.00,1.3971
5006.00,1.3999
5005.00,1.4028
5004.00,1.4056
5003.00,1.4085
5002.00,1.4113
5001.00,1.4139
5000.00,1.4165
4999.00,1.4189
4998.00,1.4213
4997.00,1.4235
4996.00,1.4256
4995.00,1.4278
4994.00,1.4300
4993.00,1.4322
4992.00,1.4344
4991.00,1.4365
4990.00,1.4386
4989.00,1.4407
4988.00,1.4425
4987.00,1.4442
4986.00,1.4457
4985.00,1.4471
4984.00,1.4485
4983.00,1.4501
4982.00,1.4517
4981.00,1.4535
4980.00,1.4551
4979.00,1.4565
4978.00,1.4576
4977.00,1.4585
4976.00,1.4594
4975.00,1.4602
4974.00,1.4610
4973.00,1.4619
4972.00,1.4628
4971.00,1.4638
4970.00,1.4648
4969.00,1.4658
4968.00,1.4667
4967.00,1.4676
4966.00,1.4682
4965.00,1.4685
4964.00,1.4686
4963.00,1.4686
4962.00,1.4688
4961.00,1.4691
4960.00,1.4695
4959.00,1.4698
4958.00,1.4699
4957.00,1.4698
4956.00,1.4697
4955.00,1.4696
4954.00,1.4694
4953.00,1.4692
4952.00,1.4691
4951.00,1.4689
4950.00,1.4688
4949.00,1.4686
4948.00,1.4682
4947.00,1.4675
4946.00,1.4667
4945.00,1.4658
4944.00,1.4651
4943.00,1.4644
4942.00,1.4637
4941.00,1.4629
4940.00,1.4621
4939.00,1.4613
4938.00,1.4605
4937.00,1.4595
4936.00,1.4582
4935.00,1.4568
4934.00,1.4553
4933.00,1.4539
4932.00,1.4526
4931.00,1.4514
4930.00,1.4502
4929.00,1.4488
4928.00,1.4471
4927.00,1.4454
4926.00,1.4436
4925.00,1.4419
4924.00,1.4402
4923.00,1.4385
4922.00,1.4367
4921.00,1.4347
4920.00,1.4326
4919.00,1.4304
4918.00,1.4280
4917.00,1.4255
4916.00,1.4230
4915.00,1.4205
4914.00,1.4181
4913.00,1.4158
4912.00,1.4134
4911.00,1.4110
4910.00,1.4083
4909.00,1.4055
4908.00,1.4027
4907.00,1.3998
4906.00,1.3969
4905.00,1.3939
4904.00,1.3908
4903.00,1.3876
4902.00,1.3844
4901.00,1.3812
4900.00,1.3780
4899.00,1.3746
4898.00,1.3712
4897.00,1.3675
4896.00,1.3638
4895.00,1.3601
4894.00,1.3563
4893.00,1.3526
4892.00,1.3487
4891.00,1.3449
4890.00,1.3410
4889.00,1.3370
4888.00,1.3328
4887.00,1.3286
4886.00,1.3242
4885.00,1.3198
4884.00,1.3153
4883.00,1.3108
4882.00,1.3063
4881.00,1.3016
4880.00,1.2967
4879.00,1.2918
4878.00,1.2869
4877.00,1.2819
4876.00,1.2769
4875.00,1.2719
4874.00,1.2668
4873.00,1.2617
4872.00,1.2564
4871.00,1.2510
4870.00,1.2455
4869.00,1.2398
4868.00,1.2341
4867.00,1.2283
4866.00,1.2225
4865.00,1.2166
4864.00,1.2108
4863.00,1.2050
4862.00,1.1991
4861.00,1.1931
4860.00,1.1869
4859.00,1.1806
4858.00,1.1742
4857.00,1.1677
4856.00,1.1611
4855.00,1.1544
4854.00,1.1477
4853.00,1.1410
4852.00,1.1343
4851.00,1.1276
4850.00,1.1208
4849.00,1.1139
4848.00,1.1069
4847.00,1.0999
4846.00,1.0927
4845.00,1.0855
4844.00,1.0782
4843.00,1.0708
4842.00,1.0634
4841.00,1.0560
4840.00,1.0486
4839.00,1.0412
4838.00,1.0337
4837.00,1.0261
4836.00,1.0185
4835.00,1.0109
4834.00,1.0032
4833.00,0.9956
4832.00,0.9880
4831.00,0.9803
4830.00,0.9726
4829.00,0.9648
4828.00,0.9571
4827.00,0.9494
4826.00,0.9417
4825.00,0.9341
4824.00,0.9265
4823.00,0.9188
4822.00,0.9112
4821.00,0.9036
4820.00,0.8961
4819.00,0.8886
4818.00,0.8813
4817.00,0.8741
4816.00,0.8669
4815.00,0.8599
4814.00,0.8529
4813.00,0.8459
4812.00,0.8391
4811.00,0.8322
4810.00,0.8255
4809.00,0.8190
4808.00,0.8126
4807.00,0.8065
4806.00,0.8004
4805.00,0.7945
4804.00,0.7888
4803.00,0.7832
4802.00,0.7778
4801.00,0.7727
4800.00,0.7677
4799.00,0.7630
4798.00,0.7584
4797.00,0.7540
4796.00,0.7499
4795.00,0.7460
4794.00,0.7424
4793.00,0.7390
4792.00,0.7359
4791.00,0.7329
4790.00,0.7302
4789.00,0.7277
4788.00,0.7255
4787.00,0.7236
4786.00,0.7220
4785.00,0.7207
4784.00,0.7196
4783.00,0.7188
4782.00,0.7183
4781.00,0.7180
4780.00,0.7180
4779.00,0.7182
4778.00,0.7187
4777.00,0.7195
4776.00,0.7206
4775.00,0.7218
4774.00,0.7234
4773.00,0.7251
4772.00,0.7272
4771.00,0.7295
4770.00,0.7321
4769.00,0.7348
4768.00,0.7378
4767.00,0.7410
4766.00,0.7444
4765.00,0.7479
4764.00,0.7517
4763.00,0.7556
4762.00,0.7598
4761.00,0.7641
4760.00,0.7687
4759.00,0.7734
4758.00,0.7783
4757.00,0.7833
4756.00,0.7885
4755.00,0.7938
4754.00,0.7992
4753.00,0.8049
4752.00,0.8106
4751.00,0.8164
4750.00,0.8223
4749.00,0.8283
4748.00,0.8345
4747.00,0.8407
4746.00,0.8471
4745.00,0.8537
4744.00,0.8604
4743.00,0.8671
4742.00,0.8738
4741.00,0.8807
4740.00,0.8875
4739.00,0.8944
4738.00,0.9014
4737.00,0.9085
4736.00,0.9156
4735.00,0.9228
4734.00,0.9300
4733.00,0.9373
4732.00,0.9445
4731.00,0.9519
4730.00,0.9592
4729.00,0.9667
4728.00,0.9742
4727.00,0.9817
4726.00,0.9892
4725.00,0.9967
4724.00,1.0042
4723.00,1.0117
4722.00,1.0193
4721.00,1.0269
4720.00,1.0344
4719.00,1.0418
4718.00,1.0493
4717.00,1.0569
4716.00,1.0644
4715.00,1.0719
4714.00,1.0794
4713.00,1.0869
4712.00,1.0944
4711.00,1.1019
4710.00,1.1093
4709.00,1.1167
4708.00,1.1241
4707.00,1.1315
4706.00,1.1388
4705.00,1.1460
4704.00,1.1532
4703.00,1.1603
4702.00,1.1673
4701.00,1.1744
4700.00,1.1815
4699.00,1.1886
4698.00,1.1957
4697.00,1.2026
4696.00,1.2094
4695.00,1.2161
4694.00,1.2228
4693.00,1.2294
4692.00,1.2360
4691.00,1.2425
4690.00,1.2489
4689.00,1.2552
4688.00,1.2614
4687.00,1.2677
4686.00,1.2739
4685.00,1.2801
4684.00,1.2862
4683.00,1.2921
4682.00,1.2980
4681.00,1.3038
4680.00,1.3095
4679.00,1.3152
4678.00,1.3208
4677.00,1.3263
4676.00,1.3318
4675.00,1.3373
4674.00,1.3426
4673.00,1.3480
4672.00,1.3532
4671.00,1.3584
4670.00,1.3636
4669.00,1.3686
4668.00,1.3735
4667.00,1.3782
4666.00,1.3827
4665.00,1.3872
4664.00,1.3917
4663.00,1.3963
4662.00,1.4009
4661.00,1.4054
4660.00,1.4097
4659.00,1.4137
4658.00,1.4176
4657.00,1.4215
4656.00,1.4255
4655.00,1.4296
4654.00,1.4335
4653.00,1.4375
4652.00,1.4414
4651.00,1.4453
4650.00,1.4490
4649.00,1.4526
4648.00,1.4560
4647.00,1.4594
4646.00,1.4629
4645.00,1.4664
4644.00,1.4700
4643.00,1.4735
4642.00,1.4769
4641.00,1.4800
4640.00,1.4831
4639.00,1.4861
4638.00,1.4889
4637.00,1.4916
4636.00,1.4943
4635.00,1.4971
4634.00,1.5001
4633.00,1.5031
4632.00,1.5061
4631.00,1.5087
4630.00,1.5111
4629.00,1.5132
4628.00,1.5154
4627.00,1.5177
4626.00,1.5199
4625.00,1.5220
4624.00,1.5241
4623.00,1.5262
4622.00,1.5283
4621.00,1.5304
4620.00,1.5323
4619.00,1.5341
4618.00,1.5356
4617.00,1.5370
4616.00,1.5384
4615.00,1.5401
4614.00,1.5418
4613.00,1.5434
4612.00,1.5448
4611.00,1.5460
4610.00,1.5471
4609.00,1.5482
4608.00,1.5496
4607.00,1.5510
4606.00,1.5522
4605.00,1.5531
4604.00,1.5538
4603.00,1.5543
4602.00,1.5548
4601.00,1.5554
4600.00,1.5560
4599.00,1.5565
4598.00,1.5571
4597.00,1.5575
4596.00,1.5578
4595.00,1.5580
4594.00,1.5581
4593.00,1.5584
4592.00,1.5587
4591.00,1.5592
4590.00,1.5596
4589.00,1.5598
4588.00,1.5598
4587.00,1.5598
4586.00,1.5598
4585.00,1.5596
4584.00,1.5593
4583.00,1.5587
4582.00,1.5580
4581.00,1.5572
4580.00,1.5565
4579.00,1.5558
4578.00,1.5551
4577.00,1.5546
4576.00,1.5542
4575.00,1.5538
4574.00,1.5532
4573.00,1.5522
4572.00,1.5509
4571.00,1.5494
4570.00,1.5481
4569.00,1.5470
4568.00,1.5460
4567.00,1.5450
4566.00,1.5436
4565.00,1.5421
4564.00,1.5404
4563.00,1.5389
4562.00,1.5374
4561.00,1.5359
4560.00,1.5343
4559.00,1.5326
4558.00,1.5307
4557.00,1.5288
4556.00,1.5269
4555.00,1.5251
4554.00,1.5233
4553.00,1.5213
4552.00,1.5191
4551.00,1.5168
4550.00,1.5144
4549.00,1.5119
4548.00,1.5095
4547.00,1.5070
4546.00,1.5045
4545.00,1.5018
4544.00,1.4990
4543.00,1.4962
4542.00,1.4933
4541.00,1.4903
4540.00,1.4873
4539.00,1.4842
4538.00,1.4810
4537.00,1.4777
4536.00,1.4744
4535.00,1.4711
4534.00,1.4677
4533.00,1.4643
4532.00,1.4609
4531.00,1.4576
4530.00,1.4542
4529.00,1.4507
4528.00,1.4469
4527.00,1.4428
4526.00,1.4386
4525.00,1.4342
4524.00,1.4299
4523.00,1.4257
4522.00,1.4215
4521.00,1.4173
4520.00,1.4129
4519.00,1.4085
4518.00,1.4041
4517.00,1.3996
4516.00,1.3950
4515.00,1.3902
4514.00,1.3852
4513.00,1.3802
4512.00,1.3752
4511.00,1.3701
4510.00,1.3649
4509.00,1.3596
4508.00,1.3540
4507.00,1.3484
4506.00,1.3427
4505.00,1.3369
4504.00,1.3311
4503.00,1.3253
4502.00,1.3195
4501.00,1.3136
4500.00,1.3076
4499.00,1.3016
4498.00,1.2955
4497.00,1.2892
4496.00,1.2827
4495.00,1.2761
4494.00,1.2694
4493.00,1.2625
4492.00,1.2556
4491.00,1.2486
4490.00,1.2416
4489.00,1.2345
4488.00,1.2274
4487.00,1.2202
4486.00,1.2131
4485.00,1.2059
4484.00,1.1986
4483.00,1.1912
4482.00,1.1835
4481.00,1.1757
4480.00,1.1678
4479.00,1.1598
4478.00,1.1519
4477.00,1.1440
4476.00,1.1359
4475.00,1.1277
4474.00,1.1194
4473.00,1.1110
4472.00,1.1025
4471.00,1.0941
4470.00,1.0856
4469.00,1.0770
4468.00,1.0684
4467.00,1.0598
4466.00,1.0511
4465.00,1.0423
4464.00,1.0335
4463.00,1.0246
4462.00,1.0157
4461.00,1.0068
4460.00,0.9980
4459.00,0.9892
4458.00,0.9804
4457.00,0.9716
4456.00,0.9627
4455.00,0.9538
4454.00,0.9449
4453.00,0.9361
4452.00,0.9274
4451.00,0.9188
4450.00,0.9102
4449.00,0.9017
4448.00,0.8933
4447.00,0.8850
4446.00,0.8767
4445.00,0.8686
4444.00,0.8606
4443.00,0.8527
4442.00,0.8450
4441.00,0.8375
4440.00,0.8302
4439.00,0.8230
4438.00,0.8160
4437.00,0.8092
4436.00,0.8026
4435.00,0.7962
4434.00,0.7901
4433.00,0.7843
4432.00,0.7787
4431.00,0.7734
4430.00,0.7683
4429.00,0.7635
4428.00,0.7589
4427.00,0.7547
4426.00,0.7509
4425.00,0.7473
4424.00,0.7441
4423.00,0.7412
4422.00,0.7386
4421.00,0.7364
4420.00,0.7346
4419.00,0.7331
4418.00,0.7319
4417.00,0.7310
4416.00,0.7305
4415.00,0.7303
4414.00,0.7305
4413.00,0.7311
4412.00,0.7320
4411.00,0.7333
4410.00,0.7348
4409.00,0.7367
4408.00,0.7389
4407.00,0.7414
4406.00,0.7442
4405.00,0.7473
4404.00,0.7507
4403.00,0.7544
4402.00,0.7584
4401.00,0.7626
4400.00,0.7672
4399.00,0.7719
4398.00,0.7770
4397.00,0.7822
4396.00,0.7877
4395.00,0.7933
4394.00,0.7992
4393.00,0.8053
4392.00,0.8115
4391.00,0.8180
4390.00,0.8246
4389.00,0.8313
4388.00,0.8381
4387.00,0.8451
4386.00,0.8522
4385.00,0.8594
4384.00,0.8668
4383.00,0.8742
4382.00,0.8817
4381.00,0.8894
4380.00,0.8971
4379.00,0.9048
4378.00,0.9126
4377.00,0.9205
4376.00,0.9283
4375.00,0.9361
4374.00,0.9440
4373.00,0.9519
4372.00,0.9598
4371.00,0.9677
4370.00,0.9755
4369.00,0.9834
4368.00,0.9912
4367.00,0.9991
4366.00,1.0070
4365.00,1.0149
4364.00,1.0227
4363.00,1.0305
4362.00,1.0383
4361.00,1.0461
4360.00,1.0538
4359.00,1.0616
4358.00,1.0694
4357.00,1.0772
4356.00,1.0851
4355.00,1.0930
4354.00,1.1009
4353.00,1.1089
4352.00,1.1169
4351.00,1.1249
4350.00,1.1328
4349.00,1.1408
4348.00,1.1487
4347.00,1.1565
4346.00,1.1644
4345.00,1.1723
4344.00,1.1801
4343.00,1.1880
4342.00,1.1958
4341.00,1.2035
4340.00,1.2112
4339.00,1.2188
4338.00,1.2265
4337.00,1.2341
4336.00,1.2417
4335.00,1.2493
4334.00,1.2569
4333.00,1.2645
4332.00,1.2720
4331.00,1.2794
4330.00,1.2868
4329.00,1.2941
4328.00,1.3016
4327.00,1.3090
4326.00,1.3164
4325.00,1.3237
4324.00,1.3309
4323.00,1.3381
4322.00,1.3453
4321.00,1.3525
4320.00,1.3594
4319.00,1.3662
4318.00,1.3728
4317.00,1.3794
4316.00,1.3858
4315.00,1.3922
4314.00,1.3985
4313.00,1.4048
4312.00,1.4111
4311.00,1.4174
4310.00,1.4235
4309.00,1.4294
4308.00,1.4352
4307.00,1.4409
4306.00,1.4466
4305.00,1.4524
4304.00,1.4580
4303.00,1.4635
4302.00,1.4689
4301.00,1.4741
4300.00,1.4794
4299.00,1.4847
4298.00,1.4898
4297.00,1.4949
4296.00,1.4998
4295.00,1.5047
4294.00,1.5096
4293.00,1.5144
4292.00,1.5191
4291.00,1.5238
4290.00,1.5284
4289.00,1.5330
4288.00,1.5374
4287.00,1.5418
4286.00,1.5460
4285.00,1.5502
4284.00,1.5542
4283.00,1.5581
4282.00,1.5617
4281.00,1.5651
4280.00,1.5686
4279.00,1.5723
4278.00,1.5760
4277.00,1.5796
4276.00,1.5830
4275.00,1.5862
4274.00,1.5892
4273.00,1.5922
4272.00,1.5952
4271.00,1.5982
4270.00,1.6013
4269.00,1.6042
4268.00,1.6071
4267.00,1.6099
4266.00,1.6128
4265.00,1.6156
4264.00,1.6183
4263.00,1.6208
4262.00,1.6233
4261.00,1.6256
4260.00,1.6280
4259.00,1.6304
4258.00,1.6328
4257.00,1.6352
4256.00,1.6375
4255.00,1.6398
4254.00,1.6420
4253.00,1.6441
4252.00,1.6460
4251.00,1.6478
4250.00,1.6494
4249.00,1.6510
4248.00,1.6524
4247.00,1.6538
4246.00,1.6552
4245.00,1.6566
4244.00,1.6581
4243.00,1.6596
4242.00,1.6610
4241.00,1.6623
4240.00,1.6636
4239.00,1.6650
4238.00,1.6664
4237.00,1.6676
4236.00,1.6687
4235.00,1.6697
4234.00,1.6707
4233.00,1.6717
4232.00,1.6725
4231.00,1.6730
4230.00,1.6733
4229.00,1.6736
4228.00,1.6739
4227.00,1.6744
4226.00,1.6748
4225.00,1.6752
4224.00,1.6756
4223.00,1.6760
4222.00,1.6764
4221.00,1.6766
4220.00,1.6766
4219.00,1.6766
4218.00,1.6768
4217.00,1.6771
4216.00,1.6774
4215.00,1.6773
4214.00,1.6768
4213.00,1.6760
4212.00,1.6753
4211.00,1.6747
4210.00,1.6742
4209.00,1.6737
4208.00,1.6730
4207.00,1.6722
4206.00,1.6713
4205.00,1.6703
4204.00,1.6693
4203.00,1.6683
4202.00,1.6672
4201.00,1.6661
4200.00,1.6649
4199.00,1.6637
4198.00,1.6626
4197.00,1.6614
4196.00,1.6601
4195.00,1.6587
4194.00,1.6571
4193.00,1.6556
4192.00,1.6541
4191.00,1.6526
4190.00,1.6510
4189.00,1.6492
4188.00,1.6472
4187.00,1.6450
4186.00,1.6429
4185.00,1.6408
4184.00,1.6388
4183.00,1.6368
4182.00,1.6347
4181.00,1.6325
4180.00,1.6302
4179.00,1.6278
4178.00,1.6253
4177.00,1.6226
4176.00,1.6199
4175.00,1.6171
4174.00,1.6143
4173.00,1.6113
4172.00,1.6082
4171.00,1.6051
4170.00,1.6021
4169.00,1.5991
4168.00,1.5960
4167.00,1.5928
4166.00,1.5895
4165.00,1.5861
4164.00,1.5826
4163.00,1.5790
4162.00,1.5753
4161.00,1.5716
4160.00,1.5678
4159.00,1.5640
4158.00,1.5602
4157.00,1.5562
4156.00,1.5522
4155.00,1.5481
4154.00,1.5439
4153.00,1.5397
4152.00,1.5353
4151.00,1.5308
4150.00,1.5261
4149.00,1.5213
4148.00,1.5164
4147.00,1.5115
4146.00,1.5066
4145.00,1.5016
4144.00,1.4966
4143.00,1.4915
4142.00,1.4862
4141.00,1.4808
4140.00,1.4753
4139.00,1.4698
4138.00,1.4642
4137.00,1.4585
4136.00,1.4527
4135.00,1.4468
4134.00,1.4408
4133.00,1.4346
4132.00,1.4283
4131.00,1.4218
4130.00,1.4153
4129.00,1.4087
4128.00,1.4021
4127.00,1.3955
4126.00,1.3888
4125.00,1.3819
4124.00,1.3749
4123.00,1.3678
4122.00,1.3605
4121.00,1.3532
4120.00,1.3457
4119.00,1.3381
4118.00,1.3305
4117.00,1.3228
4116.00,1.3149
4115.00,1.3070
4114.00,1.2989
4113.00,1.2908
4112.00,1.2826
4111.00,1.2742
4110.00,1.2657
4109.00,1.2571
4108.00,1.2484
4107.00,1.2395
4106.00,1.2305
4105.00,1.2214
4104.00,1.2121
4103.00,1.2027
4102.00,1.1933
4101.00,1.1838
4100.00,1.1743
4099.00,1.1648
4098.00,1.1552
4097.00,1.1455
4096.00,1.1357
4095.00,1.1257
4094.00,1.1157
4093.00,1.1056
4092.00,1.0956
4091.00,1.0855
4090.00,1.0753
4089.00,1.0651
4088.00,1.0550
4087.00,1.0448
4086.00,1.0346
4085.00,1.0245
4084.00,1.0143
4083.00,1.0041
4082.00,0.9940
4081.00,0.9839
4080.00,0.9739
4079.00,0.9639
4078.00,0.9540
4077.00,0.9442
4076.00,0.9344
4075.00,0.9247
4074.00,0.9151
4073.00,0.9056
4072.00,0.8962
4071.00,0.8870
4070.00,0.8780
4069.00,0.8692
4068.00,0.8606
4067.00,0.8523
4066.00,0.8442
4065.00,0.8364
4064.00,0.8289
4063.00,0.8217
4062.00,0.8149
4061.00,0.8085
4060.00,0.8024
4059.00,0.7967
4058.00,0.7914
4057.00,0.7865
4056.00,0.7820
4055.00,0.7780
4054.00,0.7744
4053.00,0.7713
4052.00,0.7685
4051.00,0.7662
4050.00,0.7643
4049.00,0.7628
4048.00,0.7617
4047.00,0.7612
4046.00,0.7610
4045.00,0.7612
4044.00,0.7619
4043.00,0.7629
4042.00,0.7643
4041.00,0.7660
4040.00,0.7680
4039.00,0.7704
4038.00,0.7733
4037.00,0.7765
4036.00,0.7800
4035.00,0.7839
4034.00,0.7881
4033.00,0.7926
4032.00,0.7975
4031.00,0.8028
4030.00,0.8083
4029.00,0.8142
4028.00,0.8204
4027.00,0.8268
4026.00,0.8336
4025.00,0.8406
4024.00,0.8479
4023.00,0.8553
4022.00,0.8630
4021.00,0.8709
4020.00,0.8790
4019.00,0.8872
4018.00,0.8956
4017.00,0.9040
4016.00,0.9126
4015.00,0.9214
4014.00,0.9302
4013.00,0.9391
4012.00,0.9481
4011.00,0.9571
4010.00,0.9663
4009.00,0.9755
4008.00,0.9848
4007.00,0.9942
4006.00,1.0036
4005.00,1.0130
4004.00,1.0225
4003.00,1.0320
4002.00,1.0417
4001.00,1.0514
4000.00,1.0612
3999.00,1.0710
3998.00,1.0809
3997.00,1.0908
3996.00,1.1007
3995.00,1.1106
3994.00,1.1205
3993.00,1.1305
3992.00,1.1404
3991.00,1.1504
3990.00,1.1603
3989.00,1.1703
3988.00,1.1803
3987.00,1.1902
3986.00,1.2001
3985.00,1.2100
3984.00,1.2198
3983.00,1.2296
3982.00,1.2394
3981.00,1.2491
3980.00,1.2588
3979.00,1.2685
3978.00,1.2781
3977.00,1.2876
3976.00,1.2970
3975.00,1.3063
3974.00,1.3155
3973.00,1.3246
3972.00,1.3336
3971.00,1.3426
3970.00,1.3515
3969.00,1.3604
3968.00,1.3692
3967.00,1.3779
3966.00,1.3866
3965.00,1.3951
3964.00,1.4037
3963.00,1.4122
3962.00,1.4206
3961.00,1.4288
3960.00,1.4367
3959.00,1.4445
3958.00,1.4521
3957.00,1.4598
3956.00,1.4674
3955.00,1.4748
3954.00,1.4822
3953.00,1.4896
3952.00,1.4969
3951.00,1.5042
3950.00,1.5114
3949.00,1.5183
3948.00,1.5250
3947.00,1.5314
3946.00,1.5378
3945.00,1.5440
3944.00,1.5504
3943.00,1.5569
3942.00,1.5633
3941.00,1.5694
3940.00,1.5752
3939.00,1.5807
3938.00,1.5862
3937.00,1.5917
3936.00,1.5972
3935.00,1.6026
3934.00,1.6081
3933.00,1.6137
3932.00,1.6194
3931.00,1.6250
3930.00,1.6303
3929.00,1.6354
3928.00,1.6402
3927.00,1.6450
3926.00,1.6498
3925.00,1.6548
3924.00,1.6597
3923.00,1.6643
3922.00,1.6687
3921.00,1.6729
3920.00,1.6771
3919.00,1.6813
3918.00,1.6857
3917.00,1.6900
3916.00,1.6942
3915.00,1.6984
3914.00,1.7023
3913.00,1.7062
3912.00,1.7100
3911.00,1.7137
3910.00,1.7175
3909.00,1.7213
3908.00,1.7249
3907.00,1.7282
3906.00,1.7313
3905.00,1.7344
3904.00,1.7376
3903.00,1.7409
3902.00,1.7442
3901.00,1.7471
3900.00,1.7498
3899.00,1.7525
3898.00,1.7554
3897.00,1.7584
3896.00,1.7613
3895.00,1.7641
3894.00,1.7667
3893.00,1.7690
3892.00,1.7712
3891.00,1.7734
3890.00,1.7756
3889.00,1.7777
3888.00,1.7797
3887.00,1.7817
3886.00,1.7840
3885.00,1.7865
3884.00,1.7888
3883.00,1.7907
3882.00,1.7922
3881.00,1.7938
3880.00,1.7956
3879.00,1.7976
3878.00,1.7994
3877.00,1.8009
3876.00,1.8021
3875.00,1.8032
3874.00,1.8046
3873.00,1.8060
3872.00,1.8072
3871.00,1.8079
3870.00,1.8084
3869.00,1.8089
3868.00,1.8097
3867.00,1.8104
3866.00,1.8113
3865.00,1.8123
3864.00,1.8134
3863.00,1.8144
3862.00,1.8150
3861.00,1.8156
3860.00,1.8160
3859.00,1.8162
3858.00,1.8162
3857.00,1.8159
3856.00,1.8153
3855.00,1.8147
3854.00,1.8144
3853.00,1.8146
3852.00,1.8146
3851.00,1.8143
3850.00,1.8138
3849.00,1.8135
3848.00,1.8137
3847.00,1.8142
3846.00,1.8147
3845.00,1.8149
3844.00,1.8148
3843.00,1.8144
3842.00,1.8138
3841.00,1.8129
3840.00,1.8116
3839.00,1.8100
3838.00,1.8083
3837.00,1.8069
3836.00,1.8057
3835.00,1.8047
3834.00,1.8037
3833.00,1.8027
3832.00,1.8017
3831.00,1.8008
3830.00,1.7998
3829.00,1.7987
3828.00,1.7971
3827.00,1.7954
3826.00,1.7939
3825.00,1.7926
3824.00,1.7912
3823.00,1.7892
3822.00,1.7866
3821.00,1.7838
3820.00,1.7814
3819.00,1.7790
3818.00,1.7764
3817.00,1.7734
3816.00,1.7703
3815.00,1.7677
3814.00,1.7654
3813.00,1.7632
3812.00,1.7610
3811.00,1.7588
3810.00,1.7566
3809.00,1.7542
3808.00,1.7512
3807.00,1.7479
3806.00,1.7447
3805.00,1.7415
3804.00,1.7380
3803.00,1.7341
3802.00,1.7300
3801.00,1.7262
3800.00,1.7226
3799.00,1.7190
3798.00,1.7152
3797.00,1.7114
3796.00,1.7078
3795.00,1.7044
3794.00,1.7009
3793.00,1.6973
3792.00,1.6935
3791.00,1.6895
3790.00,1.6854
3789.00,1.6810
3788.00,1.6762
3787.00,1.6712
3786.00,1.6662
3785.00,1.6612
3784.00,1.6562
3783.00,1.6511
3782.00,1.6461
3781.00,1.6408
3780.00,1.6354
3779.00,1.6299
3778.00,1.6243
3777.00,1.6186
3776.00,1.6125
3775.00,1.6065
3774.00,1.6006
3773.00,1.5948
3772.00,1.5887
3771.00,1.5822
3770.00,1.5754
3769.00,1.5687
3768.00,1.5620
3767.00,1.5552
3766.00,1.5483
3765.00,1.5413
3764.00,1.5343
3763.00,1.5273
3762.00,1.5203
3761.00,1.5130
3760.00,1.5056
3759.00,1.4979
3758.00,1.4902
3757.00,1.4824
3756.00,1.4746
3755.00,1.4667
3754.00,1.4585
3753.00,1.4496
3752.00,1.4401
3751.00,1.4301
3750.00,1.4198
3749.00,1.4098
3748.00,1.4005
3747.00,1.3915
3746.00,1.3822
3745.00,1.3720
3744.00,1.3614
3743.00,1.3512
3742.00,1.3417
3741.00,1.3328
3740.00,1.3241
3739.00,1.3156
3738.00,1.3069
3737.00,1.2973
3736.00,1.2867
3735.00,1.2753
3734.00,1.2635
3733.00,1.2513
3732.00,1.2390
3731.00,1.2271
3730.00,1.2160
3729.00,1.2052
3728.00,1.1945
3727.00,1.1835
3726.00,1.1722
3725.00,1.1606
3724.00,1.1486
3723.00,1.1362
3722.00,1.1236
3721.00,1.1110
3720.00,1.0985
3719.00,1.0860
3718.00,1.0735
3717.00,1.0612
3716.00,1.0493
3715.00,1.0377
3714.00,1.0262
3713.00,1.0144
3712.00,1.0020
3711.00,0.9890
3710.00,0.9758
3709.00,0.9628
3708.00,0.9505
3707.00,0.9390
3706.00,0.9284
3705.00,0.9185
3704.00,0.9089
3703.00,0.8993
3702.00,0.8898
3701.00,0.8802
3700.00,0.8708
3699.00,0.8620
3698.00,0.8539
3697.00,0.8466
3696.00,0.8400
3695.00,0.8342
3694.00,0.8290
3693.00,0.8245
3692.00,0.8205
3691.00,0.8171
3690.00,0.8137
3689.00,0.8103
3688.00,0.8068
3687.00,0.8037
3686.00,0.8015
3685.00,0.8005
3684.00,0.8009
3683.00,0.8025
3682.00,0.8051
3681.00,0.8081
3680.00,0.8115
3679.00,0.8152
3678.00,0.8193
3677.00,0.8237
3676.00,0.8288
3675.00,0.8343
3674.00,0.8396
3673.00,0.8445
3672.00,0.8498
3671.00,0.8564
3670.00,0.8645
3669.00,0.8735
3668.00,0.8822
3667.00,0.8905
3666.00,0.8988
3665.00,0.9078
3664.00,0.9174
3663.00,0.9275
3662.00,0.9378
3661.00,0.9480
3660.00,0.9581
3659.00,0.9680
3658.00,0.9780
3657.00,0.9885
3656.00,0.9998
3655.00,1.0113
3654.00,1.0223
3653.00,1.0324
3652.00,1.0421
3651.00,1.0525
3650.00,1.0641
3649.00,1.0767
3648.00,1.0896
3647.00,1.1022
3646.00,1.1141
3645.00,1.1255
3644.00,1.1365
3643.00,1.1473
3642.00,1.1583
3641.00,1.1695
3640.00,1.1808
3639.00,1.1921
3638.00,1.2035
3637.00,1.2147
3636.00,1.2259
3635.00,1.2371
3634.00,1.2483
3633.00,1.2592
3632.00,1.2695
3631.00,1.2792
3630.00,1.2893
3629.00,1.3008
3628.00,1.3138
3627.00,1.3271
3626.00,1.3395
3625.00,1.3506
3624.00,1.3608
3623.00,1.3706
3622.00,1.3801
3621.00,1.3894
3620.00,1.3992
3619.00,1.4098
3618.00,1.4208
3617.00,1.4316
3616.00,1.4418
3615.00,1.4515
3614.00,1.4610
3613.00,1.4705
3612.00,1.4800
3611.00,1.4894
3610.00,1.4986
3609.00,1.5078
3608.00,1.5174
3607.00,1.5273
3606.00,1.5368
3605.00,1.5460
3604.00,1.5547
3603.00,1.5633
3602.00,1.5717
3601.00,1.5802
3600.00,1.5888
3599.00,1.5974
3598.00,1.6058
3597.00,1.6139
3596.00,1.6219
3595.00,1.6299
3594.00,1.6378
3593.00,1.6455
3592.00,1.6529
3591.00,1.6601
3590.00,1.6670
3589.00,1.6739
3588.00,1.6812
3587.00,1.6886
3586.00,1.6960
3585.00,1.7032
3584.00,1.7104
3583.00,1.7175
3582.00,1.7242
3581.00,1.7306
3580.00,1.7369
3579.00,1.7432
3578.00,1.7493
3577.00,1.7553
3576.00,1.7614
3575.00,1.7675
3574.00,1.7735
3573.00,1.7795
3572.00,1.7855
3571.00,1.7915
3570.00,1.7971
3569.00,1.8025
3568.00,1.8080
3567.00,1.8137
3566.00,1.8194
3565.00,1.8249
3564.00,1.8302
3563.00,1.8350
3562.00,1.8395
3561.00,1.8440
3560.00,1.8486
3559.00,1.8534
3558.00,1.8580
3557.00,1.8625
3556.00,1.8668
3555.00,1.8710
3554.00,1.8752
3553.00,1.8796
3552.00,1.8843
3551.00,1.8888
3550.00,1.8927
3549.00,1.8962
3548.00,1.8995
3547.00,1.9030
3546.00,1.9065
3545.00,1.9099
3544.00,1.9135
3543.00,1.9170
3542.00,1.9204
3541.00,1.9237
3540.00,1.9270
3539.00,1.9303
3538.00,1.9332
3537.00,1.9359
3536.00,1.9387
3535.00,1.9416
3534.00,1.9442
3533.00,1.9467
3532.00,1.9492
3531.00,1.9519
3530.00,1.9547
3529.00,1.9575
3528.00,1.9603
3527.00,1.9631
3526.00,1.9656
3525.00,1.9677
3524.00,1.9696
3523.00,1.9712
3522.00,1.9727
3521.00,1.9741
3520.00,1.9757
3519.00,1.9777
3518.00,1.9796
3517.00,1.9814
3516.00,1.9832
3515.00,1.9850
3514.00,1.9869
3513.00,1.9887
3512.00,1.9906
3511.00,1.9921
3510.00,1.9932
3509.00,1.9940
3508.00,1.9948
3507.00,1.9957
3506.00,1.9964
3505.00,1.9971
3504.00,1.9978
3503.00,1.9987
3502.00,1.9995
3501.00,2.0003
3500.00,2.0012
3499.00,2.0022
3498.00,2.0030
3497.00,2.0034
3496.00,2.0035
3495.00,2.0034
3494.00,2.0032
3493.00,2.0033
3492.00,2.0037
3491.00,2.0040
3490.00,2.0038
3489.00,2.0033
3488.00,2.0028
3487.00,2.0027
3486.00,2.0027
3485.00,2.0025
3484.00,2.0021
3483.00,2.0015
3482.00,2.0010
3481.00,2.0008
3480.00,2.0007
3479.00,2.0005
3478.00,1.9998
3477.00,1.9987
3476.00,1.9976
3475.00,1.9966
3474.00,1.9955
3473.00,1.9941
3472.00,1.9927
3471.00,1.9914
3470.00,1.9903
3469.00,1.9893
3468.00,1.9884
3467.00,1.9872
3466.00,1.9855
3465.00,1.9835
3464.00,1.9815
3463.00,1.9797
3462.00,1.9778
3461.00,1.9759
3460.00,1.9739
3459.00,1.9720
3458.00,1.9701
3457.00,1.9680
3456.00,1.9658
3455.00,1.9634
3454.00,1.9610
3453.00,1.9587
3452.00,1.9563
3451.00,1.9540
3450.00,1.9515
3449.00,1.9488
3448.00,1.9460
3447.00,1.9428
3446.00,1.9392
3445.00,1.9355
3444.00,1.9320
3443.00,1.9289
3442.00,1.9259
3441.00,1.9230
3440.00,1.9200
3439.00,1.9167
3438.00,1.9130
3437.00,1.9091
3436.00,1.9052
3435.00,1.9013
3434.00,1.8973
3433.00,1.8932
3432.00,1.8892
3431.00,1.8853
3430.00,1.8811
3429.00,1.8769
3428.00,1.8727
3427.00,1.8685
3426.00,1.8643
3425.00,1.8601
3424.00,1.8558
3423.00,1.8514
3422.00,1.8468
3421.00,1.8423
3420.00,1.8379
3419.00,1.8338
3418.00,1.8297
3417.00,1.8255
3416.00,1.8213
3415.00,1.8172
3414.00,1.8129
3413.00,1.8087
3412.00,1.8043
3411.00,1.8000
3410.00,1.7960
3409.00,1.7922
3408.00,1.7885
3407.00,1.7847
3406.00,1.7805
3405.00,1.7762
3404.00,1.7718
3403.00,1.7673
3402.00,1.7624
3401.00,1.7569
3400.00,1.7510
3399.00,1.7448
3398.00,1.7383
3397.00,1.7315
3396.00,1.7244
3395.00,1.7170
3394.00,1.7093
3393.00,1.7013
3392.00,1.6931
3391.00,1.6845
3390.00,1.6755
3389.00,1.6663
3388.00,1.6569
3387.00,1.6475
3386.00,1.6380
3385.00,1.6285
3384.00,1.6189
3383.00,1.6093
3382.00,1.5994
3381.00,1.5892
3380.00,1.5790
3379.00,1.5687
3378.00,1.5582
3377.00,1.5477
3376.00,1.5369
3375.00,1.5260
3374.00,1.5150
3373.00,1.5038
3372.00,1.4925
3371.00,1.4811
3370.00,1.4695
3369.00,1.4578
3368.00,1.4460
3367.00,1.4341
3366.00,1.4221
3365.00,1.4100
3364.00,1.3979
3363.00,1.3856
3362.00,1.3730
3361.00,1.3603
3360.00,1.3476
3359.00,1.3347
3358.00,1.3218
3357.00,1.3088
3356.00,1.2957
3355.00,1.2826
3354.00,1.2694
3353.00,1.2562
3352.00,1.2430
3351.00,1.2298
3350.00,1.2166
3349.00,1.2035
3348.00,1.1905
3347.00,1.1776
3346.00,1.1646
3345.00,1.1517
3344.00,1.1388
3343.00,1.1261
3342.00,1.1136
3341.00,1.1012
3340.00,1.0890
3339.00,1.0771
3338.00,1.0654
3337.00,1.0541
3336.00,1.0431
3335.00,1.0325
3334.00,1.0223
3333.00,1.0125
3332.00,1.0032
3331.00,0.9944
3330.00,0.9860
3329.00,0.9782
3328.00,0.9709
3327.00,0.9642
3326.00,0.9580
3325.00,0.9525
3324.00,0.9476
3323.00,0.9433
3322.00,0.9398
3321.00,0.9369
3320.00,0.9347
3319.00,0.9333
3318.00,0.9325
3317.00,0.9324
3316.00,0.9329
3315.00,0.9342
3314.00,0.9361
3313.00,0.9387
3312.00,0.9419
3311.00,0.9458
3310.00,0.9502
3309.00,0.9552
3308.00,0.9607
3307.00,0.9667
3306.00,0.9733
3305.00,0.9803
3304.00,0.9879
3303.00,0.9959
3302.00,1.0043
3301.00,1.0131
3300.00,1.0223
3299.00,1.0318
3298.00,1.0416
3297.00,1.0518
3296.00,1.0621
3295.00,1.0728
3294.00,1.0838
3293.00,1.0950
3292.00,1.1064
3291.00,1.1180
3290.00,1.1298
3289.00,1.1418
3288.00,1.1539
3287.00,1.1662
3286.00,1.1786
3285.00,1.1911
3284.00,1.2037
3283.00,1.2163
3282.00,1.2290
3281.00,1.2418
3280.00,1.2546
3279.00,1.2675
3278.00,1.2804
3277.00,1.2933
3276.00,1.3062
3275.00,1.3191
3274.00,1.3320
3273.00,1.3449
3272.00,1.3578
3271.00,1.3707
3270.00,1.3836
3269.00,1.3964
3268.00,1.4090
3267.00,1.4216
3266.00,1.4340
3265.00,1.4465
3264.00,1.4589
3263.00,1.4713
3262.00,1.4837
3261.00,1.4961
3260.00,1.5083
3259.00,1.5204
3258.00,1.5322
3257.00,1.5438
3256.00,1.5555
3255.00,1.5669
3254.00,1.5781
3253.00,1.5892
3252.00,1.6004
3251.00,1.6114
3250.00,1.6222
3249.00,1.6328
3248.00,1.6433
3247.00,1.6537
3246.00,1.6640
3245.00,1.6741
3244.00,1.6840
3243.00,1.6939
3242.00,1.7037
3241.00,1.7133
3240.00,1.7228
3239.00,1.7320
3238.00,1.7410
3237.00,1.7499
3236.00,1.7589
3235.00,1.7677
3234.00,1.7764
3233.00,1.7850
3232.00,1.7935
3231.00,1.8020
3230.00,1.8103
3229.00,1.8184
3228.00,1.8264
3227.00,1.8342
3226.00,1.8417
3225.00,1.8489
3224.00,1.8560
3223.00,1.8630
3222.00,1.8700
3221.00,1.8769
3220.00,1.8838
3219.00,1.8907
3218.00,1.8976
3217.00,1.9044
3216.00,1.9112
3215.00,1.9178
3214.00,1.9240
3213.00,1.9300
3212.00,1.9360
3211.00,1.9421
3210.00,1.9481
3209.00,1.9539
3208.00,1.9598
3207.00,1.9655
3206.00,1.9710
3205.00,1.9766
3204.00,1.9823
3203.00,1.9878
3202.00,1.9929
3201.00,1.9978
3200.00,2.0028
3199.00,2.0081
3198.00,2.0133
3197.00,2.0184
3196.00,2.0233
3195.00,2.0279
3194.00,2.0321
3193.00,2.0360
3192.00,2.0398
3191.00,2.0438
3190.00,2.0479
3189.00,2.0520
3188.00,2.0560
3187.00,2.0599
3186.00,2.0636
3185.00,2.0672
3184.00,2.0708
3183.00,2.0744
3182.00,2.0779
3181.00,2.0814
3180.00,2.0849
3179.00,2.0884
3178.00,2.0916
3177.00,2.0946
3176.00,2.0975
3175.00,2.1003
3174.00,2.1030
3173.00,2.1059
3172.00,2.1091
3171.00,2.1120
3170.00,2.1145
3169.00,2.1166
3168.00,2.1186
3167.00,2.1208
3166.00,2.1231
3165.00,2.1254
3164.00,2.1277
3163.00,2.1299
3162.00,2.1319
3161.00,2.1338
3160.00,2.1357
3159.00,2.1376
3158.00,2.1397
3157.00,2.1421
3156.00,2.1446
3155.00,2.1465
3154.00,2.1475
3153.00,2.1480
3152.00,2.1486
3151.00,2.1499
3150.00,2.1514
3149.00,2.1530
3148.00,2.1543
3147.00,2.1555
3146.00,2.1565
3145.00,2.1575
3144.00,2.1586
3143.00,2.1595
3142.00,2.1601
3141.00,2.1603
3140.00,2.1605
3139.00,2.1609
3138.00,2.1613
3137.00,2.1617
3136.00,2.1618
3135.00,2.1613
3134.00,2.1605
3133.00,2.1598
3132.00,2.1597
3131.00,2.1600
3130.00,2.1603
3129.00,2.1607
3128.00,2.1610
3127.00,2.1611
3126.00,2.1605
3125.00,2.1594
3124.00,2.1584
3123.00,2.1577
3122.00,2.1573
3121.00,2.1571
3120.00,2.1569
3119.00,2.1564
3118.00,2.1552
3117.00,2.1533
3116.00,2.1513
3115.00,2.1494
3114.00,2.1480
3113.00,2.1467
3112.00,2.1455
3111.00,2.1440
3110.00,2.1422
3109.00,2.1400
3108.00,2.1376
3107.00,2.1351
3106.00,2.1326
3105.00,2.1302
3104.00,2.1280
3103.00,2.1258
3102.00,2.1236
3101.00,2.1213
3100.00,2.1187
3099.00,2.1160
3098.00,2.1133
3097.00,2.1108
3096.00,2.1085
3095.00,2.1060
3094.00,2.1027
3093.00,2.0988
3092.00,2.0947
3091.00,2.0908
3090.00,2.0874
3089.00,2.0842
3088.00,2.0806
3087.00,2.0763
3086.00,2.0715
3085.00,2.0668
3084.00,2.0625
3083.00,2.0583
3082.00,2.0539
3081.00,2.0492
3080.00,2.0444
3079.00,2.0394
3078.00,2.0342
3077.00,2.0288
3076.00,2.0233
3075.00,2.0179
3074.00,2.0125
3073.00,2.0069
3072.00,2.0012
3071.00,1.9953
3070.00,1.9893
3069.00,1.9832
3068.00,1.9769
3067.00,1.9702
3066.00,1.9632
3065.00,1.9560
3064.00,1.9489
3063.00,1.9418
3062.00,1.9344
3061.00,1.9268
3060.00,1.9191
3059.00,1.9113
3058.00,1.9034
3057.00,1.8954
3056.00,1.8871
3055.00,1.8785
3054.00,1.8695
3053.00,1.8602
3052.00,1.8507
3051.00,1.8410
3050.00,1.8310
3049.00,1.8209
3048.00,1.8104
3047.00,1.7996
3046.00,1.7884
3045.00,1.7770
3044.00,1.7652
3043.00,1.7530
3042.00,1.7404
3041.00,1.7274
3040.00,1.7140
3039.00,1.7003
3038.00,1.6862
3037.00,1.6717
3036.00,1.6570
3035.00,1.6421
3034.00,1.6271
3033.00,1.6119
3032.00,1.5965
3031.00,1.5806
3030.00,1.5642
3029.00,1.5475
3028.00,1.5306
3027.00,1.5135
3026.00,1.4960
3025.00,1.4780
3024.00,1.4596
3023.00,1.4408
3022.00,1.4215
3021.00,1.4019
3020.00,1.3822
3019.00,1.3623
3018.00,1.3423
3017.00,1.3223
3016.00,1.3023
3015.00,1.2827
3014.00,1.2633
3013.00,1.2445
3012.00,1.2264
3011.00,1.2093
3010.00,1.1932
3009.00,1.1785
3008.00,1.1654
3007.00,1.1542
3006.00,1.1451
3005.00,1.1383
3004.00,1.1341
3003.00,1.1325
3002.00,1.1337
3001.00,1.1378
3000.00,1.1449
2999.00,1.1550
2998.00,1.1680
2997.00,1.1839
2996.00,1.2026
2995.00,1.2241
2994.00,1.2480
2993.00,1.2742
2992.00,1.3025
2991.00,1.3328
2990.00,1.3647
2989.00,1.3983
2988.00,1.4334
2987.00,1.4698
2986.00,1.5075
2985.00,1.5461
2984.00,1.5856
2983.00,1.6259
2982.00,1.6668
2981.00,1.7083
2980.00,1.7502
2979.00,1.7924
2978.00,1.8347
2977.00,1.8771
2976.00,1.9199
2975.00,1.9629
2974.00,2.0058
2973.00,2.0482
2972.00,2.0902
2971.00,2.1321
2970.00,2.1736
2969.00,2.2147
2968.00,2.2554
2967.00,2.2959
2966.00,2.3366
2965.00,2.3772
2964.00,2.4175
2963.00,2.4567
2962.00,2.4940
2961.00,2.5292
2960.00,2.5621
2959.00,2.5929
2958.00,2.6215
2957.00,2.6481
2956.00,2.6734
2955.00,2.6977
2954.00,2.7212
2953.00,2.7442
2952.00,2.7672
2951.00,2.7907
2950.00,2.8161
2949.00,2.8446
2948.00,2.8770
2947.00,2.9113
2946.00,2.9445
2945.00,2.9742
2944.00,2.9999
2943.00,3.0216
2942.00,3.0397
2941.00,3.0549
2940.00,3.0684
2939.00,3.0807
2938.00,3.0909
2937.00,3.0972
2936.00,3.0980
2935.00,3.0915
2934.00,3.0776
2933.00,3.0574
2932.00,3.0316
2931.00,2.9998
2930.00,2.9623
2929.00,2.9209
2928.00,2.8780
2927.00,2.8345
2926.00,2.7904
2925.00,2.7456
2924.00,2.6999
2923.00,2.6536
2922.00,2.6075
2921.00,2.5625
2920.00,2.5185
2919.00,2.4751
2918.00,2.4318
2917.00,2.3891
2916.00,2.3471
2915.00,2.3062
2914.00,2.2670
2913.00,2.2304
2912.00,2.1971
2911.00,2.1671
2910.00,2.1401
2909.00,2.1158
2908.00,2.0940
2907.00,2.0742
2906.00,2.0556
2905.00,2.0378
2904.00,2.0205
2903.00,2.0034
2902.00,1.9865
2901.00,1.9701
2900.00,1.9543
2899.00,1.9395
2898.00,1.9261
2897.00,1.9144
2896.00,1.9045
2895.00,1.8963
2894.00,1.8896
2893.00,1.8845
2892.00,1.8812
2891.00,1.8799
2890.00,1.8804
2889.00,1.8828
2888.00,1.8876
2887.00,1.8950
2886.00,1.9052
2885.00,1.9180
2884.00,1.9334
2883.00,1.9513
2882.00,1.9714
2881.00,1.9935
2880.00,2.0176
2879.00,2.0435
2878.00,2.0711
2877.00,2.1001
2876.00,2.1305
2875.00,2.1621
2874.00,2.1948
2873.00,2.2283
2872.00,2.2631
2871.00,2.2991
2870.00,2.3359
2869.00,2.3721
2868.00,2.4063
2867.00,2.4367
2866.00,2.4622
2865.00,2.4817
2864.00,2.4938
2863.00,2.4965
2862.00,2.4888
2861.00,2.4710
2860.00,2.4443
2859.00,2.4095
2858.00,2.3669
2857.00,2.3169
2856.00,2.2610
2855.00,2.2007
2854.00,2.1378
2853.00,2.0739
2852.00,2.0106
2851.00,1.9491
2850.00,1.8910
2849.00,1.8376
2848.00,1.7903
2847.00,1.7502
2846.00,1.7176
2845.00,1.6928
2844.00,1.6755
2843.00,1.6650
2842.00,1.6606
2841.00,1.6617
2840.00,1.6674
2839.00,1.6768
2838.00,1.6891
2837.00,1.7036
2836.00,1.7196
2835.00,1.7368
2834.00,1.7544
2833.00,1.7723
2832.00,1.7899
2831.00,1.8071
2830.00,1.8233
2829.00,1.8384
2828.00,1.8523
2827.00,1.8651
2826.00,1.8771
2825.00,1.8883
2824.00,1.8990
2823.00,1.9095
2822.00,1.9198
2821.00,1.9301
2820.00,1.9405
2819.00,1.9510
2818.00,1.9618
2817.00,1.9729
2816.00,1.9844
2815.00,1.9961
2814.00,2.0079
2813.00,2.0196
2812.00,2.0310
2811.00,2.0421
2810.00,2.0531
2809.00,2.0640
2808.00,2.0751
2807.00,2.0863
2806.00,2.0973
2805.00,2.1079
2804.00,2.1178
2803.00,2.1272
2802.00,2.1363
2801.00,2.1455
2800.00,2.1550
2799.00,2.1643
2798.00,2.1732
2797.00,2.1813
2796.00,2.1887
2795.00,2.1953
2794.00,2.2014
2793.00,2.2077
2792.00,2.2145
2791.00,2.2219
2790.00,2.2291
2789.00,2.2358
2788.00,2.2417
2787.00,2.2474
2786.00,2.2528
2785.00,2.2584
2784.00,2.2640
2783.00,2.2698
2782.00,2.2755
2781.00,2.2812
2780.00,2.2867
2779.00,2.2922
2778.00,2.2974
2777.00,2.3025
2776.00,2.3071
2775.00,2.3112
2774.00,2.3148
2773.00,2.3183
2772.00,2.3221
2771.00,2.3263
2770.00,2.3308
2769.00,2.3352
2768.00,2.3391
2767.00,2.3425
2766.00,2.3453
2765.00,2.3478
2764.00,2.3505
2763.00,2.3535
2762.00,2.3572
2761.00,2.3617
2760.00,2.3665
2759.00,2.3705
2758.00,2.3732
2757.00,2.3748
2756.00,2.3762
2755.00,2.3780
2754.00,2.3799
2753.00,2.3817
2752.00,2.3834
2751.00,2.3852
2750.00,2.3873
2749.00,2.3897
2748.00,2.3920
2747.00,2.3942
2746.00,2.3960
2745.00,2.3977
2744.00,2.3992
2743.00,2.4005
2742.00,2.4017
2741.00,2.4028
2740.00,2.4040
2739.00,2.4052
2738.00,2.4065
2737.00,2.4079
2736.00,2.4092
2735.00,2.4101
2734.00,2.4106
2733.00,2.4111
2732.00,2.4115
2731.00,2.4115
2730.00,2.4111
2729.00,2.4106
2728.00,2.4104
2727.00,2.4107
2726.00,2.4110
2725.00,2.4112
2724.00,2.4113
2723.00,2.4113
2722.00,2.4112
2721.00,2.4108
2720.00,2.4101
2719.00,2.4091
2718.00,2.4080
2717.00,2.4070
2716.00,2.4064
2715.00,2.4064
2714.00,2.4066
2713.00,2.4066
2712.00,2.4059
2711.00,2.4041
2710.00,2.4015
2709.00,2.3986
2708.00,2.3962
2707.00,2.3944
2706.00,2.3931
2705.00,2.3919
2704.00,2.3906
2703.00,2.3890
2702.00,2.3870
2701.00,2.3848
2700.00,2.3827
2699.00,2.3808
2698.00,2.3789
2697.00,2.3772
2696.00,2.3751
2695.00,2.3724
2694.00,2.3688
2693.00,2.3650
2692.00,2.3618
2691.00,2.3594
2690.00,2.3570
2689.00,2.3538
2688.00,2.3497
2687.00,2.3451
2686.00,2.3406
2685.00,2.3367
2684.00,2.3339
2683.00,2.3320
2682.00,2.3305
2681.00,2.3290
2680.00,2.3270
2679.00,2.3242
2678.00,2.3206
2677.00,2.3165
2676.00,2.3124
2675.00,2.3090
2674.00,2.3062
2673.00,2.3040
2672.00,2.3017
2671.00,2.2990
2670.00,2.2958
2669.00,2.2925
2668.00,2.2893
2667.00,2.2858
2666.00,2.2816
2665.00,2.2764
2664.00,2.2707
2663.00,2.2647
2662.00,2.2585
2661.00,2.2521
2660.00,2.2458
2659.00,2.2395
2658.00,2.2334
2657.00,2.2273
2656.00,2.2211
2655.00,2.2148
2654.00,2.2085
2653.00,2.2023
2652.00,2.1961
2651.00,2.1897
2650.00,2.1829
2649.00,2.1757
2648.00,2.1684
2647.00,2.1612
2646.00,2.1538
2645.00,2.1464
2644.00,2.1389
2643.00,2.1311
2642.00,2.1230
2641.00,2.1147
2640.00,2.1062
2639.00,2.0975
2638.00,2.0886
2637.00,2.0795
2636.00,2.0699
2635.00,2.0600
2634.00,2.0498
2633.00,2.0395
2632.00,2.0290
2631.00,2.0185
2630.00,2.0078
2629.00,1.9970
2628.00,1.9861
2627.00,1.9747
2626.00,1.9630
2625.00,1.9509
2624.00,1.9389
2623.00,1.9270
2622.00,1.9153
2621.00,1.9036
2620.00,1.8915
2619.00,1.8790
2618.00,1.8661
2617.00,1.8533
2616.00,1.8405
2615.00,1.8277
2614.00,1.8146
2613.00,1.8012
2612.00,1.7873
2611.00,1.7733
2610.00,1.7591
2609.00,1.7449
2608.00,1.7305
2607.00,1.7156
2606.00,1.6999
2605.00,1.6835
2604.00,1.6664
2603.00,1.6487
2602.00,1.6304
2601.00,1.6118
2600.00,1.5929
2599.00,1.5737
2598.00,1.5542
2597.00,1.5344
2596.00,1.5143
2595.00,1.4941
2594.00,1.4736
2593.00,1.4532
2592.00,1.4329
2591.00,1.4128
2590.00,1.3927
2589.00,1.3727
2588.00,1.3530
2587.00,1.3334
2586.00,1.3142
2585.00,1.2951
2584.00,1.2764
2583.00,1.2581
2582.00,1.2402
2581.00,1.2230
2580.00,1.2064
2579.00,1.1908
2578.00,1.1760
2577.00,1.1622
2576.00,1.1496
2575.00,1.1381
2574.00,1.1278
2573.00,1.1187
2572.00,1.1108
2571.00,1.1041
2570.00,1.0987
2569.00,1.0946
2568.00,1.0917
2567.00,1.0900
2566.00,1.0894
2565.00,1.0899
2564.00,1.0917
2563.00,1.0946
2562.00,1.0987
2561.00,1.1041
2560.00,1.1106
2559.00,1.1183
2558.00,1.1271
2557.00,1.1370
2556.00,1.1479
2555.00,1.1598
2554.00,1.1725
2553.00,1.1861
2552.00,1.2004
2551.00,1.2154
2550.00,1.2311
2549.00,1.2474
2548.00,1.2641
2547.00,1.2812
2546.00,1.2986
2545.00,1.3162
2544.00,1.3340
2543.00,1.3521
2542.00,1.3703
2541.00,1.3885
2540.00,1.4069
2539.00,1.4252
2538.00,1.4436
2537.00,1.4620
2536.00,1.4805
2535.00,1.4989
2534.00,1.5172
2533.00,1.5353
2532.00,1.5534
2531.00,1.5714
2530.00,1.5894
2529.00,1.6073
2528.00,1.6250
2527.00,1.6425
2526.00,1.6599
2525.00,1.6773
2524.00,1.6946
2523.00,1.7119
2522.00,1.7288
2521.00,1.7455
2520.00,1.7620
2519.00,1.7785
2518.00,1.7949
2517.00,1.8111
2516.00,1.8272
2515.00,1.8431
2514.00,1.8589
2513.00,1.8744
2512.00,1.8899
2511.00,1.9053
2510.00,1.9205
2509.00,1.9352
2508.00,1.9496
2507.00,1.9637
2506.00,1.9776
2505.00,1.9915
2504.00,2.0054
2503.00,2.0191
2502.00,2.0322
2501.00,2.0448
2500.00,2.0571
2499.00,2.0693
2498.00,2.0815
2497.00,2.0935
2496.00,2.1051
2495.00,2.1164
2494.00,2.1274
2493.00,2.1385
2492.00,2.1496
2491.00,2.1607
2490.00,2.1714
2489.00,2.1815
2488.00,2.1913
2487.00,2.2011
2486.00,2.2110
2485.00,2.2207
2484.00,2.2301
2483.00,2.2392
2482.00,2.2482
2481.00,2.2573
2480.00,2.2666
2479.00,2.2758
2478.00,2.2846
2477.00,2.2929
2476.00,2.3010
2475.00,2.3092
2474.00,2.3176
2473.00,2.3261
2472.00,2.3343
2471.00,2.3420
2470.00,2.3495
2469.00,2.3571
2468.00,2.3644
2467.00,2.3709
2466.00,2.3765
2465.00,2.3818
2464.00,2.3880
2463.00,2.3951
2462.00,2.4020
2461.00,2.4080
2460.00,2.4135
2459.00,2.4190
2458.00,2.4248
2457.00,2.4306
2456.00,2.4361
2455.00,2.4412
2454.00,2.4465
2453.00,2.4521
2452.00,2.4580
2451.00,2.4639
2450.00,2.4698
2449.00,2.4757
2448.00,2.4812
2447.00,2.4862
2446.00,2.4906
2445.00,2.4949
2444.00,2.4995
2443.00,2.5045
2442.00,2.5095
2441.00,2.5145
2440.00,2.5193
2439.00,2.5234
2438.00,2.5267
2437.00,2.5297
2436.00,2.5331
2435.00,2.5372
2434.00,2.5413
2433.00,2.5452
2432.00,2.5493
2431.00,2.5540
2430.00,2.5590
2429.00,2.5638
2428.00,2.5676
2427.00,2.5699
2426.00,2.5714
2425.00,2.5732
2424.00,2.5765
2423.00,2.5806
2422.00,2.5844
2421.00,2.5873
2420.00,2.5900
2419.00,2.5930
2418.00,2.5963
2417.00,2.5996
2416.00,2.6024
2415.00,2.6047
2414.00,2.6062
2413.00,2.6071
2412.00,2.6084
2411.00,2.6108
2410.00,2.6136
2409.00,2.6163
2408.00,2.6186
2407.00,2.6208
2406.00,2.6226
2405.00,2.6239
2404.00,2.6245
2403.00,2.6252
2402.00,2.6263
2401.00,2.6278
2400.00,2.6295
2399.00,2.6318
2398.00,2.6344
2397.00,2.6367
2396.00,2.6377
2395.00,2.6373
2394.00,2.6365
2393.00,2.6364
2392.00,2.6376
2391.00,2.6397
2390.00,2.6421
2389.00,2.6444
2388.00,2.6466
2387.00,2.6481
2386.00,2.6482
2385.00,2.6468
2384.00,2.6450
2383.00,2.6438
2382.00,2.6438
2381.00,2.6445
2380.00,2.6454
2379.00,2.6458
2378.00,2.6458
2377.00,2.6457
2376.00,2.6461
2375.00,2.6471
2374.00,2.6482
2373.00,2.6485
2372.00,2.6479
2371.00,2.6473
2370.00,2.6473
2369.00,2.6477
2368.00,2.6474
2367.00,2.6459
2366.00,2.6439
2365.00,2.6429
2364.00,2.6435
2363.00,2.6450
2362.00,2.6458
2361.00,2.6447
2360.00,2.6418
2359.00,2.6386
2358.00,2.6372
2357.00,2.6380
2356.00,2.6391
2355.00,2.6382
2354.00,2.6340
2353.00,2.6273
2352.00,2.6190
2351.00,2.6114
2350.00,2.6077
2349.00,2.6096
2348.00,2.6164
2347.00,2.6241
2346.00,2.6287
2345.00,2.6281
2344.00,2.6233
2343.00,2.6170
2342.00,2.6109
2341.00,2.6063
2340.00,2.6028
2339.00,2.5999
2338.00,2.5967
2337.00,2.5934
2336.00,2.5903
2335.00,2.5880
2334.00,2.5862
2333.00,2.5849
2332.00,2.5835
2331.00,2.5815
2330.00,2.5785
2329.00,2.5742
2328.00,2.5696
2327.00,2.5651
2326.00,2.5616
2325.00,2.5581
2324.00,2.5541
2323.00,2.5498
2322.00,2.5455
2321.00,2.5419
2320.00,2.5382
2319.00,2.5339
2318.00,2.5290
2317.00,2.5243
2316.00,2.5199
2315.00,2.5154
2314.00,2.5108
2313.00,2.5061
2312.00,2.5015
2311.00,2.4965
2310.00,2.4907
2309.00,2.4845
2308.00,2.4787
2307.00,2.4734
2306.00,2.4683
2305.00,2.4627
2304.00,2.4566
2303.00,2.4506
2302.00,2.4453
2301.00,2.4407
2300.00,2.4361
2299.00,2.4307
2298.00,2.4247
2297.00,2.4186
2296.00,2.4128
2295.00,2.4071
2294.00,2.4010
2293.00,2.3945
2292.00,2.3875
2291.00,2.3799
2290.00,2.3720
2289.00,2.3644
2288.00,2.3572
2287.00,2.3499
2286.00,2.3419
2285.00,2.3330
2284.00,2.3236
2283.00,2.3144
2282.00,2.3057
2281.00,2.2977
2280.00,2.2894
2279.00,2.2801
2278.00,2.2699
2277.00,2.2592
2276.00,2.2487
2275.00,2.2384
2274.00,2.2281
2273.00,2.2179
2272.00,2.2077
2271.00,2.1972
2270.00,2.1862
2269.00,2.1745
2268.00,2.1626
2267.00,2.1504
2266.00,2.1381
2265.00,2.1257
2264.00,2.1131
2263.00,2.1001
2262.00,2.0867
2261.00,2.0728
2260.00,2.0587
2259.00,2.0444
2258.00,2.0300
2257.00,2.0154
2256.00,2.0006
2255.00,1.9854
2254.00,1.9695
2253.00,1.9530
2252.00,1.9362
2251.00,1.9191
2250.00,1.9018
2249.00,1.8841
2248.00,1.8660
2247.00,1.8476
2246.00,1.8289
2245.00,1.8101
2244.00,1.7911
2243.00,1.7717
2242.00,1.7519
2241.00,1.7316
2240.00,1.7110
2239.00,1.6900
2238.00,1.6687
2237.00,1.6474
2236.00,1.6259
2235.00,1.6042
2234.00,1.5823
2233.00,1.5601
2232.00,1.5379
2231.00,1.5157
2230.00,1.4935
2229.00,1.4716
2228.00,1.4500
2227.00,1.4288
2226.00,1.4081
2225.00,1.3879
2224.00,1.3685
2223.00,1.3500
2222.00,1.3323
2221.00,1.3156
2220.00,1.3002
2219.00,1.2861
2218.00,1.2735
2217.00,1.2626
2216.00,1.2534
2215.00,1.2460
2214.00,1.2404
2213.00,1.2366
2212.00,1.2344
2211.00,1.2339
2210.00,1.2350
2209.00,1.2376
2208.00,1.2418
2207.00,1.2477
2206.00,1.2551
2205.00,1.2640
2204.00,1.2744
2203.00,1.2859
2202.00,1.2985
2201.00,1.3120
2200.00,1.3263
2199.00,1.3415
2198.00,1.3575
2197.00,1.3742
2196.00,1.3918
2195.00,1.4101
2194.00,1.4291
2193.00,1.4487
2192.00,1.4689
2191.00,1.4894
2190.00,1.5103
2189.00,1.5316
2188.00,1.5530
2187.00,1.5746
2186.00,1.5962
2185.00,1.6177
2184.00,1.6393
2183.00,1.6610
2182.00,1.6827
2181.00,1.7044
2180.00,1.7259
2179.00,1.7470
2178.00,1.7675
2177.00,1.7874
2176.00,1.8067
2175.00,1.8252
2174.00,1.8432
2173.00,1.8607
2172.00,1.8781
2171.00,1.8956
2170.00,1.9132
2169.00,1.9308
2168.00,1.9485
2167.00,1.9660
2166.00,1.9834
2165.00,2.0009
2164.00,2.0188
2163.00,2.0366
2162.00,2.0541
2161.00,2.0713
2160.00,2.0884
2159.00,2.1053
2158.00,2.1218
2157.00,2.1379
2156.00,2.1536
2155.00,2.1689
2154.00,2.1836
2153.00,2.1979
2152.00,2.2122
2151.00,2.2266
2150.00,2.2410
2149.00,2.2550
2148.00,2.2686
2147.00,2.2819
2146.00,2.2950
2145.00,2.3080
2144.00,2.3209
2143.00,2.3335
2142.00,2.3455
2141.00,2.3571
2140.00,2.3686
2139.00,2.3803
2138.00,2.3915
2137.00,2.4021
2136.00,2.4123
2135.00,2.4228
2134.00,2.4337
2133.00,2.4446
2132.00,2.4550
2131.00,2.4645
2130.00,2.4729
2129.00,2.4808
2128.00,2.4891
2127.00,2.4982
2126.00,2.5080
2125.00,2.5178
2124.00,2.5272
2123.00,2.5359
2122.00,2.5439
2121.00,2.5516
2120.00,2.5598
2119.00,2.5685
2118.00,2.5770
2117.00,2.5848
2116.00,2.5919
2115.00,2.5988
2114.00,2.6058
2113.00,2.6130
2112.00,2.6204
2111.00,2.6277
2110.00,2.6347
2109.00,2.6414
2108.00,2.6482
2107.00,2.6554
2106.00,2.6628
2105.00,2.6701
2104.00,2.6768
2103.00,2.6830
2102.00,2.6887
2101.00,2.6942
2100.00,2.6997
2099.00,2.7052
2098.00,2.7107
2097.00,2.7164
2096.00,2.7226
2095.00,2.7288
2094.00,2.7340
2093.00,2.7379
2092.00,2.7406
2091.00,2.7429
2090.00,2.7455
2089.00,2.7494
2088.00,2.7555
2087.00,2.7635
2086.00,2.7714
2085.00,2.7776
2084.00,2.7815
2083.00,2.7839
2082.00,2.7864
2081.00,2.7901
2080.00,2.7951
2079.00,2.8005
2078.00,2.8049
2077.00,2.8083
2076.00,2.8118
2075.00,2.8157
2074.00,2.8192
2073.00,2.8213
2072.00,2.8229
2071.00,2.8255
2070.00,2.8295
2069.00,2.8343
2068.00,2.8395
2067.00,2.8446
2066.00,2.8492
2065.00,2.8525
2064.00,2.8544
2063.00,2.8561
2062.00,2.8584
2061.00,2.8616
2060.00,2.8651
2059.00,2.8682
2058.00,2.8699
2057.00,2.8704
2056.00,2.8709
2055.00,2.8722
2054.00,2.8740
2053.00,2.8760
2052.00,2.8788
2051.00,2.8826
2050.00,2.8866
2049.00,2.8894
2048.00,2.8903
2047.00,2.8901
2046.00,2.8898
2045.00,2.8905
2044.00,2.8925
2043.00,2.8956
2042.00,2.8989
2041.00,2.9013
2040.00,2.9019
2039.00,2.9004
2038.00,2.8976
2037.00,2.8950
2036.00,2.8947
2035.00,2.8970
2034.00,2.9003
2033.00,2.9028
2032.00,2.9040
2031.00,2.9048
2030.00,2.9059
2029.00,2.9074
2028.00,2.9089
2027.00,2.9097
2026.00,2.9093
2025.00,2.9075
2024.00,2.9056
2023.00,2.9048
2022.00,2.9052
2021.00,2.9065
2020.00,2.9084
2019.00,2.9108
2018.00,2.9131
2017.00,2.9147
2016.00,2.9151
2015.00,2.9145
2014.00,2.9137
2013.00,2.9130
2012.00,2.9125
2011.00,2.9115
2010.00,2.9095
2009.00,2.9078
2008.00,2.9084
2007.00,2.9120
2006.00,2.9157
2005.00,2.9153
2004.00,2.9095
2003.00,2.9014
2002.00,2.8952
2001.00,2.8926
2000.00,2.8921
1999.00,2.8918
1998.00,2.8908
1997.00,2.8902
1996.00,2.8905
1995.00,2.8907
1994.00,2.8889
1993.00,2.8847
1992.00,2.8795
1991.00,2.8753
1990.00,2.8726
1989.00,2.8704
1988.00,2.8682
1987.00,2.8660
1986.00,2.8648
1985.00,2.8648
1984.00,2.8656
1983.00,2.8653
1982.00,2.8626
1981.00,2.8579
1980.00,2.8528
1979.00,2.8492
1978.00,2.8473
1977.00,2.8465
1976.00,2.8454
1975.00,2.8430
1974.00,2.8393
1973.00,2.8357
1972.00,2.8332
1971.00,2.8311
1970.00,2.8278
1969.00,2.8229
1968.00,2.8177
1967.00,2.8129
1966.00,2.8083
1965.00,2.8032
1964.00,2.7978
1963.00,2.7927
1962.00,2.7880
1961.00,2.7835
1960.00,2.7789
1959.00,2.7738
1958.00,2.7684
1957.00,2.7629
1956.00,2.7580
1955.00,2.7534
1954.00,2.7481
1953.00,2.7418
1952.00,2.7349
1951.00,2.7280
1950.00,2.7210
1949.00,2.7140
1948.00,2.7075
1947.00,2.7013
1946.00,2.6948
1945.00,2.6882
1944.00,2.6825
1943.00,2.6775
1942.00,2.6719
1941.00,2.6647
1940.00,2.6564
1939.00,2.6479
1938.00,2.6397
1937.00,2.6314
1936.00,2.6234
1935.00,2.6155
1934.00,2.6069
1933.00,2.5971
1932.00,2.5870
1931.00,2.5776
1930.00,2.5687
1929.00,2.5595
1928.00,2.5494
1927.00,2.5390
1926.00,2.5286
1925.00,2.5180
1924.00,2.5069
1923.00,2.4948
1922.00,2.4817
1921.00,2.4684
1920.00,2.4561
1919.00,2.4454
1918.00,2.4347
1917.00,2.4224
1916.00,2.4086
1915.00,2.3943
1914.00,2.3801
1913.00,2.3657
1912.00,2.3510
1911.00,2.3359
1910.00,2.3200
1909.00,2.3036
1908.00,2.2872
1907.00,2.2714
1906.00,2.2557
1905.00,2.2396
1904.00,2.2229
1903.00,2.2053
1902.00,2.1866
1901.00,2.1671
1900.00,2.1469
1899.00,2.1262
1898.00,2.1048
1897.00,2.0827
1896.00,2.0599
1895.00,2.0367
1894.00,2.0129
1893.00,1.9886
1892.00,1.9642
1891.00,1.9399
1890.00,1.9150
1889.00,1.8889
1888.00,1.8618
1887.00,1.8344
1886.00,1.8074
1885.00,1.7811
1884.00,1.7554
1883.00,1.7301
1882.00,1.7052
1881.00,1.6807
1880.00,1.6570
1879.00,1.6340
1878.00,1.6124
1877.00,1.5923
1876.00,1.5740
1875.00,1.5574
1874.00,1.5421
1873.00,1.5278
1872.00,1.5150
1871.00,1.5042
1870.00,1.4949
1869.00,1.4855
1868.00,1.4754
1867.00,1.4663
1866.00,1.4600
1865.00,1.4573
1864.00,1.4579
1863.00,1.4609
1862.00,1.4657
1861.00,1.4731
1860.00,1.4833
1859.00,1.4962
1858.00,1.5117
1857.00,1.5298
1856.00,1.5500
1855.00,1.5718
1854.00,1.5949
1853.00,1.6196
1852.00,1.6454
1851.00,1.6716
1850.00,1.6985
1849.00,1.7259
1848.00,1.7533
1847.00,1.7807
1846.00,1.8100
1845.00,1.8431
1844.00,1.8783
1843.00,1.9112
1842.00,1.9403
1841.00,1.9682
1840.00,1.9970
1839.00,2.0265
1838.00,2.0555
1837.00,2.0836
1836.00,2.1117
1835.00,2.1392
1834.00,2.1651
1833.00,2.1901
1832.00,2.2155
1831.00,2.2420
1830.00,2.2682
1829.00,2.2922
1828.00,2.3140
1827.00,2.3352
1826.00,2.3583
1825.00,2.3829
1824.00,2.4064
1823.00,2.4274
1822.00,2.4473
1821.00,2.4681
1820.00,2.4899
1819.00,2.5114
1818.00,2.5317
1817.00,2.5509
1816.00,2.5694
1815.00,2.5865
1814.00,2.6020
1813.00,2.6164
1812.00,2.6303
1811.00,2.6438
1810.00,2.6570
1809.00,2.6699
1808.00,2.6824
1807.00,2.6940
1806.00,2.7046
1805.00,2.7140
1804.00,2.7220
1803.00,2.7283
1802.00,2.7341
1801.00,2.7414
1800.00,2.7514
1799.00,2.7636
1798.00,2.7767
1797.00,2.7898
1796.00,2.8027
1795.00,2.8154
1794.00,2.8289
1793.00,2.8439
1792.00,2.8595
1791.00,2.8742
1790.00,2.8875
1789.00,2.8999
1788.00,2.9122
1787.00,2.9250
1786.00,2.9380
1785.00,2.9503
1784.00,2.9607
1783.00,2.9691
1782.00,2.9782
1781.00,2.9897
1780.00,3.0023
1779.00,3.0134
1778.00,3.0216
1777.00,3.0284
1776.00,3.0349
1775.00,3.0417
1774.00,3.0505
1773.00,3.0626
1772.00,3.0760
1771.00,3.0884
1770.00,3.0998
1769.00,3.1106
1768.00,3.1198
1767.00,3.1251
1766.00,3.1253
1765.00,3.1225
1764.00,3.1205
1763.00,3.1219
1762.00,3.1275
1761.00,3.1351
1760.00,3.1426
1759.00,3.1500
1758.00,3.1587
1757.00,3.1679
1756.00,3.1731
1755.00,3.1713
1754.00,3.1666
1753.00,3.1654
1752.00,3.1699
1751.00,3.1760
1750.00,3.1786
1749.00,3.1787
1748.00,3.1805
1747.00,3.1849
1746.00,3.1898
1745.00,3.1928
1744.00,3.1931
1743.00,3.1909
1742.00,3.1863
1741.00,3.1792
1740.00,3.1688
1739.00,3.1539
1738.00,3.1353
1737.00,3.1155
1736.00,3.0958
1735.00,3.0754
1734.00,3.0520
1733.00,3.0291
1732.00,3.0208
1731.00,3.0392
1730.00,3.0862
1729.00,3.1602
1728.00,3.2610
1727.00,3.3895
1726.00,3.5440
1725.00,3.7145
1724.00,3.8872
1723.00,4.0658
1722.00,4.2864
1721.00,4.5934
1720.00,4.8457
1719.00,4.6757
1718.00,4.5191
1717.00,4.5313
1716.00,4.7699
1715.00,5.3475
1714.00,5.5597
1713.00,5.1787
1712.00,4.9081
1711.00,4.8625
1710.00,4.8580
1709.00,4.8088
1708.00,4.6857
1707.00,4.5547
1706.00,4.4834
1705.00,4.4650
1704.00,4.4641
1703.00,4.4244
1702.00,4.2577
1701.00,3.9743
1700.00,3.7065
1699.00,3.4914
1698.00,3.3205
1697.00,3.1745
1696.00,3.0356
1695.00,2.9025
1694.00,2.7800
1693.00,2.6716
1692.00,2.5773
1691.00,2.4959
1690.00,2.4306
1689.00,2.3857
1688.00,2.3608
1687.00,2.3536
1686.00,2.3660
1685.00,2.4028
1684.00,2.4604
1683.00,2.5254
1682.00,2.5854
1681.00,2.6372
1680.00,2.6836
1679.00,2.7240
1678.00,2.7579
1677.00,2.7884
1676.00,2.8184
1675.00,2.8437
1674.00,2.8593
1673.00,2.8687
1672.00,2.8806
1671.00,2.8980
1670.00,2.9171
1669.00,2.9334
1668.00,2.9449
1667.00,2.9538
1666.00,2.9651
1665.00,2.9817
1664.00,3.0017
1663.00,3.0195
1662.00,3.0315
1661.00,3.0409
1660.00,3.0522
1659.00,3.0667
1658.00,3.0816
1657.00,3.0921
1656.00,3.0948
1655.00,3.0930
1654.00,3.0945
1653.00,3.1019
1652.00,3.1091
1651.00,3.1117
1650.00,3.1197
1649.00,3.1342
1648.00,3.1456
1647.00,3.1513
1646.00,3.1563
1645.00,3.1646
1644.00,3.1756
1643.00,3.1888
1642.00,3.2017
1641.00,3.2123
1640.00,3.2194
1639.00,3.2222
1638.00,3.2219
1637.00,3.2224
1636.00,3.2258
1635.00,3.2300
1634.00,3.2301
1633.00,3.2274
1632.00,3.2277
1631.00,3.2301
1630.00,3.2319
1629.00,3.2319
1628.00,3.2304
1627.00,3.2277
1626.00,3.2260
1625.00,3.2273
1624.00,3.2297
1623.00,3.2280
1622.00,3.2208
1621.00,3.2134
1620.00,3.2110
1619.00,3.2128
1618.00,3.2134
1617.00,3.2092
1616.00,3.2036
1615.00,3.2039
1614.00,3.2128
1613.00,3.2255
1612.00,3.2354
1611.00,3.2397
1610.00,3.2401
1609.00,3.2386
1608.00,3.2348
1607.00,3.2290
1606.00,3.2248
1605.00,3.2247
1604.00,3.2259
1603.00,3.2248
1602.00,3.2235
1601.00,3.2282
1600.00,3.2397
1599.00,3.2503
1598.00,3.2512
1597.00,3.2413
1596.00,3.2268
1595.00,3.2146
1594.00,3.2088
1593.00,3.2095
1592.00,3.2131
1591.00,3.2141
1590.00,3.2106
1589.00,3.2062
1588.00,3.2056
1587.00,3.2083
1586.00,3.2097
1585.00,3.2070
1584.00,3.2019
1583.00,3.1985
1582.00,3.1985
1581.00,3.2000
1580.00,3.1990
1579.00,3.1929
1578.00,3.1820
1577.00,3.1699
1576.00,3.1608
1575.00,3.1567
1574.00,3.1567
1573.00,3.1578
1572.00,3.1563
1571.00,3.1505
1570.00,3.1415
1569.00,3.1318
1568.00,3.1233
1567.00,3.1165
1566.00,3.1126
1565.00,3.1109
1564.00,3.1071
1563.00,3.0973
1562.00,3.0835
1561.00,3.0739
1560.00,3.0737
1559.00,3.0690
1558.00,3.0580
1557.00,3.0479
1556.00,3.0394
1555.00,3.0380
1554.00,3.0393
1553.00,3.0387
1552.00,3.0354
1551.00,3.0309
1550.00,3.0236
1549.00,3.0125
1548.00,2.9991
1547.00,2.9867
1546.00,2.9773
1545.00,2.9688
1544.00,2.9580
1543.00,2.9439
1542.00,2.9263
1541.00,2.9048
1540.00,2.8840
1539.00,2.8716
1538.00,2.8648
1537.00,2.8600
1536.00,2.8586
1535.00,2.8563
1534.00,2.8492
1533.00,2.8360
1532.00,2.8199
1531.00,2.8044
1530.00,2.7904
1529.00,2.7779
1528.00,2.7659
1527.00,2.7537
1526.00,2.7418
1525.00,2.7305
1524.00,2.7198
1523.00,2.7107
1522.00,2.7033
1521.00,2.6981
1520.00,2.6947
1519.00,2.6921
1518.00,2.6886
1517.00,2.6802
1516.00,2.6655
1515.00,2.6467
1514.00,2.6261
1513.00,2.6048
1512.00,2.5818
1511.00,2.5557
1510.00,2.5266
1509.00,2.4950
1508.00,2.4608
1507.00,2.4268
1506.00,2.4026
1505.00,2.3827
1504.00,2.3594
1503.00,2.3392
1502.00,2.3205
1501.00,2.2999
1500.00,2.2759
1499.00,2.2482
1498.00,2.2165
1497.00,2.1820
1496.00,2.1479
1495.00,2.1170
1494.00,2.0911
1493.00,2.0718
1492.00,2.0591
1491.00,2.0514
1490.00,2.0468
1489.00,2.0463
1488.00,2.0507
1487.00,2.0552
1486.00,2.0542
1485.00,2.0473
1484.00,2.0385
1483.00,2.0325
1482.00,2.0320
1481.00,2.0361
1480.00,2.0430
1479.00,2.0518
1478.00,2.0627
1477.00,2.0758
1476.00,2.0906
1475.00,2.1086
1474.00,2.1343
1473.00,2.1718
1472.00,2.2199
1471.00,2.2721
1470.00,2.3221
1469.00,2.3707
1468.00,2.4208
1467.00,2.4730
1466.00,2.5256
1465.00,2.5744
1464.00,2.6135
1463.00,2.6395
1462.00,2.6565
1461.00,2.6730
1460.00,2.6948
1459.00,2.7252
1458.00,2.7697
1457.00,2.8348
1456.00,2.9151
1455.00,2.9930
1454.00,3.0643
1453.00,3.1365
1452.00,3.2110
1451.00,3.2755
1450.00,3.3052
1449.00,3.2779
1448.00,3.1937
1447.00,3.0757
1446.00,2.9516
1445.00,2.8378
1444.00,2.7411
1443.00,2.6654
1442.00,2.6130
1441.00,2.5845
1440.00,2.5793
1439.00,2.5966
1438.00,2.6357
1437.00,2.6928
1436.00,2.7565
1435.00,2.8136
1434.00,2.8601
1433.00,2.8998
1432.00,2.9346
1431.00,2.9599
1430.00,2.9723
1429.00,2.9750
1428.00,2.9742
1427.00,2.9723
1426.00,2.9703
1425.00,2.9685
1424.00,2.9662
1423.00,2.9615
1422.00,2.9513
1421.00,2.9319
1420.00,2.8976
1419.00,2.8446
1418.00,2.7804
1417.00,2.7195
1416.00,2.6697
1415.00,2.6315
1414.00,2.6034
1413.00,2.5846
1412.00,2.5753
1411.00,2.5761
1410.00,2.5857
1409.00,2.6016
1408.00,2.6219
1407.00,2.6451
1406.00,2.6702
1405.00,2.6963
1404.00,2.7226
1403.00,2.7476
1402.00,2.7695
1401.00,2.7891
1400.00,2.8084
1399.00,2.8287
1398.00,2.8496
1397.00,2.8702
1396.00,2.8912
1395.00,2.9145
1394.00,2.9397
1393.00,2.9633
1392.00,2.9823
1391.00,2.9972
1390.00,3.0109
1389.00,3.0268
1388.00,3.0469
1387.00,3.0698
1386.00,3.0911
1385.00,3.1077
1384.00,3.1205
1383.00,3.1328
1382.00,3.1457
1381.00,3.1595
1380.00,3.1747
1379.00,3.1905
1378.00,3.2038
1377.00,3.2120
1376.00,3.2177
1375.00,3.2269
1374.00,3.2420
1373.00,3.2582
1372.00,3.2689
1371.00,3.2751
1370.00,3.2852
1369.00,3.3039
1368.00,3.3272
1367.00,3.3476
1366.00,3.3634
1365.00,3.3799
1364.00,3.4005
1363.00,3.4209
1362.00,3.4328
1361.00,3.4329
1360.00,3.4279
1359.00,3.4295
1358.00,3.4445
1357.00,3.4697
1356.00,3.4944
1355.00,3.5087
1354.00,3.5154
1353.00,3.5264
1352.00,3.5469
1351.00,3.5683
1350.00,3.5775
1349.00,3.5737
1348.00,3.5708
1347.00,3.5811
1346.00,3.6027
1345.00,3.6203
1344.00,3.6225
1343.00,3.6155
1342.00,3.6133
1341.00,3.6210
1340.00,3.6309
1339.00,3.6291
1338.00,3.6109
1337.00,3.5839
1336.00,3.5547
1335.00,3.5285
1334.00,3.5118
1333.00,3.5081
1332.00,3.5145
1331.00,3.5238
1330.00,3.5311
1329.00,3.5378
1328.00,3.5468
1327.00,3.5578
1326.00,3.5684
1325.00,3.5773
1324.00,3.5834
1323.00,3.5870
1322.00,3.5928
1321.00,3.6060
1320.00,3.6256
1319.00,3.6444
1318.00,3.6590
1317.00,3.6780
1316.00,3.7118
1315.00,3.7578
1314.00,3.7989
1313.00,3.8157
1312.00,3.8013
1311.00,3.7658
1310.00,3.7207
1309.00,3.6733
1308.00,3.6275
1307.00,3.5887
1306.00,3.5622
1305.00,3.5487
1304.00,3.5448
1303.00,3.5466
1302.00,3.5523
1301.00,3.5619
1300.00,3.5746
1299.00,3.5869
1298.00,3.5944
1297.00,3.5957
1296.00,3.5925
1295.00,3.5890
1294.00,3.5911
1293.00,3.6017
1292.00,3.6144
1291.00,3.6164
1290.00,3.6050
1289.00,3.5948
1288.00,3.6020
1287.00,3.6254
1286.00,3.6468
1285.00,3.6523
1284.00,3.6487
1283.00,3.6513
1282.00,3.6657
1281.00,3.6862
1280.00,3.7059
1279.00,3.7245
1278.00,3.7450
1277.00,3.7658
1276.00,3.7794
1275.00,3.7777
1274.00,3.7583
1273.00,3.7294
1272.00,3.7044
1271.00,3.6913
1270.00,3.6884
1269.00,3.6924
1268.00,3.7045
1267.00,3.7219
1266.00,3.7295
1265.00,3.7127
1264.00,3.6815
1263.00,3.6609
1262.00,3.6639
1261.00,3.6820
1260.00,3.6961
1259.00,3.6979
1258.00,3.6979
1257.00,3.7064
1256.00,3.7195
1255.00,3.7232
1254.00,3.7113
1253.00,3.6959
1252.00,3.6931
1251.00,3.7051
1250.00,3.7190
1249.00,3.7239
1248.00,3.7241
1247.00,3.7266
1246.00,3.7241
1245.00,3.7026
1244.00,3.6677
1243.00,3.6441
1242.00,3.6497
1241.00,3.6808
1240.00,3.7145
1239.00,3.7245
1238.00,3.7046
1237.00,3.6712
1236.00,3.6443
1235.00,3.6354
1234.00,3.6454
1233.00,3.6642
1232.00,3.6772
1231.00,3.6785
1230.00,3.6758
1229.00,3.6823
1228.00,3.7080
1227.00,3.7589
1226.00,3.8349
1225.00,3.9172
1224.00,3.9699
1223.00,3.9802
1222.00,3.9739
1221.00,3.9745
1220.00,3.9779
1219.00,3.9682
1218.00,3.9463
1217.00,3.9204
1216.00,3.8932
1215.00,3.8682
1214.00,3.8496
1213.00,3.8381
1212.00,3.8311
1211.00,3.8240
1210.00,3.8084
1209.00,3.7770
1208.00,3.7432
1207.00,3.7303
1206.00,3.7404
1205.00,3.7518
1204.00,3.7382
1203.00,3.7034
1202.00,3.6814
1201.00,3.6956
1200.00,3.7387
1199.00,3.7767
1198.00,3.7782
1197.00,3.7469
1196.00,3.7048
1195.00,3.6648
1194.00,3.6372
1193.00,3.6317
1192.00,3.6436
1191.00,3.6517
1190.00,3.6427
1189.00,3.6244
1188.00,3.6107
1187.00,3.6104
1186.00,3.6219
1185.00,3.6334
1184.00,3.6336
1183.00,3.6218
1182.00,3.6021
1181.00,3.5782
1180.00,3.5572
1179.00,3.5460
1178.00,3.5443
1177.00,3.5449
1176.00,3.5418
1175.00,3.5387
1174.00,3.5431
1173.00,3.5538
1172.00,3.5590
1171.00,3.5473
1170.00,3.5204
1169.00,3.4913
1168.00,3.4735
1167.00,3.4735
1166.00,3.4870
1165.00,3.4991
1164.00,3.4963
1163.00,3.4798
1162.00,3.4614
1161.00,3.4489
1160.00,3.4412
1159.00,3.4326
1158.00,3.4189
1157.00,3.3994
1156.00,3.3761
1155.00,3.3526
1154.00,3.3320
1153.00,3.3150
1152.00,3.3010
1151.00,3.2888
1150.00,3.2761
1149.00,3.2609
1148.00,3.2442
1147.00,3.2289
1146.00,3.2147
1145.00,3.1966
1144.00,3.1711
1143.00,3.1413
1142.00,3.1122
1141.00,3.0848
1140.00,3.0566
1139.00,3.0271
1138.00,2.9980
1137.00,2.9715
1136.00,2.9482
1135.00,2.9290
1134.00,2.9155
1133.00,2.9075
1132.00,2.9032
1131.00,2.9028
1130.00,2.9099
1129.00,2.9301
1128.00,2.9685
1127.00,3.0302
1126.00,3.1194
1125.00,3.2356
1124.00,3.3689
1123.00,3.5004
1122.00,3.6128
1121.00,3.6997
1120.00,3.7624
1119.00,3.8059
1118.00,3.8382
1117.00,3.8492
1116.00,3.8057
1115.00,3.7145
1114.00,3.6328
1113.00,3.5842
1112.00,3.5499
1111.00,3.5048
1110.00,3.4489
1109.00,3.3980
1108.00,3.3545
1107.00,3.3101
1106.00,3.2616
1105.00,3.2095
1104.00,3.1510
1103.00,3.0865
1102.00,3.0251
1101.00,2.9770
1100.00,2.9433
1099.00,2.9170
1098.00,2.8924
1097.00,2.8704
1096.00,2.8544
1095.00,2.8453
1094.00,2.8441
1093.00,2.8532
1092.00,2.8733
1091.00,2.8977
1090.00,2.9151
1089.00,2.9198
1088.00,2.9169
1087.00,2.9146
1086.00,2.9165
1085.00,2.9230
1084.00,2.9345
1083.00,2.9507
1082.00,2.9707
1081.00,2.9948
1080.00,3.0241
1079.00,3.0582
1078.00,3.0929
1077.00,3.1234
1076.00,3.1491
1075.00,3.1738
1074.00,3.2011
1073.00,3.2298
1072.00,3.2551
1071.00,3.2716
1070.00,3.2796
1069.00,3.2852
1068.00,3.2959
1067.00,3.3145
1066.00,3.3400
1065.00,3.3704
1064.00,3.4026
1063.00,3.4347
1062.00,3.4697
1061.00,3.5089
1060.00,3.5429
1059.00,3.5579
1058.00,3.5527
1057.00,3.5434
1056.00,3.5500
1055.00,3.5775
1054.00,3.6048
1053.00,3.6083
1052.00,3.5919
1051.00,3.5629
1050.00,3.5222
1049.00,3.4783
1048.00,3.4450
1047.00,3.4259
1046.00,3.4124
1045.00,3.4034
1044.00,3.4101
1043.00,3.4378
1042.00,3.4796
1041.00,3.5212
1040.00,3.5477
1039.00,3.5574
1038.00,3.5646
1037.00,3.5848
1036.00,3.6165
1035.00,3.6335
1034.00,3.6152
1033.00,3.5962
1032.00,3.6240
1031.00,3.7100
1030.00,3.8132
1029.00,3.8524
1028.00,3.8273
1027.00,3.7950
1026.00,3.7765
1025.00,3.7777
1024.00,3.8084
1023.00,3.8706
1022.00,3.9520
1021.00,4.0463
1020.00,4.1349
1019.00,4.1327
1018.00,4.0652
1017.00,4.0513
1016.00,4.1429
1015.00,4.3182
1014.00,4.4037
1013.00,4.2642
1012.00,4.0867
1011.00,3.9953
1010.00,3.9865
1009.00,4.0214
1008.00,4.0700
1007.00,4.1401
1006.00,4.2212
1005.00,4.2086
1004.00,4.0987
1003.00,4.0242
1002.00,4.0425
1001.00,4.1552
1000.00,4.2822
999.00,4.2784
998.00,4.2148
997.00,4.1831
996.00,4.2118
995.00,4.3225
994.00,4.4518
993.00,4.3273
992.00,4.1694
991.00,4.1014
990.00,4.0828
989.00,4.0671
988.00,4.0588
987.00,4.0986
986.00,4.2084
985.00,4.3908
984.00,4.6557
983.00,4.8127
982.00,4.6955
981.00,4.7312
980.00,4.8320
979.00,4.6940
978.00,4.6618
977.00,5.1059
976.00,4.7908
975.00,4.3798
974.00,4.2592
973.00,4.2946
972.00,4.4701
971.00,4.7296
970.00,4.6204
969.00,4.4314
968.00,4.4188
967.00,4.6983
966.00,4.7834
965.00,4.4227
964.00,4.3941
963.00,4.5326
962.00,4.7320
961.00,4.8048
960.00,4.7585
959.00,4.7869
958.00,4.9562
957.00,4.8465
956.00,4.5577
955.00,4.4118
954.00,4.4476
953.00,4.8627
952.00,4.8628
951.00,4.2788
950.00,4.0970
949.00,4.0490
948.00,4.0958
947.00,4.2254
946.00,4.3651
945.00,4.3783
944.00,4.2985
943.00,4.2349
942.00,4.1900
941.00,4.1201
940.00,4.0337
939.00,3.9859
938.00,4.0055
937.00,4.0879
936.00,4.2107
935.00,4.3389
934.00,4.4241
933.00,4.3904
932.00,4.2554
931.00,4.1503
930.00,4.1087
929.00,4.0996
928.00,4.0984
927.00,4.1507
926.00,4.2895
925.00,4.2866
924.00,4.1843
923.00,4.2235
922.00,4.4106
921.00,4.6196
920.00,4.7454
919.00,4.8815
918.00,4.6737
917.00,4.4979
916.00,4.3669
915.00,4.2064
914.00,4.0671
913.00,3.9879
912.00,3.9678
911.00,3.9973
910.00,4.0637
909.00,4.1410
908.00,4.1817
907.00,4.1589
906.00,4.0972
905.00,4.0387
904.00,4.0159
903.00,4.0478
902.00,4.1442
901.00,4.2998
900.00,4.4802
899.00,4.5761
898.00,4.5165
897.00,4.4080
896.00,4.3294
895.00,4.3394
894.00,4.4534
893.00,4.6561
892.00,4.6550
891.00,4.3577
890.00,4.2407
889.00,4.2452
888.00,4.2958
887.00,4.2945
886.00,4.2166
885.00,4.1584
884.00,4.1652
883.00,4.2084
882.00,4.2238
881.00,4.2283
880.00,4.2745
879.00,4.3642
878.00,4.4294
877.00,4.3469
876.00,4.1507
875.00,4.0074
874.00,3.9850
873.00,4.0971
872.00,4.3784
871.00,4.9727
870.00,4.4983
869.00,4.2939
868.00,4.3535
867.00,4.6039
866.00,4.0931
865.00,3.8686
864.00,3.8030
863.00,3.8535
862.00,4.0171
861.00,4.2854
860.00,4.5493
859.00,4.4406
858.00,4.2252
857.00,4.1607
856.00,4.2075
855.00,4.2903
854.00,4.3730
853.00,4.4389
852.00,4.4241
851.00,4.3370
850.00,4.2517
849.00,4.2084
848.00,4.2300
847.00,4.3172
846.00,4.4229
845.00,4.4490
844.00,4.3692
843.00,4.2594
842.00,4.1452
841.00,4.0670
840.00,4.0903
839.00,4.3050
838.00,4.9831
837.00,4.4924
836.00,4.3773
835.00,4.4529
834.00,4.5679
833.00,4.5427
832.00,4.3621
831.00,4.1816
830.00,4.1194
829.00,4.2360
828.00,4.6792
827.00,5.1096
826.00,4.6968
825.00,4.5345
824.00,4.3349
823.00,4.1833
822.00,4.0892
821.00,4.0504
820.00,4.0732
819.00,4.1548
818.00,4.2152
817.00,4.2014
816.00,4.2643
815.00,4.4539
814.00,4.5718
813.00,4.5808
812.00,4.3402
811.00,4.1875
810.00,4.2122
809.00,4.3277
808.00,4.3037
807.00,4.2528
806.00,4.3549
805.00,4.8196
804.00,4.9250
803.00,4.5804
802.00,4.3933
801.00,4.0782
800.00,3.8584
799.00,3.7528
798.00,3.7332
797.00,3.7668
796.00,3.8195
795.00,3.8617
794.00,3.8773
793.00,3.8768
792.00,3.8834
791.00,3.8954
790.00,3.8966
789.00,3.8825
788.00,3.8657
787.00,3.8751
786.00,3.9187
785.00,3.9655
784.00,3.9977
783.00,4.0567
782.00,4.1804
781.00,4.3641
780.00,4.4419
779.00,4.1998
778.00,4.0034
777.00,3.9105
776.00,3.8969
775.00,3.9406
774.00,4.0238
773.00,4.1353
772.00,4.2109
771.00,4.1901
770.00,4.1615
769.00,4.0808
768.00,3.9484
767.00,3.8462
766.00,3.7775
765.00,3.7328
764.00,3.7239
763.00,3.7690
762.00,3.8634
761.00,3.9551
760.00,3.9883
759.00,3.9895
758.00,4.0071
757.00,4.0178
756.00,3.9661
755.00,3.8729
754.00,3.7999
753.00,3.7727
752.00,3.7856
751.00,3.8232
750.00,3.8652
749.00,3.8792
748.00,3.8495
747.00,3.8133
746.00,3.8210
745.00,3.8948
744.00,4.0061
743.00,4.0574
742.00,3.9984
741.00,3.9262
740.00,3.9251
739.00,4.0063
738.00,4.1220
737.00,4.1979
736.00,4.1551
735.00,4.0515
734.00,3.9765
733.00,3.9111
732.00,3.8510
731.00,3.8485
730.00,3.9645
729.00,4.2652
728.00,4.8566
727.00,4.7820
726.00,4.3764
725.00,4.2407
724.00,4.2595
723.00,4.2078
722.00,4.0807
721.00,4.0368
720.00,4.0544
719.00,4.0611
718.00,4.0596
717.00,4.0650
716.00,4.0500
715.00,4.0602
714.00,4.1760
713.00,4.4646
712.00,4.9507
711.00,4.7626
710.00,4.4924
709.00,4.3445
708.00,4.3175
707.00,4.3077
706.00,4.1587
705.00,4.0368
704.00,4.0154
703.00,4.0642
702.00,4.1534
701.00,4.2568
700.00,4.3190
699.00,4.3284
698.00,4.2788
697.00,4.1932
696.00,4.1041
695.00,4.0367
694.00,4.0192
693.00,4.0559
692.00,4.0875
691.00,4.0530
690.00,4.0622
689.00,4.2560
688.00,5.0957
687.00,4.6702
686.00,4.6422
685.00,4.4120
684.00,4.1820
683.00,4.1180
682.00,4.1707
681.00,4.2554
680.00,4.2547
679.00,4.1755
678.00,4.1329
677.00,4.1745
676.00,4.2374
675.00,4.2037
674.00,4.1400
673.00,4.2119
672.00,4.7202
671.00,4.3669
670.00,4.0004
669.00,3.8279
668.00,3.7692
667.00,3.8562
666.00,4.1178
665.00,4.5254
664.00,4.7514
663.00,4.3959
662.00,4.1372
661.00,4.0587
660.00,4.1106
659.00,4.2423
658.00,4.2513
657.00,4.1708
656.00,4.2046
655.00,4.2087
654.00,4.0209
653.00,3.8921
652.00,3.8748
651.00,3.9514
650.00,4.0773
649.00,4.1378
648.00,4.0666
647.00,3.9979
646.00,4.0644
645.00,4.3279
644.00,4.3505
643.00,4.1650
642.00,4.0141
641.00,3.9381
640.00,4.0281
639.00,4.3898
638.00,4.3273
637.00,4.1166
636.00,4.1778
635.00,4.4014
634.00,4.4215
633.00,4.1245
632.00,3.9843
631.00,4.0138
630.00,4.2005
629.00,4.5814
628.00,5.3733
627.00,4.7890
626.00,4.3976
625.00,4.1058
624.00,3.9452
623.00,3.9189
622.00,4.0136
621.00,4.1453
620.00,4.1365
619.00,3.9980
618.00,3.8620
617.00,3.8131
616.00,3.8549
615.00,3.9338
614.00,4.0096
613.00,4.0897
612.00,4.1069
611.00,4.0054
610.00,3.8610
609.00,3.7428
608.00,3.6704
607.00,3.6459
606.00,3.6628
605.00,3.7089
604.00,3.7852
603.00,3.9338
602.00,4.2419
601.00,4.8511
600.00,4.6009
599.00,4.1531
598.00,3.8988
597.00,3.7697
596.00,3.7103
595.00,3.6971
594.00,3.7342
593.00,3.8255
592.00,3.8750
591.00,3.8103
590.00,3.7533
589.00,3.7387
588.00,3.7545
587.00,3.7822
586.00,3.8002
585.00,3.8001
584.00,3.7905
583.00,3.8016
582.00,3.8663
581.00,3.9399
580.00,3.9430
579.00,3.8956
578.00,3.8048
577.00,3.7330
576.00,3.7296
575.00,3.8001
574.00,3.9209
573.00,4.0589
572.00,4.1468
571.00,4.0247
570.00,3.8398
569.00,3.7234
568.00,3.6378
567.00,3.5728
566.00,3.5768
565.00,3.6663
564.00,3.7692
563.00,3.7800
562.00,3.7863
561.00,3.8426
560.00,3.8633
559.00,3.7623
558.00,3.6113
557.00,3.5265
556.00,3.5520
555.00,3.6639
554.00,3.7114
553.00,3.6430
552.00,3.5865
551.00,3.5613
550.00,3.5556
549.00,3.5602
548.00,3.5778
547.00,3.6195
546.00,3.6907
545.00,3.7804
544.00,3.8190
543.00,3.7213
542.00,3.5642
541.00,3.4634
540.00,3.4545
539.00,3.5204
538.00,3.5990
537.00,3.6297
536.00,3.6458
535.00,3.6875
534.00,3.7096
533.00,3.6746
532.00,3.6598
531.00,3.7224
530.00,3.8382
529.00,3.9298
528.00,3.9190
527.00,3.7608
526.00,3.6062
525.00,3.5224
524.00,3.5238
523.00,3.6228
522.00,3.8070
521.00,3.9354
520.00,3.9055
519.00,3.8832
518.00,3.8863
517.00,3.7156
516.00,3.5155
515.00,3.4354
514.00,3.4941
513.00,3.7002
512.00,4.0125
511.00,4.1629
510.00,4.3019
509.00,4.1530
508.00,3.7516
507.00,3.5626
506.00,3.5008
505.00,3.5043
504.00,3.5119
503.00,3.4755
502.00,3.4117
501.00,3.3961
500.00,3.4840
499.00,3.6893
498.00,3.8460
497.00,3.7862
496.00,3.7378
495.00,3.6913
494.00,3.6385
493.00,3.6617
492.00,3.8366
491.00,3.9521
490.00,3.7230
489.00,3.6572
488.00,3.7507
487.00,3.9753
486.00,4.2198
485.00,4.1592
484.00,3.9277
483.00,3.7652
482.00,3.6382
481.00,3.5264
480.00,3.4745
479.00,3.4970
478.00,3.5732
477.00,3.6505
476.00,3.6702
475.00,3.7112
474.00,3.9340
473.00,4.3752
472.00,3.7100
471.00,3.5531
470.00,3.5934
469.00,3.5547
468.00,3.4164
467.00,3.4083
466.00,3.5450
465.00,3.6323
464.00,3.5145
463.00,3.4207
462.00,3.3659
461.00,3.3370
460.00,3.3579
459.00,3.4597
458.00,3.6632
457.00,3.8696
456.00,3.6945
455.00,3.6635
454.00,3.7377
453.00,3.3921
452.00,3.2183
451.00,3.2169
450.00,3.3551
449.00,3.6366
448.00,3.6091
447.00,3.3257
446.00,3.1840
445.00,3.1366
444.00,3.1605
443.00,3.2240
442.00,3.2221
441.00,3.1268
440.00,3.0699
439.00,3.1140
438.00,3.2841
437.00,3.5683
436.00,3.6258
435.00,3.4483
434.00,3.2619
433.00,3.1501
432.00,3.1523
431.00,3.2637
430.00,3.3562
429.00,3.2905
428.00,3.1624
427.00,3.0631
426.00,3.0469
425.00,3.1209
424.00,3.2264
423.00,3.2302
422.00,3.2323
421.00,3.3650
420.00,3.4607
419.00,3.1918
418.00,3.0264
417.00,2.9287
416.00,2.8537
415.00,2.8072
414.00,2.7789
413.00,2.7847
412.00,2.8691
411.00,3.0476
410.00,3.2238
409.00,3.1549
408.00,2.9441
407.00,2.8081
406.00,2.7693
405.00,2.7629
404.00,2.7376
403.00,2.6929
402.00,2.6209
401.00,2.5509
400.00,2.5262
