Created as New Dataset,Sample 164 By Administrator Date Friday, November 26 2021
cm-1,A
7000.00,1.1821
6999.00,1.1843
6998.00,1.1864
6997.00,1.1884
6996.00,1.1901
6995.00,1.1918
6994.00,1.1936
6993.00,1.1956
6992.00,1.1977
6991.00,1.1999
6990.00,1.2017
6989.00,1.2029
6988.00,1.2038
6987.00,1.2046
6986.00,1.2056
6985.00,1.2067
6984.00,1.2079
6983.00,1.2091
6982.00,1.2104
6981.00,1.2119
6980.00,1.2134
6979.00,1.2147
6978.00,1.2156
6977.00,1.2162
6976.00,1.2166
6975.00,1.2173
6974.00,1.2182
6973.00,1.2190
6972.00,1.2193
6971.00,1.2195
6970.00,1.2203
6969.00,1.2216
6968.00,1.2226
6967.00,1.2229
6966.00,1.2226
6965.00,1.2224
6964.00,1.2225
6963.00,1.2226
6962.00,1.2226
6961.00,1.2226
6960.00,1.2228
6959.00,1.2229
6958.00,1.2231
6957.00,1.2235
6956.00,1.2238
6955.00,1.2236
6954.00,1.2229
6953.00,1.2222
6952.00,1.2216
6951.00,1.2208
6950.00,1.2199
6949.00,1.2191
6948.00,1.2187
6947.00,1.2184
6946.00,1.2177
6945.00,1.2167
6944.00,1.2157
6943.00,1.2147
6942.00,1.2136
6941.00,1.2122
6940.00,1.2109
6939.00,1.2100
6938.00,1.2093
6937.00,1.2087
6936.00,1.2077
6935.00,1.2064
6934.00,1.2049
6933.00,1.2033
6932.00,1.2017
6931.00,1.1998
6930.00,1.1980
6929.00,1.1964
6928.00,1.1953
6927.00,1.1944
6926.00,1.1934
6925.00,1.1919
6924.00,1.1902
6923.00,1.1882
6922.00,1.1862
6921.00,1.1842
6920.00,1.1821
6919.00,1.1801
6918.00,1.1783
6917.00,1.1764
6916.00,1.1742
6915.00,1.1715
6914.00,1.1688
6913.00,1.1661
6912.00,1.1637
6911.00,1.1614
6910.00,1.1591
6909.00,1.1568
6908.00,1.1544
6907.00,1.1518
6906.00,1.1488
6905.00,1.1455
6904.00,1.1423
6903.00,1.1391
6902.00,1.1361
6901.00,1.1331
6900.00,1.1302
6899.00,1.1272
6898.00,1.1243
6897.00,1.1212
6896.00,1.1180
6895.00,1.1145
6894.00,1.1108
6893.00,1.1069
6892.00,1.1031
6891.00,1.0994
6890.00,1.0959
6889.00,1.0924
6888.00,1.0888
6887.00,1.0852
6886.00,1.0816
6885.00,1.0780
6884.00,1.0745
6883.00,1.0708
6882.00,1.0671
6881.00,1.0636
6880.00,1.0601
6879.00,1.0562
6878.00,1.0520
6877.00,1.0478
6876.00,1.0437
6875.00,1.0395
6874.00,1.0351
6873.00,1.0306
6872.00,1.0264
6871.00,1.0223
6870.00,1.0180
6869.00,1.0135
6868.00,1.0090
6867.00,1.0048
6866.00,1.0008
6865.00,0.9966
6864.00,0.9922
6863.00,0.9877
6862.00,0.9832
6861.00,0.9788
6860.00,0.9742
6859.00,0.9694
6858.00,0.9647
6857.00,0.9600
6856.00,0.9552
6855.00,0.9504
6854.00,0.9456
6853.00,0.9408
6852.00,0.9361
6851.00,0.9315
6850.00,0.9268
6849.00,0.9222
6848.00,0.9174
6847.00,0.9125
6846.00,0.9077
6845.00,0.9029
6844.00,0.8982
6843.00,0.8935
6842.00,0.8888
6841.00,0.8842
6840.00,0.8798
6839.00,0.8754
6838.00,0.8708
6837.00,0.8661
6836.00,0.8615
6835.00,0.8570
6834.00,0.8528
6833.00,0.8485
6832.00,0.8443
6831.00,0.8401
6830.00,0.8360
6829.00,0.8322
6828.00,0.8284
6827.00,0.8247
6826.00,0.8209
6825.00,0.8171
6824.00,0.8133
6823.00,0.8096
6822.00,0.8059
6821.00,0.8022
6820.00,0.7984
6819.00,0.7948
6818.00,0.7913
6817.00,0.7880
6816.00,0.7849
6815.00,0.7818
6814.00,0.7788
6813.00,0.7760
6812.00,0.7733
6811.00,0.7707
6810.00,0.7683
6809.00,0.7660
6808.00,0.7637
6807.00,0.7614
6806.00,0.7592
6805.00,0.7571
6804.00,0.7552
6803.00,0.7534
6802.00,0.7517
6801.00,0.7502
6800.00,0.7488
6799.00,0.7476
6798.00,0.7466
6797.00,0.7458
6796.00,0.7449
6795.00,0.7439
6794.00,0.7431
6793.00,0.7426
6792.00,0.7423
6791.00,0.7421
6790.00,0.7420
6789.00,0.7420
6788.00,0.7421
6787.00,0.7422
6786.00,0.7424
6785.00,0.7425
6784.00,0.7428
6783.00,0.7433
6782.00,0.7441
6781.00,0.7452
6780.00,0.7465
6779.00,0.7478
6778.00,0.7492
6777.00,0.7506
6776.00,0.7521
6775.00,0.7538
6774.00,0.7555
6773.00,0.7572
6772.00,0.7589
6771.00,0.7607
6770.00,0.7627
6769.00,0.7649
6768.00,0.7673
6767.00,0.7698
6766.00,0.7724
6765.00,0.7753
6764.00,0.7782
6763.00,0.7810
6762.00,0.7836
6761.00,0.7862
6760.00,0.7889
6759.00,0.7917
6758.00,0.7947
6757.00,0.7979
6756.00,0.8012
6755.00,0.8045
6754.00,0.8079
6753.00,0.8114
6752.00,0.8150
6751.00,0.8186
6750.00,0.8222
6749.00,0.8258
6748.00,0.8294
6747.00,0.8329
6746.00,0.8365
6745.00,0.8402
6744.00,0.8441
6743.00,0.8482
6742.00,0.8523
6741.00,0.8566
6740.00,0.8609
6739.00,0.8652
6738.00,0.8694
6737.00,0.8735
6736.00,0.8776
6735.00,0.8819
6734.00,0.8862
6733.00,0.8906
6732.00,0.8949
6731.00,0.8991
6730.00,0.9034
6729.00,0.9077
6728.00,0.9121
6727.00,0.9166
6726.00,0.9210
6725.00,0.9255
6724.00,0.9299
6723.00,0.9343
6722.00,0.9387
6721.00,0.9433
6720.00,0.9480
6719.00,0.9527
6718.00,0.9574
6717.00,0.9620
6716.00,0.9666
6715.00,0.9709
6714.00,0.9751
6713.00,0.9793
6712.00,0.9836
6711.00,0.9880
6710.00,0.9924
6709.00,0.9969
6708.00,1.0013
6707.00,1.0054
6706.00,1.0095
6705.00,1.0137
6704.00,1.0181
6703.00,1.0225
6702.00,1.0268
6701.00,1.0311
6700.00,1.0355
6699.00,1.0399
6698.00,1.0440
6697.00,1.0479
6696.00,1.0518
6695.00,1.0557
6694.00,1.0597
6693.00,1.0637
6692.00,1.0678
6691.00,1.0719
6690.00,1.0760
6689.00,1.0801
6688.00,1.0841
6687.00,1.0881
6686.00,1.0921
6685.00,1.0958
6684.00,1.0994
6683.00,1.1029
6682.00,1.1064
6681.00,1.1098
6680.00,1.1131
6679.00,1.1163
6678.00,1.1195
6677.00,1.1228
6676.00,1.1263
6675.00,1.1298
6674.00,1.1334
6673.00,1.1370
6672.00,1.1405
6671.00,1.1438
6670.00,1.1471
6669.00,1.1501
6668.00,1.1530
6667.00,1.1557
6666.00,1.1583
6665.00,1.1608
6664.00,1.1633
6663.00,1.1658
6662.00,1.1684
6661.00,1.1711
6660.00,1.1738
6659.00,1.1766
6658.00,1.1795
6657.00,1.1824
6656.00,1.1852
6655.00,1.1877
6654.00,1.1900
6653.00,1.1922
6652.00,1.1945
6651.00,1.1967
6650.00,1.1987
6649.00,1.2006
6648.00,1.2025
6647.00,1.2044
6646.00,1.2062
6645.00,1.2079
6644.00,1.2097
6643.00,1.2115
6642.00,1.2134
6641.00,1.2154
6640.00,1.2173
6639.00,1.2192
6638.00,1.2208
6637.00,1.2221
6636.00,1.2235
6635.00,1.2249
6634.00,1.2264
6633.00,1.2276
6632.00,1.2286
6631.00,1.2295
6630.00,1.2304
6629.00,1.2313
6628.00,1.2323
6627.00,1.2333
6626.00,1.2343
6625.00,1.2352
6624.00,1.2360
6623.00,1.2368
6622.00,1.2375
6621.00,1.2380
6620.00,1.2382
6619.00,1.2383
6618.00,1.2386
6617.00,1.2394
6616.00,1.2402
6615.00,1.2408
6614.00,1.2414
6613.00,1.2420
6612.00,1.2425
6611.00,1.2428
6610.00,1.2428
6609.00,1.2426
6608.00,1.2421
6607.00,1.2414
6606.00,1.2409
6605.00,1.2405
6604.00,1.2402
6603.00,1.2397
6602.00,1.2392
6601.00,1.2389
6600.00,1.2390
6599.00,1.2391
6598.00,1.2387
6597.00,1.2380
6596.00,1.2372
6595.00,1.2364
6594.00,1.2357
6593.00,1.2348
6592.00,1.2339
6591.00,1.2330
6590.00,1.2321
6589.00,1.2310
6588.00,1.2297
6587.00,1.2281
6586.00,1.2265
6585.00,1.2251
6584.00,1.2238
6583.00,1.2227
6582.00,1.2216
6581.00,1.2205
6580.00,1.2192
6579.00,1.2178
6578.00,1.2163
6577.00,1.2144
6576.00,1.2124
6575.00,1.2103
6574.00,1.2083
6573.00,1.2064
6572.00,1.2044
6571.00,1.2024
6570.00,1.2005
6569.00,1.1987
6568.00,1.1967
6567.00,1.1943
6566.00,1.1917
6565.00,1.1891
6564.00,1.1868
6563.00,1.1846
6562.00,1.1825
6561.00,1.1803
6560.00,1.1780
6559.00,1.1753
6558.00,1.1724
6557.00,1.1695
6556.00,1.1664
6555.00,1.1633
6554.00,1.1601
6553.00,1.1571
6552.00,1.1543
6551.00,1.1516
6550.00,1.1488
6549.00,1.1459
6548.00,1.1428
6547.00,1.1397
6546.00,1.1365
6545.00,1.1334
6544.00,1.1301
6543.00,1.1265
6542.00,1.1230
6541.00,1.1195
6540.00,1.1161
6539.00,1.1125
6538.00,1.1088
6537.00,1.1051
6536.00,1.1014
6535.00,1.0976
6534.00,1.0937
6533.00,1.0897
6532.00,1.0857
6531.00,1.0817
6530.00,1.0776
6529.00,1.0734
6528.00,1.0690
6527.00,1.0647
6526.00,1.0604
6525.00,1.0561
6524.00,1.0518
6523.00,1.0473
6522.00,1.0430
6521.00,1.0386
6520.00,1.0342
6519.00,1.0296
6518.00,1.0249
6517.00,1.0203
6516.00,1.0157
6515.00,1.0110
6514.00,1.0063
6513.00,1.0016
6512.00,0.9969
6511.00,0.9920
6510.00,0.9871
6509.00,0.9822
6508.00,0.9775
6507.00,0.9726
6506.00,0.9677
6505.00,0.9628
6504.00,0.9579
6503.00,0.9531
6502.00,0.9482
6501.00,0.9432
6500.00,0.9383
6499.00,0.9333
6498.00,0.9284
6497.00,0.9234
6496.00,0.9183
6495.00,0.9131
6494.00,0.9078
6493.00,0.9026
6492.00,0.8973
6491.00,0.8921
6490.00,0.8870
6489.00,0.8821
6488.00,0.8772
6487.00,0.8723
6486.00,0.8675
6485.00,0.8628
6484.00,0.8581
6483.00,0.8533
6482.00,0.8483
6481.00,0.8433
6480.00,0.8384
6479.00,0.8337
6478.00,0.8290
6477.00,0.8246
6476.00,0.8203
6475.00,0.8161
6474.00,0.8121
6473.00,0.8081
6472.00,0.8040
6471.00,0.7997
6470.00,0.7955
6469.00,0.7913
6468.00,0.7873
6467.00,0.7833
6466.00,0.7795
6465.00,0.7758
6464.00,0.7722
6463.00,0.7686
6462.00,0.7651
6461.00,0.7617
6460.00,0.7583
6459.00,0.7550
6458.00,0.7518
6457.00,0.7488
6456.00,0.7459
6455.00,0.7432
6454.00,0.7406
6453.00,0.7381
6452.00,0.7358
6451.00,0.7336
6450.00,0.7315
6449.00,0.7295
6448.00,0.7276
6447.00,0.7257
6446.00,0.7239
6445.00,0.7222
6444.00,0.7207
6443.00,0.7194
6442.00,0.7181
6441.00,0.7169
6440.00,0.7159
6439.00,0.7149
6438.00,0.7141
6437.00,0.7134
6436.00,0.7129
6435.00,0.7126
6434.00,0.7124
6433.00,0.7124
6432.00,0.7126
6431.00,0.7127
6430.00,0.7128
6429.00,0.7130
6428.00,0.7132
6427.00,0.7136
6426.00,0.7142
6425.00,0.7150
6424.00,0.7160
6423.00,0.7172
6422.00,0.7186
6421.00,0.7200
6420.00,0.7214
6419.00,0.7229
6418.00,0.7245
6417.00,0.7262
6416.00,0.7280
6415.00,0.7300
6414.00,0.7321
6413.00,0.7344
6412.00,0.7367
6411.00,0.7391
6410.00,0.7415
6409.00,0.7440
6408.00,0.7466
6407.00,0.7494
6406.00,0.7523
6405.00,0.7553
6404.00,0.7584
6403.00,0.7615
6402.00,0.7647
6401.00,0.7681
6400.00,0.7715
6399.00,0.7750
6398.00,0.7786
6397.00,0.7824
6396.00,0.7861
6395.00,0.7898
6394.00,0.7934
6393.00,0.7972
6392.00,0.8010
6391.00,0.8049
6390.00,0.8090
6389.00,0.8132
6388.00,0.8174
6387.00,0.8217
6386.00,0.8261
6385.00,0.8305
6384.00,0.8349
6383.00,0.8393
6382.00,0.8438
6381.00,0.8483
6380.00,0.8528
6379.00,0.8572
6378.00,0.8618
6377.00,0.8665
6376.00,0.8713
6375.00,0.8762
6374.00,0.8810
6373.00,0.8859
6372.00,0.8907
6371.00,0.8954
6370.00,0.9000
6369.00,0.9047
6368.00,0.9095
6367.00,0.9143
6366.00,0.9192
6365.00,0.9240
6364.00,0.9288
6363.00,0.9335
6362.00,0.9383
6361.00,0.9432
6360.00,0.9482
6359.00,0.9534
6358.00,0.9586
6357.00,0.9638
6356.00,0.9689
6355.00,0.9739
6354.00,0.9788
6353.00,0.9836
6352.00,0.9883
6351.00,0.9931
6350.00,0.9981
6349.00,1.0030
6348.00,1.0079
6347.00,1.0127
6346.00,1.0177
6345.00,1.0226
6344.00,1.0275
6343.00,1.0322
6342.00,1.0369
6341.00,1.0416
6340.00,1.0462
6339.00,1.0505
6338.00,1.0548
6337.00,1.0591
6336.00,1.0635
6335.00,1.0680
6334.00,1.0726
6333.00,1.0774
6332.00,1.0822
6331.00,1.0869
6330.00,1.0915
6329.00,1.0958
6328.00,1.0999
6327.00,1.1039
6326.00,1.1078
6325.00,1.1117
6324.00,1.1155
6323.00,1.1193
6322.00,1.1233
6321.00,1.1272
6320.00,1.1310
6319.00,1.1347
6318.00,1.1384
6317.00,1.1421
6316.00,1.1457
6315.00,1.1492
6314.00,1.1527
6313.00,1.1563
6312.00,1.1599
6311.00,1.1634
6310.00,1.1669
6309.00,1.1704
6308.00,1.1739
6307.00,1.1773
6306.00,1.1808
6305.00,1.1843
6304.00,1.1878
6303.00,1.1911
6302.00,1.1943
6301.00,1.1974
6300.00,1.2005
6299.00,1.2034
6298.00,1.2062
6297.00,1.2091
6296.00,1.2119
6295.00,1.2147
6294.00,1.2173
6293.00,1.2199
6292.00,1.2223
6291.00,1.2245
6290.00,1.2267
6289.00,1.2289
6288.00,1.2311
6287.00,1.2334
6286.00,1.2357
6285.00,1.2380
6284.00,1.2403
6283.00,1.2423
6282.00,1.2442
6281.00,1.2462
6280.00,1.2483
6279.00,1.2502
6278.00,1.2519
6277.00,1.2534
6276.00,1.2550
6275.00,1.2566
6274.00,1.2582
6273.00,1.2597
6272.00,1.2614
6271.00,1.2632
6270.00,1.2649
6269.00,1.2665
6268.00,1.2678
6267.00,1.2689
6266.00,1.2700
6265.00,1.2710
6264.00,1.2720
6263.00,1.2729
6262.00,1.2737
6261.00,1.2746
6260.00,1.2757
6259.00,1.2769
6258.00,1.2781
6257.00,1.2792
6256.00,1.2801
6255.00,1.2809
6254.00,1.2814
6253.00,1.2816
6252.00,1.2816
6251.00,1.2817
6250.00,1.2819
6249.00,1.2821
6248.00,1.2824
6247.00,1.2829
6246.00,1.2834
6245.00,1.2836
6244.00,1.2836
6243.00,1.2833
6242.00,1.2831
6241.00,1.2831
6240.00,1.2830
6239.00,1.2827
6238.00,1.2823
6237.00,1.2819
6236.00,1.2813
6235.00,1.2806
6234.00,1.2798
6233.00,1.2793
6232.00,1.2790
6231.00,1.2790
6230.00,1.2789
6229.00,1.2784
6228.00,1.2776
6227.00,1.2767
6226.00,1.2757
6225.00,1.2745
6224.00,1.2730
6223.00,1.2713
6222.00,1.2698
6221.00,1.2683
6220.00,1.2668
6219.00,1.2654
6218.00,1.2643
6217.00,1.2631
6216.00,1.2617
6215.00,1.2602
6214.00,1.2587
6213.00,1.2574
6212.00,1.2561
6211.00,1.2547
6210.00,1.2531
6209.00,1.2514
6208.00,1.2494
6207.00,1.2471
6206.00,1.2446
6205.00,1.2422
6204.00,1.2398
6203.00,1.2377
6202.00,1.2356
6201.00,1.2334
6200.00,1.2311
6199.00,1.2288
6198.00,1.2265
6197.00,1.2243
6196.00,1.2219
6195.00,1.2194
6194.00,1.2169
6193.00,1.2144
6192.00,1.2117
6191.00,1.2088
6190.00,1.2057
6189.00,1.2025
6188.00,1.1992
6187.00,1.1957
6186.00,1.1924
6185.00,1.1893
6184.00,1.1865
6183.00,1.1836
6182.00,1.1807
6181.00,1.1776
6180.00,1.1742
6179.00,1.1706
6178.00,1.1668
6177.00,1.1629
6176.00,1.1589
6175.00,1.1550
6174.00,1.1511
6173.00,1.1473
6172.00,1.1436
6171.00,1.1397
6170.00,1.1358
6169.00,1.1319
6168.00,1.1279
6167.00,1.1238
6166.00,1.1195
6165.00,1.1152
6164.00,1.1108
6163.00,1.1064
6162.00,1.1021
6161.00,1.0977
6160.00,1.0932
6159.00,1.0885
6158.00,1.0837
6157.00,1.0791
6156.00,1.0746
6155.00,1.0700
6154.00,1.0653
6153.00,1.0606
6152.00,1.0558
6151.00,1.0510
6150.00,1.0460
6149.00,1.0411
6148.00,1.0362
6147.00,1.0313
6146.00,1.0264
6145.00,1.0213
6144.00,1.0161
6143.00,1.0107
6142.00,1.0053
6141.00,0.9999
6140.00,0.9944
6139.00,0.9891
6138.00,0.9838
6137.00,0.9785
6136.00,0.9732
6135.00,0.9677
6134.00,0.9621
6133.00,0.9565
6132.00,0.9509
6131.00,0.9452
6130.00,0.9397
6129.00,0.9343
6128.00,0.9290
6127.00,0.9237
6126.00,0.9182
6125.00,0.9128
6124.00,0.9074
6123.00,0.9019
6122.00,0.8965
6121.00,0.8912
6120.00,0.8858
6119.00,0.8805
6118.00,0.8752
6117.00,0.8699
6116.00,0.8648
6115.00,0.8596
6114.00,0.8544
6113.00,0.8493
6112.00,0.8441
6111.00,0.8388
6110.00,0.8336
6109.00,0.8285
6108.00,0.8236
6107.00,0.8189
6106.00,0.8144
6105.00,0.8100
6104.00,0.8055
6103.00,0.8009
6102.00,0.7964
6101.00,0.7920
6100.00,0.7878
6099.00,0.7837
6098.00,0.7799
6097.00,0.7762
6096.00,0.7726
6095.00,0.7691
6094.00,0.7657
6093.00,0.7625
6092.00,0.7594
6091.00,0.7564
6090.00,0.7535
6089.00,0.7507
6088.00,0.7481
6087.00,0.7454
6086.00,0.7430
6085.00,0.7407
6084.00,0.7386
6083.00,0.7366
6082.00,0.7348
6081.00,0.7332
6080.00,0.7317
6079.00,0.7304
6078.00,0.7293
6077.00,0.7284
6076.00,0.7276
6075.00,0.7269
6074.00,0.7263
6073.00,0.7259
6072.00,0.7256
6071.00,0.7255
6070.00,0.7256
6069.00,0.7259
6068.00,0.7263
6067.00,0.7269
6066.00,0.7276
6065.00,0.7285
6064.00,0.7295
6063.00,0.7307
6062.00,0.7320
6061.00,0.7335
6060.00,0.7351
6059.00,0.7367
6058.00,0.7385
6057.00,0.7405
6056.00,0.7426
6055.00,0.7448
6054.00,0.7472
6053.00,0.7497
6052.00,0.7523
6051.00,0.7549
6050.00,0.7577
6049.00,0.7607
6048.00,0.7638
6047.00,0.7670
6046.00,0.7702
6045.00,0.7735
6044.00,0.7769
6043.00,0.7803
6042.00,0.7839
6041.00,0.7877
6040.00,0.7916
6039.00,0.7955
6038.00,0.7995
6037.00,0.8034
6036.00,0.8074
6035.00,0.8115
6034.00,0.8157
6033.00,0.8201
6032.00,0.8245
6031.00,0.8290
6030.00,0.8336
6029.00,0.8383
6028.00,0.8431
6027.00,0.8479
6026.00,0.8527
6025.00,0.8576
6024.00,0.8623
6023.00,0.8669
6022.00,0.8715
6021.00,0.8762
6020.00,0.8809
6019.00,0.8857
6018.00,0.8907
6017.00,0.8959
6016.00,0.9011
6015.00,0.9063
6014.00,0.9115
6013.00,0.9167
6012.00,0.9218
6011.00,0.9269
6010.00,0.9319
6009.00,0.9370
6008.00,0.9420
6007.00,0.9470
6006.00,0.9520
6005.00,0.9570
6004.00,0.9621
6003.00,0.9672
6002.00,0.9724
6001.00,0.9778
6000.00,0.9833
5999.00,0.9886
5998.00,0.9938
5997.00,0.9988
5996.00,1.0038
5995.00,1.0088
5994.00,1.0137
5993.00,1.0186
5992.00,1.0236
5991.00,1.0284
5990.00,1.0333
5989.00,1.0381
5988.00,1.0428
5987.00,1.0476
5986.00,1.0524
5985.00,1.0573
5984.00,1.0620
5983.00,1.0665
5982.00,1.0711
5981.00,1.0759
5980.00,1.0808
5979.00,1.0855
5978.00,1.0901
5977.00,1.0945
5976.00,1.0987
5975.00,1.1028
5974.00,1.1069
5973.00,1.1111
5972.00,1.1154
5971.00,1.1198
5970.00,1.1242
5969.00,1.1285
5968.00,1.1325
5967.00,1.1361
5966.00,1.1398
5965.00,1.1436
5964.00,1.1476
5963.00,1.1518
5962.00,1.1561
5961.00,1.1604
5960.00,1.1646
5959.00,1.1687
5958.00,1.1728
5957.00,1.1768
5956.00,1.1809
5955.00,1.1849
5954.00,1.1889
5953.00,1.1928
5952.00,1.1967
5951.00,1.2006
5950.00,1.2045
5949.00,1.2086
5948.00,1.2128
5947.00,1.2170
5946.00,1.2210
5945.00,1.2248
5944.00,1.2285
5943.00,1.2321
5942.00,1.2358
5941.00,1.2394
5940.00,1.2430
5939.00,1.2463
5938.00,1.2494
5937.00,1.2527
5936.00,1.2561
5935.00,1.2595
5934.00,1.2628
5933.00,1.2660
5932.00,1.2690
5931.00,1.2715
5930.00,1.2739
5929.00,1.2762
5928.00,1.2787
5927.00,1.2815
5926.00,1.2843
5925.00,1.2869
5924.00,1.2892
5923.00,1.2910
5922.00,1.2926
5921.00,1.2942
5920.00,1.2962
5919.00,1.2984
5918.00,1.3006
5917.00,1.3029
5916.00,1.3049
5915.00,1.3068
5914.00,1.3084
5913.00,1.3099
5912.00,1.3114
5911.00,1.3130
5910.00,1.3145
5909.00,1.3158
5908.00,1.3170
5907.00,1.3183
5906.00,1.3195
5905.00,1.3208
5904.00,1.3220
5903.00,1.3231
5902.00,1.3241
5901.00,1.3249
5900.00,1.3255
5899.00,1.3259
5898.00,1.3266
5897.00,1.3273
5896.00,1.3280
5895.00,1.3286
5894.00,1.3290
5893.00,1.3294
5892.00,1.3298
5891.00,1.3303
5890.00,1.3307
5889.00,1.3311
5888.00,1.3312
5887.00,1.3312
5886.00,1.3311
5885.00,1.3310
5884.00,1.3308
5883.00,1.3305
5882.00,1.3302
5881.00,1.3298
5880.00,1.3292
5879.00,1.3285
5878.00,1.3279
5877.00,1.3274
5876.00,1.3269
5875.00,1.3262
5874.00,1.3253
5873.00,1.3242
5872.00,1.3231
5871.00,1.3220
5870.00,1.3212
5869.00,1.3207
5868.00,1.3203
5867.00,1.3198
5866.00,1.3193
5865.00,1.3184
5864.00,1.3172
5863.00,1.3159
5862.00,1.3144
5861.00,1.3130
5860.00,1.3114
5859.00,1.3099
5858.00,1.3084
5857.00,1.3071
5856.00,1.3056
5855.00,1.3039
5854.00,1.3021
5853.00,1.3003
5852.00,1.2984
5851.00,1.2962
5850.00,1.2940
5849.00,1.2918
5848.00,1.2897
5847.00,1.2875
5846.00,1.2852
5845.00,1.2829
5844.00,1.2807
5843.00,1.2782
5842.00,1.2754
5841.00,1.2727
5840.00,1.2699
5839.00,1.2673
5838.00,1.2647
5837.00,1.2622
5836.00,1.2597
5835.00,1.2569
5834.00,1.2540
5833.00,1.2509
5832.00,1.2480
5831.00,1.2451
5830.00,1.2422
5829.00,1.2392
5828.00,1.2360
5827.00,1.2326
5826.00,1.2290
5825.00,1.2253
5824.00,1.2218
5823.00,1.2185
5822.00,1.2151
5821.00,1.2115
5820.00,1.2076
5819.00,1.2036
5818.00,1.1995
5817.00,1.1953
5816.00,1.1911
5815.00,1.1870
5814.00,1.1831
5813.00,1.1793
5812.00,1.1755
5811.00,1.1714
5810.00,1.1672
5809.00,1.1628
5808.00,1.1583
5807.00,1.1537
5806.00,1.1491
5805.00,1.1446
5804.00,1.1402
5803.00,1.1358
5802.00,1.1313
5801.00,1.1266
5800.00,1.1218
5799.00,1.1170
5798.00,1.1120
5797.00,1.1069
5796.00,1.1017
5795.00,1.0965
5794.00,1.0914
5793.00,1.0863
5792.00,1.0810
5791.00,1.0755
5790.00,1.0699
5789.00,1.0641
5788.00,1.0584
5787.00,1.0527
5786.00,1.0471
5785.00,1.0416
5784.00,1.0360
5783.00,1.0302
5782.00,1.0243
5781.00,1.0183
5780.00,1.0123
5779.00,1.0063
5778.00,1.0004
5777.00,0.9946
5776.00,0.9889
5775.00,0.9832
5774.00,0.9775
5773.00,0.9717
5772.00,0.9658
5771.00,0.9598
5770.00,0.9537
5769.00,0.9476
5768.00,0.9416
5767.00,0.9356
5766.00,0.9296
5765.00,0.9237
5764.00,0.9179
5763.00,0.9120
5762.00,0.9061
5761.00,0.9003
5760.00,0.8944
5759.00,0.8886
5758.00,0.8827
5757.00,0.8770
5756.00,0.8713
5755.00,0.8658
5754.00,0.8604
5753.00,0.8551
5752.00,0.8498
5751.00,0.8446
5750.00,0.8394
5749.00,0.8342
5748.00,0.8291
5747.00,0.8240
5746.00,0.8191
5745.00,0.8143
5744.00,0.8096
5743.00,0.8051
5742.00,0.8006
5741.00,0.7963
5740.00,0.7920
5739.00,0.7878
5738.00,0.7836
5737.00,0.7797
5736.00,0.7758
5735.00,0.7721
5734.00,0.7684
5733.00,0.7649
5732.00,0.7616
5731.00,0.7583
5730.00,0.7552
5729.00,0.7523
5728.00,0.7495
5727.00,0.7468
5726.00,0.7443
5725.00,0.7418
5724.00,0.7395
5723.00,0.7374
5722.00,0.7355
5721.00,0.7337
5720.00,0.7322
5719.00,0.7308
5718.00,0.7295
5717.00,0.7284
5716.00,0.7275
5715.00,0.7267
5714.00,0.7261
5713.00,0.7257
5712.00,0.7255
5711.00,0.7254
5710.00,0.7256
5709.00,0.7260
5708.00,0.7265
5707.00,0.7272
5706.00,0.7281
5705.00,0.7291
5704.00,0.7302
5703.00,0.7315
5702.00,0.7329
5701.00,0.7346
5700.00,0.7364
5699.00,0.7384
5698.00,0.7405
5697.00,0.7428
5696.00,0.7451
5695.00,0.7476
5694.00,0.7501
5693.00,0.7528
5692.00,0.7557
5691.00,0.7587
5690.00,0.7619
5689.00,0.7652
5688.00,0.7686
5687.00,0.7720
5686.00,0.7756
5685.00,0.7792
5684.00,0.7829
5683.00,0.7867
5682.00,0.7906
5681.00,0.7946
5680.00,0.7986
5679.00,0.8027
5678.00,0.8070
5677.00,0.8115
5676.00,0.8161
5675.00,0.8207
5674.00,0.8254
5673.00,0.8301
5672.00,0.8348
5671.00,0.8395
5670.00,0.8443
5669.00,0.8491
5668.00,0.8541
5667.00,0.8592
5666.00,0.8644
5665.00,0.8696
5664.00,0.8748
5663.00,0.8800
5662.00,0.8851
5661.00,0.8903
5660.00,0.8956
5659.00,0.9009
5658.00,0.9063
5657.00,0.9117
5656.00,0.9171
5655.00,0.9225
5654.00,0.9279
5653.00,0.9333
5652.00,0.9387
5651.00,0.9442
5650.00,0.9496
5649.00,0.9550
5648.00,0.9603
5647.00,0.9656
5646.00,0.9709
5645.00,0.9763
5644.00,0.9816
5643.00,0.9869
5642.00,0.9922
5641.00,0.9976
5640.00,1.0030
5639.00,1.0082
5638.00,1.0135
5637.00,1.0187
5636.00,1.0238
5635.00,1.0288
5634.00,1.0338
5633.00,1.0388
5632.00,1.0438
5631.00,1.0488
5630.00,1.0538
5629.00,1.0587
5628.00,1.0637
5627.00,1.0687
5626.00,1.0738
5625.00,1.0789
5624.00,1.0842
5623.00,1.0894
5622.00,1.0945
5621.00,1.0994
5620.00,1.1042
5619.00,1.1090
5618.00,1.1138
5617.00,1.1187
5616.00,1.1236
5615.00,1.1284
5614.00,1.1331
5613.00,1.1378
5612.00,1.1426
5611.00,1.1475
5610.00,1.1524
5609.00,1.1574
5608.00,1.1623
5607.00,1.1670
5606.00,1.1715
5605.00,1.1760
5604.00,1.1804
5603.00,1.1848
5602.00,1.1893
5601.00,1.1937
5600.00,1.1982
5599.00,1.2026
5598.00,1.2069
5597.00,1.2112
5596.00,1.2152
5595.00,1.2191
5594.00,1.2230
5593.00,1.2268
5592.00,1.2306
5591.00,1.2342
5590.00,1.2377
5589.00,1.2413
5588.00,1.2448
5587.00,1.2484
5586.00,1.2518
5585.00,1.2551
5584.00,1.2583
5583.00,1.2617
5582.00,1.2650
5581.00,1.2683
5580.00,1.2716
5579.00,1.2749
5578.00,1.2780
5577.00,1.2810
5576.00,1.2838
5575.00,1.2868
5574.00,1.2898
5573.00,1.2927
5572.00,1.2954
5571.00,1.2980
5570.00,1.3007
5569.00,1.3035
5568.00,1.3062
5567.00,1.3088
5566.00,1.3113
5565.00,1.3137
5564.00,1.3160
5563.00,1.3181
5562.00,1.3203
5561.00,1.3225
5560.00,1.3248
5559.00,1.3269
5558.00,1.3289
5557.00,1.3307
5556.00,1.3325
5555.00,1.3344
5554.00,1.3365
5553.00,1.3385
5552.00,1.3405
5551.00,1.3423
5550.00,1.3438
5549.00,1.3451
5548.00,1.3463
5547.00,1.3475
5546.00,1.3489
5545.00,1.3504
5544.00,1.3518
5543.00,1.3532
5542.00,1.3544
5541.00,1.3556
5540.00,1.3565
5539.00,1.3573
5538.00,1.3580
5537.00,1.3585
5536.00,1.3589
5535.00,1.3594
5534.00,1.3600
5533.00,1.3606
5532.00,1.3611
5531.00,1.3616
5530.00,1.3621
5529.00,1.3624
5528.00,1.3627
5527.00,1.3630
5526.00,1.3632
5525.00,1.3635
5524.00,1.3636
5523.00,1.3635
5522.00,1.3633
5521.00,1.3630
5520.00,1.3628
5519.00,1.3625
5518.00,1.3622
5517.00,1.3619
5516.00,1.3616
5515.00,1.3613
5514.00,1.3609
5513.00,1.3604
5512.00,1.3597
5511.00,1.3591
5510.00,1.3584
5509.00,1.3576
5508.00,1.3568
5507.00,1.3557
5506.00,1.3546
5505.00,1.3533
5504.00,1.3520
5503.00,1.3508
5502.00,1.3498
5501.00,1.3489
5500.00,1.3480
5499.00,1.3468
5498.00,1.3451
5497.00,1.3432
5496.00,1.3410
5495.00,1.3388
5494.00,1.3367
5493.00,1.3348
5492.00,1.3330
5491.00,1.3313
5490.00,1.3298
5489.00,1.3283
5488.00,1.3266
5487.00,1.3247
5486.00,1.3225
5485.00,1.3203
5484.00,1.3180
5483.00,1.3156
5482.00,1.3133
5481.00,1.3108
5480.00,1.3081
5479.00,1.3053
5478.00,1.3024
5477.00,1.2996
5476.00,1.2967
5475.00,1.2937
5474.00,1.2906
5473.00,1.2875
5472.00,1.2842
5471.00,1.2810
5470.00,1.2778
5469.00,1.2746
5468.00,1.2715
5467.00,1.2681
5466.00,1.2646
5465.00,1.2608
5464.00,1.2570
5463.00,1.2531
5462.00,1.2494
5461.00,1.2459
5460.00,1.2425
5459.00,1.2391
5458.00,1.2355
5457.00,1.2317
5456.00,1.2275
5455.00,1.2230
5454.00,1.2184
5453.00,1.2139
5452.00,1.2095
5451.00,1.2051
5450.00,1.2006
5449.00,1.1961
5448.00,1.1915
5447.00,1.1868
5446.00,1.1820
5445.00,1.1770
5444.00,1.1719
5443.00,1.1669
5442.00,1.1620
5441.00,1.1569
5440.00,1.1517
5439.00,1.1464
5438.00,1.1413
5437.00,1.1363
5436.00,1.1311
5435.00,1.1257
5434.00,1.1202
5433.00,1.1146
5432.00,1.1091
5431.00,1.1035
5430.00,1.0977
5429.00,1.0916
5428.00,1.0855
5427.00,1.0793
5426.00,1.0733
5425.00,1.0674
5424.00,1.0614
5423.00,1.0554
5422.00,1.0494
5421.00,1.0434
5420.00,1.0372
5419.00,1.0309
5418.00,1.0246
5417.00,1.0182
5416.00,1.0117
5415.00,1.0051
5414.00,0.9984
5413.00,0.9917
5412.00,0.9851
5411.00,0.9784
5410.00,0.9717
5409.00,0.9649
5408.00,0.9582
5407.00,0.9515
5406.00,0.9449
5405.00,0.9384
5404.00,0.9319
5403.00,0.9254
5402.00,0.9189
5401.00,0.9124
5400.00,0.9060
5399.00,0.8996
5398.00,0.8932
5397.00,0.8867
5396.00,0.8802
5395.00,0.8736
5394.00,0.8670
5393.00,0.8605
5392.00,0.8540
5391.00,0.8476
5390.00,0.8415
5389.00,0.8355
5388.00,0.8297
5387.00,0.8238
5386.00,0.8180
5385.00,0.8123
5384.00,0.8066
5383.00,0.8011
5382.00,0.7957
5381.00,0.7905
5380.00,0.7855
5379.00,0.7807
5378.00,0.7760
5377.00,0.7714
5376.00,0.7667
5375.00,0.7621
5374.00,0.7578
5373.00,0.7537
5372.00,0.7499
5371.00,0.7464
5370.00,0.7430
5369.00,0.7398
5368.00,0.7367
5367.00,0.7337
5366.00,0.7309
5365.00,0.7284
5364.00,0.7260
5363.00,0.7239
5362.00,0.7220
5361.00,0.7204
5360.00,0.7190
5359.00,0.7178
5358.00,0.7168
5357.00,0.7160
5356.00,0.7154
5355.00,0.7150
5354.00,0.7147
5353.00,0.7146
5352.00,0.7147
5351.00,0.7151
5350.00,0.7157
5349.00,0.7164
5348.00,0.7173
5347.00,0.7185
5346.00,0.7200
5345.00,0.7217
5344.00,0.7235
5343.00,0.7255
5342.00,0.7276
5341.00,0.7301
5340.00,0.7327
5339.00,0.7354
5338.00,0.7383
5337.00,0.7413
5336.00,0.7446
5335.00,0.7480
5334.00,0.7516
5333.00,0.7553
5332.00,0.7592
5331.00,0.7631
5330.00,0.7672
5329.00,0.7716
5328.00,0.7760
5327.00,0.7806
5326.00,0.7853
5325.00,0.7902
5324.00,0.7952
5323.00,0.8002
5322.00,0.8052
5321.00,0.8103
5320.00,0.8155
5319.00,0.8209
5318.00,0.8263
5317.00,0.8319
5316.00,0.8375
5315.00,0.8430
5314.00,0.8486
5313.00,0.8543
5312.00,0.8601
5311.00,0.8660
5310.00,0.8719
5309.00,0.8778
5308.00,0.8838
5307.00,0.8898
5306.00,0.8959
5305.00,0.9021
5304.00,0.9085
5303.00,0.9148
5302.00,0.9212
5301.00,0.9276
5300.00,0.9342
5299.00,0.9407
5298.00,0.9473
5297.00,0.9538
5296.00,0.9603
5295.00,0.9667
5294.00,0.9730
5293.00,0.9793
5292.00,0.9856
5291.00,0.9921
5290.00,0.9986
5289.00,1.0052
5288.00,1.0119
5287.00,1.0186
5286.00,1.0252
5285.00,1.0317
5284.00,1.0381
5283.00,1.0444
5282.00,1.0509
5281.00,1.0574
5280.00,1.0640
5279.00,1.0704
5278.00,1.0769
5277.00,1.0832
5276.00,1.0893
5275.00,1.0953
5274.00,1.1013
5273.00,1.1073
5272.00,1.1133
5271.00,1.1192
5270.00,1.1252
5269.00,1.1312
5268.00,1.1370
5267.00,1.1428
5266.00,1.1485
5265.00,1.1541
5264.00,1.1596
5263.00,1.1653
5262.00,1.1710
5261.00,1.1768
5260.00,1.1825
5259.00,1.1879
5258.00,1.1931
5257.00,1.1984
5256.00,1.2037
5255.00,1.2089
5254.00,1.2140
5253.00,1.2191
5252.00,1.2240
5251.00,1.2289
5250.00,1.2338
5249.00,1.2387
5248.00,1.2435
5247.00,1.2482
5246.00,1.2529
5245.00,1.2576
5244.00,1.2622
5243.00,1.2668
5242.00,1.2715
5241.00,1.2761
5240.00,1.2806
5239.00,1.2849
5238.00,1.2890
5237.00,1.2930
5236.00,1.2970
5235.00,1.3010
5234.00,1.3050
5233.00,1.3090
5232.00,1.3128
5231.00,1.3165
5230.00,1.3200
5229.00,1.3234
5228.00,1.3267
5227.00,1.3299
5226.00,1.3331
5225.00,1.3364
5224.00,1.3399
5223.00,1.3434
5222.00,1.3470
5221.00,1.3504
5220.00,1.3535
5219.00,1.3562
5218.00,1.3588
5217.00,1.3615
5216.00,1.3642
5215.00,1.3671
5214.00,1.3699
5213.00,1.3727
5212.00,1.3754
5211.00,1.3780
5210.00,1.3804
5209.00,1.3827
5208.00,1.3851
5207.00,1.3874
5206.00,1.3896
5205.00,1.3917
5204.00,1.3937
5203.00,1.3955
5202.00,1.3972
5201.00,1.3990
5200.00,1.4009
5199.00,1.4030
5198.00,1.4051
5197.00,1.4071
5196.00,1.4087
5195.00,1.4100
5194.00,1.4111
5193.00,1.4122
5192.00,1.4134
5191.00,1.4148
5190.00,1.4161
5189.00,1.4176
5188.00,1.4190
5187.00,1.4203
5186.00,1.4215
5185.00,1.4226
5184.00,1.4235
5183.00,1.4243
5182.00,1.4249
5181.00,1.4255
5180.00,1.4260
5179.00,1.4266
5178.00,1.4272
5177.00,1.4279
5176.00,1.4284
5175.00,1.4289
5174.00,1.4293
5173.00,1.4296
5172.00,1.4298
5171.00,1.4300
5170.00,1.4300
5169.00,1.4299
5168.00,1.4297
5167.00,1.4294
5166.00,1.4293
5165.00,1.4293
5164.00,1.4292
5163.00,1.4290
5162.00,1.4287
5161.00,1.4283
5160.00,1.4277
5159.00,1.4271
5158.00,1.4266
5157.00,1.4260
5156.00,1.4254
5155.00,1.4245
5154.00,1.4236
5153.00,1.4227
5152.00,1.4217
5151.00,1.4207
5150.00,1.4197
5149.00,1.4187
5148.00,1.4177
5147.00,1.4166
5146.00,1.4154
5145.00,1.4141
5144.00,1.4127
5143.00,1.4110
5142.00,1.4093
5141.00,1.4075
5140.00,1.4057
5139.00,1.4039
5138.00,1.4021
5137.00,1.4004
5136.00,1.3986
5135.00,1.3966
5134.00,1.3946
5133.00,1.3925
5132.00,1.3904
5131.00,1.3882
5130.00,1.3861
5129.00,1.3839
5128.00,1.3818
5127.00,1.3795
5126.00,1.3772
5125.00,1.3748
5124.00,1.3723
5123.00,1.3696
5122.00,1.3667
5121.00,1.3635
5120.00,1.3603
5119.00,1.3572
5118.00,1.3541
5117.00,1.3510
5116.00,1.3479
5115.00,1.3447
5114.00,1.3414
5113.00,1.3381
5112.00,1.3348
5111.00,1.3315
5110.00,1.3282
5109.00,1.3249
5108.00,1.3213
5107.00,1.3177
5106.00,1.3139
5105.00,1.3100
5104.00,1.3059
5103.00,1.3016
5102.00,1.2974
5101.00,1.2931
5100.00,1.2890
5099.00,1.2848
5098.00,1.2805
5097.00,1.2761
5096.00,1.2716
5095.00,1.2669
5094.00,1.2621
5093.00,1.2574
5092.00,1.2528
5091.00,1.2482
5090.00,1.2435
5089.00,1.2386
5088.00,1.2334
5087.00,1.2281
5086.00,1.2227
5085.00,1.2172
5084.00,1.2118
5083.00,1.2065
5082.00,1.2012
5081.00,1.1958
5080.00,1.1904
5079.00,1.1847
5078.00,1.1789
5077.00,1.1730
5076.00,1.1670
5075.00,1.1608
5074.00,1.1547
5073.00,1.1485
5072.00,1.1422
5071.00,1.1358
5070.00,1.1294
5069.00,1.1229
5068.00,1.1165
5067.00,1.1100
5066.00,1.1035
5065.00,1.0968
5064.00,1.0901
5063.00,1.0832
5062.00,1.0763
5061.00,1.0693
5060.00,1.0623
5059.00,1.0552
5058.00,1.0480
5057.00,1.0407
5056.00,1.0334
5055.00,1.0261
5054.00,1.0188
5053.00,1.0115
5052.00,1.0041
5051.00,0.9967
5050.00,0.9893
5049.00,0.9819
5048.00,0.9745
5047.00,0.9671
5046.00,0.9596
5045.00,0.9521
5044.00,0.9446
5043.00,0.9370
5042.00,0.9293
5041.00,0.9216
5040.00,0.9140
5039.00,0.9065
5038.00,0.8991
5037.00,0.8917
5036.00,0.8843
5035.00,0.8769
5034.00,0.8695
5033.00,0.8622
5032.00,0.8550
5031.00,0.8479
5030.00,0.8409
5029.00,0.8339
5028.00,0.8270
5027.00,0.8203
5026.00,0.8136
5025.00,0.8071
5024.00,0.8008
5023.00,0.7945
5022.00,0.7884
5021.00,0.7824
5020.00,0.7766
5019.00,0.7709
5018.00,0.7655
5017.00,0.7602
5016.00,0.7551
5015.00,0.7503
5014.00,0.7456
5013.00,0.7412
5012.00,0.7370
5011.00,0.7330
5010.00,0.7292
5009.00,0.7257
5008.00,0.7224
5007.00,0.7193
5006.00,0.7165
5005.00,0.7140
5004.00,0.7118
5003.00,0.7097
5002.00,0.7080
5001.00,0.7065
5000.00,0.7053
4999.00,0.7044
4998.00,0.7037
4997.00,0.7034
4996.00,0.7032
4995.00,0.7032
4994.00,0.7035
4993.00,0.7041
4992.00,0.7049
4991.00,0.7060
4990.00,0.7073
4989.00,0.7089
4988.00,0.7106
4987.00,0.7126
4986.00,0.7148
4985.00,0.7173
4984.00,0.7200
4983.00,0.7230
4982.00,0.7262
4981.00,0.7296
4980.00,0.7332
4979.00,0.7369
4978.00,0.7408
4977.00,0.7449
4976.00,0.7491
4975.00,0.7535
4974.00,0.7580
4973.00,0.7627
4972.00,0.7675
4971.00,0.7724
4970.00,0.7775
4969.00,0.7828
4968.00,0.7883
4967.00,0.7938
4966.00,0.7995
4965.00,0.8053
4964.00,0.8112
4963.00,0.8172
4962.00,0.8233
4961.00,0.8296
4960.00,0.8359
4959.00,0.8424
4958.00,0.8488
4957.00,0.8554
4956.00,0.8619
4955.00,0.8686
4954.00,0.8753
4953.00,0.8821
4952.00,0.8890
4951.00,0.8960
4950.00,0.9030
4949.00,0.9100
4948.00,0.9170
4947.00,0.9241
4946.00,0.9313
4945.00,0.9386
4944.00,0.9460
4943.00,0.9533
4942.00,0.9607
4941.00,0.9681
4940.00,0.9754
4939.00,0.9827
4938.00,0.9900
4937.00,0.9973
4936.00,1.0045
4935.00,1.0118
4934.00,1.0192
4933.00,1.0267
4932.00,1.0341
4931.00,1.0415
4930.00,1.0488
4929.00,1.0560
4928.00,1.0631
4927.00,1.0702
4926.00,1.0774
4925.00,1.0847
4924.00,1.0921
4923.00,1.0994
4922.00,1.1066
4921.00,1.1136
4920.00,1.1205
4919.00,1.1274
4918.00,1.1343
4917.00,1.1412
4916.00,1.1482
4915.00,1.1551
4914.00,1.1619
4913.00,1.1686
4912.00,1.1752
4911.00,1.1817
4910.00,1.1882
4909.00,1.1947
4908.00,1.2012
4907.00,1.2076
4906.00,1.2139
4905.00,1.2200
4904.00,1.2261
4903.00,1.2321
4902.00,1.2381
4901.00,1.2440
4900.00,1.2498
4899.00,1.2556
4898.00,1.2613
4897.00,1.2670
4896.00,1.2727
4895.00,1.2784
4894.00,1.2840
4893.00,1.2893
4892.00,1.2945
4891.00,1.2996
4890.00,1.3046
4889.00,1.3097
4888.00,1.3148
4887.00,1.3201
4886.00,1.3253
4885.00,1.3304
4884.00,1.3353
4883.00,1.3401
4882.00,1.3447
4881.00,1.3491
4880.00,1.3535
4879.00,1.3578
4878.00,1.3620
4877.00,1.3663
4876.00,1.3704
4875.00,1.3744
4874.00,1.3783
4873.00,1.3821
4872.00,1.3859
4871.00,1.3898
4870.00,1.3939
4869.00,1.3979
4868.00,1.4018
4867.00,1.4056
4866.00,1.4091
4865.00,1.4125
4864.00,1.4160
4863.00,1.4194
4862.00,1.4227
4861.00,1.4259
4860.00,1.4290
4859.00,1.4319
4858.00,1.4347
4857.00,1.4374
4856.00,1.4401
4855.00,1.4428
4854.00,1.4456
4853.00,1.4484
4852.00,1.4511
4851.00,1.4538
4850.00,1.4564
4849.00,1.4589
4848.00,1.4613
4847.00,1.4637
4846.00,1.4658
4845.00,1.4679
4844.00,1.4698
4843.00,1.4717
4842.00,1.4737
4841.00,1.4758
4840.00,1.4778
4839.00,1.4797
4838.00,1.4815
4837.00,1.4830
4836.00,1.4844
4835.00,1.4858
4834.00,1.4873
4833.00,1.4890
4832.00,1.4906
4831.00,1.4920
4830.00,1.4934
4829.00,1.4947
4828.00,1.4960
4827.00,1.4972
4826.00,1.4983
4825.00,1.4992
4824.00,1.4999
4823.00,1.5005
4822.00,1.5009
4821.00,1.5015
4820.00,1.5022
4819.00,1.5031
4818.00,1.5039
4817.00,1.5045
4816.00,1.5049
4815.00,1.5050
4814.00,1.5051
4813.00,1.5052
4812.00,1.5052
4811.00,1.5053
4810.00,1.5054
4809.00,1.5054
4808.00,1.5053
4807.00,1.5052
4806.00,1.5051
4805.00,1.5050
4804.00,1.5049
4803.00,1.5049
4802.00,1.5046
4801.00,1.5040
4800.00,1.5031
4799.00,1.5022
4798.00,1.5014
4797.00,1.5007
4796.00,1.5002
4795.00,1.4996
4794.00,1.4990
4793.00,1.4981
4792.00,1.4972
4791.00,1.4961
4790.00,1.4949
4789.00,1.4936
4788.00,1.4922
4787.00,1.4907
4786.00,1.4892
4785.00,1.4877
4784.00,1.4861
4783.00,1.4847
4782.00,1.4832
4781.00,1.4818
4780.00,1.4802
4779.00,1.4783
4778.00,1.4764
4777.00,1.4743
4776.00,1.4722
4775.00,1.4700
4774.00,1.4678
4773.00,1.4655
4772.00,1.4632
4771.00,1.4608
4770.00,1.4584
4769.00,1.4561
4768.00,1.4536
4767.00,1.4512
4766.00,1.4485
4765.00,1.4457
4764.00,1.4428
4763.00,1.4398
4762.00,1.4369
4761.00,1.4340
4760.00,1.4311
4759.00,1.4280
4758.00,1.4247
4757.00,1.4213
4756.00,1.4180
4755.00,1.4147
4754.00,1.4114
4753.00,1.4079
4752.00,1.4041
4751.00,1.4001
4750.00,1.3961
4749.00,1.3922
4748.00,1.3884
4747.00,1.3847
4746.00,1.3808
4745.00,1.3767
4744.00,1.3725
4743.00,1.3681
4742.00,1.3637
4741.00,1.3592
4740.00,1.3546
4739.00,1.3499
4738.00,1.3449
4737.00,1.3398
4736.00,1.3347
4735.00,1.3298
4734.00,1.3250
4733.00,1.3201
4732.00,1.3150
4731.00,1.3097
4730.00,1.3042
4729.00,1.2987
4728.00,1.2931
4727.00,1.2874
4726.00,1.2817
4725.00,1.2759
4724.00,1.2701
4723.00,1.2642
4722.00,1.2582
4721.00,1.2520
4720.00,1.2457
4719.00,1.2393
4718.00,1.2329
4717.00,1.2266
4716.00,1.2203
4715.00,1.2138
4714.00,1.2072
4713.00,1.2003
4712.00,1.1934
4711.00,1.1864
4710.00,1.1794
4709.00,1.1724
4708.00,1.1652
4707.00,1.1578
4706.00,1.1504
4705.00,1.1429
4704.00,1.1354
4703.00,1.1278
4702.00,1.1202
4701.00,1.1126
4700.00,1.1050
4699.00,1.0972
4698.00,1.0894
4697.00,1.0816
4696.00,1.0736
4695.00,1.0655
4694.00,1.0574
4693.00,1.0492
4692.00,1.0411
4691.00,1.0329
4690.00,1.0247
4689.00,1.0165
4688.00,1.0083
4687.00,1.0000
4686.00,0.9917
4685.00,0.9835
4684.00,0.9753
4683.00,0.9672
4682.00,0.9590
4681.00,0.9509
4680.00,0.9428
4679.00,0.9347
4678.00,0.9266
4677.00,0.9186
4676.00,0.9106
4675.00,0.9026
4674.00,0.8946
4673.00,0.8867
4672.00,0.8789
4671.00,0.8711
4670.00,0.8634
4669.00,0.8558
4668.00,0.8483
4667.00,0.8408
4666.00,0.8334
4665.00,0.8261
4664.00,0.8189
4663.00,0.8119
4662.00,0.8050
4661.00,0.7983
4660.00,0.7917
4659.00,0.7853
4658.00,0.7792
4657.00,0.7733
4656.00,0.7677
4655.00,0.7623
4654.00,0.7572
4653.00,0.7524
4652.00,0.7479
4651.00,0.7436
4650.00,0.7396
4649.00,0.7360
4648.00,0.7326
4647.00,0.7295
4646.00,0.7267
4645.00,0.7243
4644.00,0.7222
4643.00,0.7204
4642.00,0.7190
4641.00,0.7180
4640.00,0.7173
4639.00,0.7169
4638.00,0.7169
4637.00,0.7171
4636.00,0.7176
4635.00,0.7185
4634.00,0.7197
4633.00,0.7212
4632.00,0.7230
4631.00,0.7252
4630.00,0.7276
4629.00,0.7303
4628.00,0.7333
4627.00,0.7365
4626.00,0.7400
4625.00,0.7437
4624.00,0.7477
4623.00,0.7519
4622.00,0.7563
4621.00,0.7610
4620.00,0.7659
4619.00,0.7709
4618.00,0.7762
4617.00,0.7816
4616.00,0.7872
4615.00,0.7929
4614.00,0.7989
4613.00,0.8050
4612.00,0.8113
4611.00,0.8177
4610.00,0.8243
4609.00,0.8311
4608.00,0.8379
4607.00,0.8448
4606.00,0.8518
4605.00,0.8590
4604.00,0.8663
4603.00,0.8737
4602.00,0.8812
4601.00,0.8888
4600.00,0.8964
4599.00,0.9041
4598.00,0.9118
4597.00,0.9196
4596.00,0.9275
4595.00,0.9354
4594.00,0.9433
4593.00,0.9514
4592.00,0.9595
4591.00,0.9678
4590.00,0.9760
4589.00,0.9842
4588.00,0.9925
4587.00,1.0008
4586.00,1.0092
4585.00,1.0176
4584.00,1.0259
4583.00,1.0343
4582.00,1.0426
4581.00,1.0510
4580.00,1.0595
4579.00,1.0679
4578.00,1.0763
4577.00,1.0847
4576.00,1.0930
4575.00,1.1013
4574.00,1.1095
4573.00,1.1177
4572.00,1.1258
4571.00,1.1340
4570.00,1.1421
4569.00,1.1502
4568.00,1.1582
4567.00,1.1661
4566.00,1.1739
4565.00,1.1818
4564.00,1.1896
4563.00,1.1975
4562.00,1.2052
4561.00,1.2129
4560.00,1.2204
4559.00,1.2280
4558.00,1.2355
4557.00,1.2429
4556.00,1.2502
4555.00,1.2574
4554.00,1.2644
4553.00,1.2714
4552.00,1.2783
4551.00,1.2851
4550.00,1.2919
4549.00,1.2986
4548.00,1.3054
4547.00,1.3120
4546.00,1.3186
4545.00,1.3250
4544.00,1.3313
4543.00,1.3376
4542.00,1.3439
4541.00,1.3500
4540.00,1.3560
4539.00,1.3618
4538.00,1.3676
4537.00,1.3734
4536.00,1.3791
4535.00,1.3846
4534.00,1.3899
4533.00,1.3953
4532.00,1.4006
4531.00,1.4061
4530.00,1.4116
4529.00,1.4170
4528.00,1.4221
4527.00,1.4270
4526.00,1.4318
4525.00,1.4366
4524.00,1.4412
4523.00,1.4457
4522.00,1.4501
4521.00,1.4546
4520.00,1.4592
4519.00,1.4637
4518.00,1.4680
4517.00,1.4722
4516.00,1.4763
4515.00,1.4804
4514.00,1.4845
4513.00,1.4885
4512.00,1.4926
4511.00,1.4965
4510.00,1.5003
4509.00,1.5039
4508.00,1.5073
4507.00,1.5105
4506.00,1.5137
4505.00,1.5169
4504.00,1.5204
4503.00,1.5238
4502.00,1.5271
4501.00,1.5301
4500.00,1.5328
4499.00,1.5355
4498.00,1.5381
4497.00,1.5408
4496.00,1.5435
4495.00,1.5461
4494.00,1.5486
4493.00,1.5512
4492.00,1.5538
4491.00,1.5564
4490.00,1.5589
4489.00,1.5612
4488.00,1.5635
4487.00,1.5656
4486.00,1.5677
4485.00,1.5696
4484.00,1.5715
4483.00,1.5734
4482.00,1.5752
4481.00,1.5768
4480.00,1.5784
4479.00,1.5799
4478.00,1.5815
4477.00,1.5830
4476.00,1.5846
4475.00,1.5859
4474.00,1.5871
4473.00,1.5881
4472.00,1.5892
4471.00,1.5902
4470.00,1.5913
4469.00,1.5923
4468.00,1.5933
4467.00,1.5942
4466.00,1.5952
4465.00,1.5961
4464.00,1.5970
4463.00,1.5978
4462.00,1.5985
4461.00,1.5989
4460.00,1.5993
4459.00,1.5995
4458.00,1.5998
4457.00,1.6000
4456.00,1.6002
4455.00,1.6002
4454.00,1.6001
4453.00,1.6001
4452.00,1.6001
4451.00,1.6003
4450.00,1.6004
4449.00,1.6003
4448.00,1.6000
4447.00,1.5995
4446.00,1.5988
4445.00,1.5980
4444.00,1.5971
4443.00,1.5962
4442.00,1.5954
4441.00,1.5946
4440.00,1.5940
4439.00,1.5936
4438.00,1.5931
4437.00,1.5925
4436.00,1.5916
4435.00,1.5903
4434.00,1.5890
4433.00,1.5875
4432.00,1.5860
4431.00,1.5845
4430.00,1.5830
4429.00,1.5814
4428.00,1.5798
4427.00,1.5781
4426.00,1.5764
4425.00,1.5748
4424.00,1.5732
4423.00,1.5715
4422.00,1.5695
4421.00,1.5673
4420.00,1.5651
4419.00,1.5629
4418.00,1.5608
4417.00,1.5586
4416.00,1.5564
4415.00,1.5540
4414.00,1.5516
4413.00,1.5492
4412.00,1.5466
4411.00,1.5437
4410.00,1.5408
4409.00,1.5377
4408.00,1.5347
4407.00,1.5317
4406.00,1.5288
4405.00,1.5258
4404.00,1.5229
4403.00,1.5199
4402.00,1.5167
4401.00,1.5134
4400.00,1.5099
4399.00,1.5063
4398.00,1.5026
4397.00,1.4991
4396.00,1.4954
4395.00,1.4916
4394.00,1.4877
4393.00,1.4837
4392.00,1.4797
4391.00,1.4757
4390.00,1.4717
4389.00,1.4675
4388.00,1.4632
4387.00,1.4589
4386.00,1.4546
4385.00,1.4502
4384.00,1.4456
4383.00,1.4409
4382.00,1.4360
4381.00,1.4311
4380.00,1.4262
4379.00,1.4214
4378.00,1.4166
4377.00,1.4118
4376.00,1.4068
4375.00,1.4017
4374.00,1.3966
4373.00,1.3914
4372.00,1.3861
4371.00,1.3806
4370.00,1.3749
4369.00,1.3691
4368.00,1.3632
4367.00,1.3575
4366.00,1.3517
4365.00,1.3458
4364.00,1.3397
4363.00,1.3334
4362.00,1.3270
4361.00,1.3205
4360.00,1.3139
4359.00,1.3072
4358.00,1.3003
4357.00,1.2934
4356.00,1.2864
4355.00,1.2793
4354.00,1.2722
4353.00,1.2649
4352.00,1.2573
4351.00,1.2496
4350.00,1.2417
4349.00,1.2339
4348.00,1.2261
4347.00,1.2182
4346.00,1.2103
4345.00,1.2022
4344.00,1.1939
4343.00,1.1856
4342.00,1.1772
4341.00,1.1686
4340.00,1.1598
4339.00,1.1508
4338.00,1.1417
4337.00,1.1325
4336.00,1.1232
4335.00,1.1138
4334.00,1.1044
4333.00,1.0948
4332.00,1.0852
4331.00,1.0755
4330.00,1.0658
4329.00,1.0562
4328.00,1.0464
4327.00,1.0366
4326.00,1.0267
4325.00,1.0169
4324.00,1.0070
4323.00,0.9973
4322.00,0.9876
4321.00,0.9780
4320.00,0.9684
4319.00,0.9588
4318.00,0.9493
4317.00,0.9400
4316.00,0.9307
4315.00,0.9216
4314.00,0.9126
4313.00,0.9036
4312.00,0.8947
4311.00,0.8859
4310.00,0.8773
4309.00,0.8689
4308.00,0.8607
4307.00,0.8527
4306.00,0.8448
4305.00,0.8372
4304.00,0.8298
4303.00,0.8226
4302.00,0.8157
4301.00,0.8092
4300.00,0.8030
4299.00,0.7971
4298.00,0.7915
4297.00,0.7862
4296.00,0.7813
4295.00,0.7768
4294.00,0.7728
4293.00,0.7691
4292.00,0.7658
4291.00,0.7629
4290.00,0.7604
4289.00,0.7583
4288.00,0.7565
4287.00,0.7551
4286.00,0.7541
4285.00,0.7533
4284.00,0.7529
4283.00,0.7528
4282.00,0.7530
4281.00,0.7534
4280.00,0.7542
4279.00,0.7552
4278.00,0.7565
4277.00,0.7581
4276.00,0.7600
4275.00,0.7621
4274.00,0.7645
4273.00,0.7673
4272.00,0.7703
4271.00,0.7736
4270.00,0.7771
4269.00,0.7810
4268.00,0.7850
4267.00,0.7893
4266.00,0.7939
4265.00,0.7988
4264.00,0.8039
4263.00,0.8093
4262.00,0.8148
4261.00,0.8206
4260.00,0.8265
4259.00,0.8327
4258.00,0.8391
4257.00,0.8458
4256.00,0.8526
4255.00,0.8596
4254.00,0.8668
4253.00,0.8741
4252.00,0.8817
4251.00,0.8894
4250.00,0.8973
4249.00,0.9054
4248.00,0.9137
4247.00,0.9221
4246.00,0.9307
4245.00,0.9394
4244.00,0.9483
4243.00,0.9573
4242.00,0.9664
4241.00,0.9756
4240.00,0.9848
4239.00,0.9941
4238.00,1.0034
4237.00,1.0128
4236.00,1.0223
4235.00,1.0318
4234.00,1.0415
4233.00,1.0511
4232.00,1.0608
4231.00,1.0706
4230.00,1.0803
4229.00,1.0901
4228.00,1.0998
4227.00,1.1094
4226.00,1.1190
4225.00,1.1286
4224.00,1.1381
4223.00,1.1476
4222.00,1.1571
4221.00,1.1665
4220.00,1.1758
4219.00,1.1850
4218.00,1.1941
4217.00,1.2032
4216.00,1.2122
4215.00,1.2210
4214.00,1.2298
4213.00,1.2386
4212.00,1.2474
4211.00,1.2560
4210.00,1.2647
4209.00,1.2733
4208.00,1.2818
4207.00,1.2902
4206.00,1.2985
4205.00,1.3065
4204.00,1.3145
4203.00,1.3224
4202.00,1.3303
4201.00,1.3382
4200.00,1.3461
4199.00,1.3539
4198.00,1.3617
4197.00,1.3693
4196.00,1.3769
4195.00,1.3843
4194.00,1.3918
4193.00,1.3991
4192.00,1.4063
4191.00,1.4135
4190.00,1.4205
4189.00,1.4274
4188.00,1.4343
4187.00,1.4410
4186.00,1.4476
4185.00,1.4540
4184.00,1.4602
4183.00,1.4664
4182.00,1.4725
4181.00,1.4787
4180.00,1.4848
4179.00,1.4907
4178.00,1.4966
4177.00,1.5024
4176.00,1.5081
4175.00,1.5137
4174.00,1.5192
4173.00,1.5246
4172.00,1.5300
4171.00,1.5353
4170.00,1.5405
4169.00,1.5456
4168.00,1.5505
4167.00,1.5553
4166.00,1.5601
4165.00,1.5648
4164.00,1.5695
4163.00,1.5741
4162.00,1.5786
4161.00,1.5832
4160.00,1.5877
4159.00,1.5921
4158.00,1.5964
4157.00,1.6004
4156.00,1.6044
4155.00,1.6083
4154.00,1.6121
4153.00,1.6158
4152.00,1.6194
4151.00,1.6231
4150.00,1.6268
4149.00,1.6306
4148.00,1.6343
4147.00,1.6377
4146.00,1.6410
4145.00,1.6441
4144.00,1.6474
4143.00,1.6509
4142.00,1.6543
4141.00,1.6575
4140.00,1.6601
4139.00,1.6623
4138.00,1.6645
4137.00,1.6669
4136.00,1.6694
4135.00,1.6721
4134.00,1.6746
4133.00,1.6770
4132.00,1.6792
4131.00,1.6815
4130.00,1.6839
4129.00,1.6863
4128.00,1.6887
4127.00,1.6909
4126.00,1.6929
4125.00,1.6948
4124.00,1.6967
4123.00,1.6986
4122.00,1.7005
4121.00,1.7022
4120.00,1.7035
4119.00,1.7048
4118.00,1.7060
4117.00,1.7074
4116.00,1.7088
4115.00,1.7102
4114.00,1.7114
4113.00,1.7124
4112.00,1.7134
4111.00,1.7144
4110.00,1.7154
4109.00,1.7165
4108.00,1.7177
4107.00,1.7188
4106.00,1.7197
4105.00,1.7204
4104.00,1.7209
4103.00,1.7211
4102.00,1.7213
4101.00,1.7216
4100.00,1.7221
4099.00,1.7227
4098.00,1.7231
4097.00,1.7233
4096.00,1.7233
4095.00,1.7232
4094.00,1.7230
4093.00,1.7228
4092.00,1.7225
4091.00,1.7222
4090.00,1.7220
4089.00,1.7220
4088.00,1.7219
4087.00,1.7217
4086.00,1.7212
4085.00,1.7204
4084.00,1.7195
4083.00,1.7187
4082.00,1.7180
4081.00,1.7173
4080.00,1.7165
4079.00,1.7155
4078.00,1.7145
4077.00,1.7134
4076.00,1.7124
4075.00,1.7112
4074.00,1.7099
4073.00,1.7085
4072.00,1.7069
4071.00,1.7052
4070.00,1.7035
4069.00,1.7019
4068.00,1.7003
4067.00,1.6988
4066.00,1.6972
4065.00,1.6954
4064.00,1.6934
4063.00,1.6912
4062.00,1.6890
4061.00,1.6868
4060.00,1.6847
4059.00,1.6827
4058.00,1.6804
4057.00,1.6778
4056.00,1.6749
4055.00,1.6719
4054.00,1.6691
4053.00,1.6665
4052.00,1.6640
4051.00,1.6616
4050.00,1.6589
4049.00,1.6560
4048.00,1.6529
4047.00,1.6497
4046.00,1.6466
4045.00,1.6433
4044.00,1.6399
4043.00,1.6363
4042.00,1.6326
4041.00,1.6290
4040.00,1.6252
4039.00,1.6213
4038.00,1.6173
4037.00,1.6132
4036.00,1.6091
4035.00,1.6051
4034.00,1.6009
4033.00,1.5967
4032.00,1.5925
4031.00,1.5882
4030.00,1.5839
4029.00,1.5794
4028.00,1.5746
4027.00,1.5695
4026.00,1.5642
4025.00,1.5589
4024.00,1.5538
4023.00,1.5488
4022.00,1.5438
4021.00,1.5385
4020.00,1.5331
4019.00,1.5275
4018.00,1.5218
4017.00,1.5161
4016.00,1.5103
4015.00,1.5043
4014.00,1.4983
4013.00,1.4921
4012.00,1.4857
4011.00,1.4793
4010.00,1.4728
4009.00,1.4663
4008.00,1.4596
4007.00,1.4528
4006.00,1.4458
4005.00,1.4387
4004.00,1.4315
4003.00,1.4242
4002.00,1.4167
4001.00,1.4090
4000.00,1.4012
3999.00,1.3933
3998.00,1.3854
3997.00,1.3775
3996.00,1.3695
3995.00,1.3613
3994.00,1.3528
3993.00,1.3441
3992.00,1.3352
3991.00,1.3263
3990.00,1.3174
3989.00,1.3084
3988.00,1.2993
3987.00,1.2900
3986.00,1.2805
3985.00,1.2710
3984.00,1.2613
3983.00,1.2516
3982.00,1.2417
3981.00,1.2317
3980.00,1.2216
3979.00,1.2114
3978.00,1.2012
3977.00,1.1909
3976.00,1.1806
3975.00,1.1702
3974.00,1.1596
3973.00,1.1489
3972.00,1.1381
3971.00,1.1272
3970.00,1.1162
3969.00,1.1051
3968.00,1.0939
3967.00,1.0827
3966.00,1.0715
3965.00,1.0603
3964.00,1.0491
3963.00,1.0379
3962.00,1.0268
3961.00,1.0157
3960.00,1.0046
3959.00,0.9937
3958.00,0.9829
3957.00,0.9722
3956.00,0.9617
3955.00,0.9513
3954.00,0.9411
3953.00,0.9309
3952.00,0.9208
3951.00,0.9108
3950.00,0.9010
3949.00,0.8914
3948.00,0.8820
3947.00,0.8727
3946.00,0.8637
3945.00,0.8549
3944.00,0.8465
3943.00,0.8383
3942.00,0.8305
3941.00,0.8229
3940.00,0.8157
3939.00,0.8089
3938.00,0.8026
3937.00,0.7966
3936.00,0.7911
3935.00,0.7860
3934.00,0.7814
3933.00,0.7773
3932.00,0.7737
3931.00,0.7705
3930.00,0.7677
3929.00,0.7653
3928.00,0.7635
3927.00,0.7623
3926.00,0.7618
3925.00,0.7619
3924.00,0.7623
3923.00,0.7631
3922.00,0.7642
3921.00,0.7657
3920.00,0.7678
3919.00,0.7706
3918.00,0.7740
3917.00,0.7779
3916.00,0.7822
3915.00,0.7869
3914.00,0.7919
3913.00,0.7974
3912.00,0.8033
3911.00,0.8097
3910.00,0.8163
3909.00,0.8230
3908.00,0.8297
3907.00,0.8366
3906.00,0.8438
3905.00,0.8515
3904.00,0.8596
3903.00,0.8682
3902.00,0.8771
3901.00,0.8863
3900.00,0.8962
3899.00,0.9065
3898.00,0.9171
3897.00,0.9275
3896.00,0.9376
3895.00,0.9474
3894.00,0.9572
3893.00,0.9674
3892.00,0.9782
3891.00,0.9897
3890.00,1.0012
3889.00,1.0121
3888.00,1.0224
3887.00,1.0327
3886.00,1.0438
3885.00,1.0556
3884.00,1.0674
3883.00,1.0787
3882.00,1.0897
3881.00,1.1009
3880.00,1.1129
3879.00,1.1252
3878.00,1.1371
3877.00,1.1483
3876.00,1.1589
3875.00,1.1695
3874.00,1.1802
3873.00,1.1910
3872.00,1.2016
3871.00,1.2124
3870.00,1.2238
3869.00,1.2357
3868.00,1.2473
3867.00,1.2584
3866.00,1.2690
3865.00,1.2796
3864.00,1.2905
3863.00,1.3016
3862.00,1.3126
3861.00,1.3234
3860.00,1.3339
3859.00,1.3439
3858.00,1.3531
3857.00,1.3614
3856.00,1.3692
3855.00,1.3775
3854.00,1.3872
3853.00,1.3985
3852.00,1.4101
3851.00,1.4212
3850.00,1.4313
3849.00,1.4406
3848.00,1.4493
3847.00,1.4577
3846.00,1.4657
3845.00,1.4737
3844.00,1.4817
3843.00,1.4897
3842.00,1.4976
3841.00,1.5055
3840.00,1.5133
3839.00,1.5212
3838.00,1.5294
3837.00,1.5378
3836.00,1.5460
3835.00,1.5537
3834.00,1.5611
3833.00,1.5682
3832.00,1.5754
3831.00,1.5827
3830.00,1.5898
3829.00,1.5968
3828.00,1.6036
3827.00,1.6103
3826.00,1.6168
3825.00,1.6232
3824.00,1.6292
3823.00,1.6352
3822.00,1.6414
3821.00,1.6476
3820.00,1.6536
3819.00,1.6593
3818.00,1.6648
3817.00,1.6705
3816.00,1.6762
3815.00,1.6819
3814.00,1.6872
3813.00,1.6924
3812.00,1.6976
3811.00,1.7028
3810.00,1.7081
3809.00,1.7133
3808.00,1.7184
3807.00,1.7232
3806.00,1.7278
3805.00,1.7322
3804.00,1.7365
3803.00,1.7409
3802.00,1.7452
3801.00,1.7494
3800.00,1.7532
3799.00,1.7568
3798.00,1.7607
3797.00,1.7650
3796.00,1.7694
3795.00,1.7736
3794.00,1.7774
3793.00,1.7809
3792.00,1.7845
3791.00,1.7881
3790.00,1.7918
3789.00,1.7953
3788.00,1.7987
3787.00,1.8019
3786.00,1.8049
3785.00,1.8078
3784.00,1.8105
3783.00,1.8131
3782.00,1.8158
3781.00,1.8186
3780.00,1.8215
3779.00,1.8241
3778.00,1.8265
3777.00,1.8289
3776.00,1.8311
3775.00,1.8333
3774.00,1.8354
3773.00,1.8374
3772.00,1.8392
3771.00,1.8408
3770.00,1.8424
3769.00,1.8439
3768.00,1.8454
3767.00,1.8470
3766.00,1.8490
3765.00,1.8512
3764.00,1.8533
3763.00,1.8552
3762.00,1.8567
3761.00,1.8580
3760.00,1.8591
3759.00,1.8602
3758.00,1.8612
3757.00,1.8621
3756.00,1.8630
3755.00,1.8639
3754.00,1.8648
3753.00,1.8654
3752.00,1.8658
3751.00,1.8659
3750.00,1.8658
3749.00,1.8656
3748.00,1.8654
3747.00,1.8652
3746.00,1.8652
3745.00,1.8654
3744.00,1.8657
3743.00,1.8657
3742.00,1.8657
3741.00,1.8656
3740.00,1.8657
3739.00,1.8659
3738.00,1.8660
3737.00,1.8660
3736.00,1.8658
3735.00,1.8655
3734.00,1.8654
3733.00,1.8654
3732.00,1.8655
3731.00,1.8654
3730.00,1.8650
3729.00,1.8644
3728.00,1.8635
3727.00,1.8625
3726.00,1.8613
3725.00,1.8602
3724.00,1.8590
3723.00,1.8580
3722.00,1.8571
3721.00,1.8564
3720.00,1.8556
3719.00,1.8548
3718.00,1.8538
3717.00,1.8524
3716.00,1.8506
3715.00,1.8486
3714.00,1.8466
3713.00,1.8447
3712.00,1.8427
3711.00,1.8402
3710.00,1.8373
3709.00,1.8345
3708.00,1.8320
3707.00,1.8299
3706.00,1.8282
3705.00,1.8268
3704.00,1.8252
3703.00,1.8231
3702.00,1.8205
3701.00,1.8175
3700.00,1.8145
3699.00,1.8116
3698.00,1.8090
3697.00,1.8063
3696.00,1.8033
3695.00,1.7999
3694.00,1.7962
3693.00,1.7924
3692.00,1.7886
3691.00,1.7852
3690.00,1.7822
3689.00,1.7790
3688.00,1.7749
3687.00,1.7699
3686.00,1.7645
3685.00,1.7595
3684.00,1.7552
3683.00,1.7516
3682.00,1.7482
3681.00,1.7444
3680.00,1.7399
3679.00,1.7350
3678.00,1.7296
3677.00,1.7239
3676.00,1.7178
3675.00,1.7112
3674.00,1.7048
3673.00,1.6990
3672.00,1.6935
3671.00,1.6882
3670.00,1.6827
3669.00,1.6770
3668.00,1.6712
3667.00,1.6657
3666.00,1.6604
3665.00,1.6553
3664.00,1.6503
3663.00,1.6453
3662.00,1.6402
3661.00,1.6348
3660.00,1.6288
3659.00,1.6222
3658.00,1.6151
3657.00,1.6075
3656.00,1.5996
3655.00,1.5916
3654.00,1.5839
3653.00,1.5765
3652.00,1.5694
3651.00,1.5621
3650.00,1.5544
3649.00,1.5459
3648.00,1.5369
3647.00,1.5283
3646.00,1.5207
3645.00,1.5139
3644.00,1.5074
3643.00,1.5009
3642.00,1.4940
3641.00,1.4868
3640.00,1.4791
3639.00,1.4710
3638.00,1.4625
3637.00,1.4537
3636.00,1.4446
3635.00,1.4352
3634.00,1.4257
3633.00,1.4161
3632.00,1.4064
3631.00,1.3967
3630.00,1.3867
3629.00,1.3759
3628.00,1.3645
3627.00,1.3531
3626.00,1.3424
3625.00,1.3324
3624.00,1.3228
3623.00,1.3132
3622.00,1.3034
3621.00,1.2930
3620.00,1.2819
3619.00,1.2702
3618.00,1.2582
3617.00,1.2461
3616.00,1.2344
3615.00,1.2228
3614.00,1.2114
3613.00,1.1997
3612.00,1.1879
3611.00,1.1759
3610.00,1.1638
3609.00,1.1514
3608.00,1.1389
3607.00,1.1265
3606.00,1.1144
3605.00,1.1026
3604.00,1.0911
3603.00,1.0798
3602.00,1.0685
3601.00,1.0572
3600.00,1.0457
3599.00,1.0340
3598.00,1.0224
3597.00,1.0109
3596.00,0.9998
3595.00,0.9891
3594.00,0.9787
3593.00,0.9686
3592.00,0.9589
3591.00,0.9495
3590.00,0.9407
3589.00,0.9323
3588.00,0.9243
3587.00,0.9166
3586.00,0.9093
3585.00,0.9027
3584.00,0.8968
3583.00,0.8919
3582.00,0.8878
3581.00,0.8843
3580.00,0.8814
3579.00,0.8789
3578.00,0.8769
3577.00,0.8753
3576.00,0.8743
3575.00,0.8738
3574.00,0.8739
3573.00,0.8745
3572.00,0.8755
3571.00,0.8770
3570.00,0.8791
3569.00,0.8818
3568.00,0.8854
3567.00,0.8897
3566.00,0.8946
3565.00,0.8998
3564.00,0.9054
3563.00,0.9115
3562.00,0.9182
3561.00,0.9256
3560.00,0.9334
3559.00,0.9416
3558.00,0.9500
3557.00,0.9586
3556.00,0.9673
3555.00,0.9763
3554.00,0.9857
3553.00,0.9954
3552.00,1.0056
3551.00,1.0158
3550.00,1.0261
3549.00,1.0364
3548.00,1.0469
3547.00,1.0577
3546.00,1.0691
3545.00,1.0808
3544.00,1.0927
3543.00,1.1048
3542.00,1.1168
3541.00,1.1288
3540.00,1.1408
3539.00,1.1528
3538.00,1.1648
3537.00,1.1770
3536.00,1.1894
3535.00,1.2019
3534.00,1.2144
3533.00,1.2268
3532.00,1.2391
3531.00,1.2513
3530.00,1.2635
3529.00,1.2758
3528.00,1.2882
3527.00,1.3006
3526.00,1.3129
3525.00,1.3251
3524.00,1.3373
3523.00,1.3495
3522.00,1.3618
3521.00,1.3740
3520.00,1.3860
3519.00,1.3978
3518.00,1.4095
3517.00,1.4210
3516.00,1.4324
3515.00,1.4436
3514.00,1.4547
3513.00,1.4657
3512.00,1.4764
3511.00,1.4871
3510.00,1.4978
3509.00,1.5085
3508.00,1.5192
3507.00,1.5298
3506.00,1.5400
3505.00,1.5500
3504.00,1.5598
3503.00,1.5696
3502.00,1.5793
3501.00,1.5891
3500.00,1.5988
3499.00,1.6083
3498.00,1.6175
3497.00,1.6266
3496.00,1.6356
3495.00,1.6445
3494.00,1.6533
3493.00,1.6621
3492.00,1.6708
3491.00,1.6794
3490.00,1.6877
3489.00,1.6957
3488.00,1.7036
3487.00,1.7114
3486.00,1.7194
3485.00,1.7275
3484.00,1.7354
3483.00,1.7430
3482.00,1.7504
3481.00,1.7575
3480.00,1.7646
3479.00,1.7715
3478.00,1.7784
3477.00,1.7853
3476.00,1.7922
3475.00,1.7990
3474.00,1.8058
3473.00,1.8124
3472.00,1.8187
3471.00,1.8246
3470.00,1.8304
3469.00,1.8364
3468.00,1.8426
3467.00,1.8487
3466.00,1.8544
3465.00,1.8599
3464.00,1.8655
3463.00,1.8711
3462.00,1.8767
3461.00,1.8820
3460.00,1.8871
3459.00,1.8922
3458.00,1.8973
3457.00,1.9023
3456.00,1.9071
3455.00,1.9116
3454.00,1.9160
3453.00,1.9204
3452.00,1.9248
3451.00,1.9293
3450.00,1.9337
3449.00,1.9380
3448.00,1.9421
3447.00,1.9460
3446.00,1.9497
3445.00,1.9534
3444.00,1.9570
3443.00,1.9607
3442.00,1.9644
3441.00,1.9681
3440.00,1.9716
3439.00,1.9753
3438.00,1.9792
3437.00,1.9832
3436.00,1.9870
3435.00,1.9904
3434.00,1.9934
3433.00,1.9962
3432.00,1.9989
3431.00,2.0014
3430.00,2.0037
3429.00,2.0061
3428.00,2.0087
3427.00,2.0115
3426.00,2.0144
3425.00,2.0174
3424.00,2.0202
3423.00,2.0228
3422.00,2.0251
3421.00,2.0271
3420.00,2.0290
3419.00,2.0310
3418.00,2.0331
3417.00,2.0355
3416.00,2.0379
3415.00,2.0403
3414.00,2.0423
3413.00,2.0441
3412.00,2.0457
3411.00,2.0471
3410.00,2.0485
3409.00,2.0500
3408.00,2.0514
3407.00,2.0525
3406.00,2.0534
3405.00,2.0540
3404.00,2.0546
3403.00,2.0551
3402.00,2.0556
3401.00,2.0561
3400.00,2.0566
3399.00,2.0571
3398.00,2.0575
3397.00,2.0577
3396.00,2.0576
3395.00,2.0573
3394.00,2.0570
3393.00,2.0568
3392.00,2.0566
3391.00,2.0563
3390.00,2.0560
3389.00,2.0558
3388.00,2.0557
3387.00,2.0555
3386.00,2.0550
3385.00,2.0545
3384.00,2.0540
3383.00,2.0535
3382.00,2.0530
3381.00,2.0522
3380.00,2.0513
3379.00,2.0502
3378.00,2.0494
3377.00,2.0487
3376.00,2.0479
3375.00,2.0465
3374.00,2.0448
3373.00,2.0431
3372.00,2.0419
3371.00,2.0411
3370.00,2.0404
3369.00,2.0395
3368.00,2.0380
3367.00,2.0361
3366.00,2.0338
3365.00,2.0315
3364.00,2.0294
3363.00,2.0273
3362.00,2.0254
3361.00,2.0234
3360.00,2.0215
3359.00,2.0195
3358.00,2.0177
3357.00,2.0162
3356.00,2.0147
3355.00,2.0130
3354.00,2.0110
3353.00,2.0088
3352.00,2.0065
3351.00,2.0041
3350.00,2.0014
3349.00,1.9985
3348.00,1.9956
3347.00,1.9927
3346.00,1.9898
3345.00,1.9870
3344.00,1.9842
3343.00,1.9814
3342.00,1.9785
3341.00,1.9754
3340.00,1.9720
3339.00,1.9684
3338.00,1.9647
3337.00,1.9608
3336.00,1.9570
3335.00,1.9533
3334.00,1.9496
3333.00,1.9459
3332.00,1.9421
3331.00,1.9380
3330.00,1.9339
3329.00,1.9296
3328.00,1.9253
3327.00,1.9209
3326.00,1.9164
3325.00,1.9118
3324.00,1.9072
3323.00,1.9024
3322.00,1.8975
3321.00,1.8924
3320.00,1.8870
3319.00,1.8816
3318.00,1.8763
3317.00,1.8710
3316.00,1.8658
3315.00,1.8603
3314.00,1.8546
3313.00,1.8487
3312.00,1.8424
3311.00,1.8358
3310.00,1.8291
3309.00,1.8224
3308.00,1.8157
3307.00,1.8089
3306.00,1.8021
3305.00,1.7952
3304.00,1.7883
3303.00,1.7813
3302.00,1.7742
3301.00,1.7670
3300.00,1.7596
3299.00,1.7521
3298.00,1.7442
3297.00,1.7360
3296.00,1.7276
3295.00,1.7192
3294.00,1.7108
3293.00,1.7025
3292.00,1.6939
3291.00,1.6850
3290.00,1.6758
3289.00,1.6664
3288.00,1.6569
3287.00,1.6473
3286.00,1.6375
3285.00,1.6276
3284.00,1.6176
3283.00,1.6075
3282.00,1.5971
3281.00,1.5866
3280.00,1.5760
3279.00,1.5652
3278.00,1.5541
3277.00,1.5428
3276.00,1.5314
3275.00,1.5198
3274.00,1.5080
3273.00,1.4961
3272.00,1.4840
3271.00,1.4717
3270.00,1.4592
3269.00,1.4464
3268.00,1.4334
3267.00,1.4203
3266.00,1.4071
3265.00,1.3939
3264.00,1.3806
3263.00,1.3669
3262.00,1.3529
3261.00,1.3388
3260.00,1.3246
3259.00,1.3104
3258.00,1.2961
3257.00,1.2818
3256.00,1.2674
3255.00,1.2529
3254.00,1.2384
3253.00,1.2237
3252.00,1.2090
3251.00,1.1943
3250.00,1.1797
3249.00,1.1653
3248.00,1.1510
3247.00,1.1368
3246.00,1.1228
3245.00,1.1089
3244.00,1.0953
3243.00,1.0820
3242.00,1.0691
3241.00,1.0566
3240.00,1.0444
3239.00,1.0328
3238.00,1.0216
3237.00,1.0110
3236.00,1.0009
3235.00,0.9914
3234.00,0.9825
3233.00,0.9743
3232.00,0.9668
3231.00,0.9600
3230.00,0.9541
3229.00,0.9489
3228.00,0.9445
3227.00,0.9410
3226.00,0.9382
3225.00,0.9363
3224.00,0.9353
3223.00,0.9350
3222.00,0.9356
3221.00,0.9370
3220.00,0.9392
3219.00,0.9421
3218.00,0.9456
3217.00,0.9499
3216.00,0.9549
3215.00,0.9606
3214.00,0.9669
3213.00,0.9739
3212.00,0.9814
3211.00,0.9894
3210.00,0.9980
3209.00,1.0071
3208.00,1.0167
3207.00,1.0267
3206.00,1.0371
3205.00,1.0480
3204.00,1.0592
3203.00,1.0709
3202.00,1.0829
3201.00,1.0952
3200.00,1.1078
3199.00,1.1208
3198.00,1.1340
3197.00,1.1475
3196.00,1.1612
3195.00,1.1751
3194.00,1.1892
3193.00,1.2035
3192.00,1.2178
3191.00,1.2324
3190.00,1.2469
3189.00,1.2616
3188.00,1.2764
3187.00,1.2913
3186.00,1.3063
3185.00,1.3213
3184.00,1.3362
3183.00,1.3511
3182.00,1.3659
3181.00,1.3806
3180.00,1.3953
3179.00,1.4098
3178.00,1.4243
3177.00,1.4388
3176.00,1.4534
3175.00,1.4679
3174.00,1.4822
3173.00,1.4964
3172.00,1.5103
3171.00,1.5241
3170.00,1.5378
3169.00,1.5512
3168.00,1.5644
3167.00,1.5774
3166.00,1.5904
3165.00,1.6033
3164.00,1.6160
3163.00,1.6284
3162.00,1.6406
3161.00,1.6526
3160.00,1.6645
3159.00,1.6763
3158.00,1.6879
3157.00,1.6995
3156.00,1.7110
3155.00,1.7223
3154.00,1.7334
3153.00,1.7441
3152.00,1.7546
3151.00,1.7648
3150.00,1.7749
3149.00,1.7849
3148.00,1.7947
3147.00,1.8045
3146.00,1.8141
3145.00,1.8234
3144.00,1.8325
3143.00,1.8414
3142.00,1.8501
3141.00,1.8588
3140.00,1.8675
3139.00,1.8761
3138.00,1.8846
3137.00,1.8930
3136.00,1.9013
3135.00,1.9096
3134.00,1.9177
3133.00,1.9257
3132.00,1.9335
3131.00,1.9410
3130.00,1.9482
3129.00,1.9552
3128.00,1.9621
3127.00,1.9689
3126.00,1.9758
3125.00,1.9829
3124.00,1.9901
3123.00,1.9971
3122.00,2.0038
3121.00,2.0100
3120.00,2.0159
3119.00,2.0215
3118.00,2.0271
3117.00,2.0328
3116.00,2.0388
3115.00,2.0445
3114.00,2.0499
3113.00,2.0550
3112.00,2.0603
3111.00,2.0657
3110.00,2.0710
3109.00,2.0760
3108.00,2.0809
3107.00,2.0860
3106.00,2.0912
3105.00,2.0963
3104.00,2.1010
3103.00,2.1053
3102.00,2.1094
3101.00,2.1136
3100.00,2.1180
3099.00,2.1222
3098.00,2.1260
3097.00,2.1294
3096.00,2.1325
3095.00,2.1356
3094.00,2.1392
3093.00,2.1432
3092.00,2.1476
3091.00,2.1519
3090.00,2.1558
3089.00,2.1590
3088.00,2.1615
3087.00,2.1638
3086.00,2.1663
3085.00,2.1691
3084.00,2.1719
3083.00,2.1748
3082.00,2.1775
3081.00,2.1802
3080.00,2.1828
3079.00,2.1852
3078.00,2.1874
3077.00,2.1893
3076.00,2.1911
3075.00,2.1930
3074.00,2.1951
3073.00,2.1973
3072.00,2.1994
3071.00,2.2014
3070.00,2.2031
3069.00,2.2047
3068.00,2.2062
3067.00,2.2074
3066.00,2.2084
3065.00,2.2092
3064.00,2.2101
3063.00,2.2107
3062.00,2.2111
3061.00,2.2112
3060.00,2.2110
3059.00,2.2108
3058.00,2.2108
3057.00,2.2114
3056.00,2.2125
3055.00,2.2135
3054.00,2.2139
3053.00,2.2138
3052.00,2.2135
3051.00,2.2132
3050.00,2.2131
3049.00,2.2129
3048.00,2.2122
3047.00,2.2110
3046.00,2.2097
3045.00,2.2087
3044.00,2.2080
3043.00,2.2072
3042.00,2.2062
3041.00,2.2048
3040.00,2.2032
3039.00,2.2015
3038.00,2.1996
3037.00,2.1974
3036.00,2.1950
3035.00,2.1925
3034.00,2.1900
3033.00,2.1874
3032.00,2.1848
3031.00,2.1819
3030.00,2.1787
3029.00,2.1754
3028.00,2.1722
3027.00,2.1692
3026.00,2.1661
3025.00,2.1627
3024.00,2.1590
3023.00,2.1547
3022.00,2.1500
3021.00,2.1450
3020.00,2.1401
3019.00,2.1354
3018.00,2.1305
3017.00,2.1253
3016.00,2.1197
3015.00,2.1137
3014.00,2.1073
3013.00,2.1006
3012.00,2.0936
3011.00,2.0865
3010.00,2.0793
3009.00,2.0717
3008.00,2.0635
3007.00,2.0547
3006.00,2.0456
3005.00,2.0362
3004.00,2.0262
3003.00,2.0156
3002.00,2.0043
3001.00,1.9924
3000.00,1.9802
2999.00,1.9677
2998.00,1.9546
2997.00,1.9410
2996.00,1.9268
2995.00,1.9121
2994.00,1.8971
2993.00,1.8815
2992.00,1.8654
2991.00,1.8486
2990.00,1.8315
2989.00,1.8142
2988.00,1.7970
2987.00,1.7799
2986.00,1.7632
2985.00,1.7472
2984.00,1.7324
2983.00,1.7193
2982.00,1.7086
2981.00,1.7010
2980.00,1.6971
2979.00,1.6977
2978.00,1.7033
2977.00,1.7144
2976.00,1.7315
2975.00,1.7547
2974.00,1.7842
2973.00,1.8198
2972.00,1.8610
2971.00,1.9071
2970.00,1.9569
2969.00,2.0094
2968.00,2.0639
2967.00,2.1199
2966.00,2.1768
2965.00,2.2337
2964.00,2.2901
2963.00,2.3456
2962.00,2.3999
2961.00,2.4525
2960.00,2.5023
2959.00,2.5483
2958.00,2.5900
2957.00,2.6274
2956.00,2.6613
2955.00,2.6926
2954.00,2.7217
2953.00,2.7495
2952.00,2.7770
2951.00,2.8058
2950.00,2.8371
2949.00,2.8703
2948.00,2.9040
2947.00,2.9366
2946.00,2.9680
2945.00,2.9991
2944.00,3.0304
2943.00,3.0616
2942.00,3.0908
2941.00,3.1161
2940.00,3.1353
2939.00,3.1475
2938.00,3.1535
2937.00,3.1556
2936.00,3.1557
2935.00,3.1529
2934.00,3.1446
2933.00,3.1299
2932.00,3.1090
2931.00,3.0818
2930.00,3.0472
2929.00,3.0064
2928.00,2.9642
2927.00,2.9251
2926.00,2.8898
2925.00,2.8559
2924.00,2.8210
2923.00,2.7848
2922.00,2.7484
2921.00,2.7135
2920.00,2.6818
2919.00,2.6536
2918.00,2.6273
2917.00,2.6004
2916.00,2.5721
2915.00,2.5436
2914.00,2.5172
2913.00,2.4935
2912.00,2.4721
2911.00,2.4520
2910.00,2.4332
2909.00,2.4159
2908.00,2.4004
2907.00,2.3868
2906.00,2.3745
2905.00,2.3624
2904.00,2.3497
2903.00,2.3363
2902.00,2.3226
2901.00,2.3088
2900.00,2.2947
2899.00,2.2800
2898.00,2.2648
2897.00,2.2496
2896.00,2.2348
2895.00,2.2204
2894.00,2.2060
2893.00,2.1915
2892.00,2.1769
2891.00,2.1625
2890.00,2.1481
2889.00,2.1336
2888.00,2.1190
2887.00,2.1047
2886.00,2.0915
2885.00,2.0797
2884.00,2.0697
2883.00,2.0618
2882.00,2.0565
2881.00,2.0541
2880.00,2.0548
2879.00,2.0586
2878.00,2.0658
2877.00,2.0769
2876.00,2.0921
2875.00,2.1119
2874.00,2.1364
2873.00,2.1655
2872.00,2.1992
2871.00,2.2374
2870.00,2.2795
2869.00,2.3245
2868.00,2.3708
2867.00,2.4167
2866.00,2.4600
2865.00,2.4986
2864.00,2.5296
2863.00,2.5508
2862.00,2.5610
2861.00,2.5605
2860.00,2.5507
2859.00,2.5335
2858.00,2.5113
2857.00,2.4853
2856.00,2.4555
2855.00,2.4219
2854.00,2.3851
2853.00,2.3466
2852.00,2.3072
2851.00,2.2675
2850.00,2.2276
2849.00,2.1880
2848.00,2.1489
2847.00,2.1104
2846.00,2.0722
2845.00,2.0344
2844.00,1.9970
2843.00,1.9601
2842.00,1.9237
2841.00,1.8879
2840.00,1.8528
2839.00,1.8185
2838.00,1.7854
2837.00,1.7536
2836.00,1.7233
2835.00,1.6947
2834.00,1.6676
2833.00,1.6423
2832.00,1.6187
2831.00,1.5966
2830.00,1.5759
2829.00,1.5562
2828.00,1.5370
2827.00,1.5178
2826.00,1.4983
2825.00,1.4782
2824.00,1.4572
2823.00,1.4352
2822.00,1.4122
2821.00,1.3886
2820.00,1.3647
2819.00,1.3409
2818.00,1.3176
2817.00,1.2954
2816.00,1.2747
2815.00,1.2560
2814.00,1.2394
2813.00,1.2253
2812.00,1.2137
2811.00,1.2047
2810.00,1.1982
2809.00,1.1941
2808.00,1.1923
2807.00,1.1929
2806.00,1.1958
2805.00,1.2009
2804.00,1.2084
2803.00,1.2180
2802.00,1.2295
2801.00,1.2425
2800.00,1.2567
2799.00,1.2714
2798.00,1.2864
2797.00,1.3012
2796.00,1.3156
2795.00,1.3297
2794.00,1.3434
2793.00,1.3571
2792.00,1.3711
2791.00,1.3856
2790.00,1.4009
2789.00,1.4171
2788.00,1.4341
2787.00,1.4517
2786.00,1.4699
2785.00,1.4886
2784.00,1.5076
2783.00,1.5271
2782.00,1.5467
2781.00,1.5664
2780.00,1.5860
2779.00,1.6054
2778.00,1.6244
2777.00,1.6431
2776.00,1.6613
2775.00,1.6793
2774.00,1.6971
2773.00,1.7147
2772.00,1.7322
2771.00,1.7494
2770.00,1.7664
2769.00,1.7831
2768.00,1.7993
2767.00,1.8150
2766.00,1.8305
2765.00,1.8457
2764.00,1.8606
2763.00,1.8749
2762.00,1.8886
2761.00,1.9017
2760.00,1.9144
2759.00,1.9270
2758.00,1.9393
2757.00,1.9515
2756.00,1.9636
2755.00,1.9757
2754.00,1.9877
2753.00,1.9997
2752.00,2.0114
2751.00,2.0229
2750.00,2.0342
2749.00,2.0453
2748.00,2.0563
2747.00,2.0668
2746.00,2.0767
2745.00,2.0864
2744.00,2.0961
2743.00,2.1061
2742.00,2.1163
2741.00,2.1263
2740.00,2.1356
2739.00,2.1443
2738.00,2.1524
2737.00,2.1604
2736.00,2.1683
2735.00,2.1761
2734.00,2.1840
2733.00,2.1921
2732.00,2.2005
2731.00,2.2088
2730.00,2.2167
2729.00,2.2240
2728.00,2.2310
2727.00,2.2382
2726.00,2.2456
2725.00,2.2529
2724.00,2.2597
2723.00,2.2657
2722.00,2.2713
2721.00,2.2770
2720.00,2.2828
2719.00,2.2885
2718.00,2.2943
2717.00,2.3001
2716.00,2.3058
2715.00,2.3109
2714.00,2.3157
2713.00,2.3204
2712.00,2.3252
2711.00,2.3300
2710.00,2.3345
2709.00,2.3386
2708.00,2.3425
2707.00,2.3466
2706.00,2.3511
2705.00,2.3561
2704.00,2.3613
2703.00,2.3663
2702.00,2.3709
2701.00,2.3750
2700.00,2.3786
2699.00,2.3816
2698.00,2.3842
2697.00,2.3872
2696.00,2.3906
2695.00,2.3941
2694.00,2.3975
2693.00,2.4011
2692.00,2.4050
2691.00,2.4091
2690.00,2.4132
2689.00,2.4171
2688.00,2.4206
2687.00,2.4236
2686.00,2.4258
2685.00,2.4274
2684.00,2.4291
2683.00,2.4312
2682.00,2.4337
2681.00,2.4363
2680.00,2.4389
2679.00,2.4412
2678.00,2.4431
2677.00,2.4447
2676.00,2.4462
2675.00,2.4479
2674.00,2.4498
2673.00,2.4517
2672.00,2.4537
2671.00,2.4557
2670.00,2.4576
2669.00,2.4591
2668.00,2.4600
2667.00,2.4605
2666.00,2.4607
2665.00,2.4605
2664.00,2.4596
2663.00,2.4585
2662.00,2.4581
2661.00,2.4586
2660.00,2.4592
2659.00,2.4596
2658.00,2.4600
2657.00,2.4611
2656.00,2.4629
2655.00,2.4645
2654.00,2.4651
2653.00,2.4650
2652.00,2.4645
2651.00,2.4641
2650.00,2.4637
2649.00,2.4636
2648.00,2.4635
2647.00,2.4633
2646.00,2.4626
2645.00,2.4616
2644.00,2.4605
2643.00,2.4596
2642.00,2.4589
2641.00,2.4585
2640.00,2.4582
2639.00,2.4577
2638.00,2.4568
2637.00,2.4553
2636.00,2.4533
2635.00,2.4515
2634.00,2.4500
2633.00,2.4489
2632.00,2.4477
2631.00,2.4459
2630.00,2.4438
2629.00,2.4415
2628.00,2.4396
2627.00,2.4379
2626.00,2.4364
2625.00,2.4349
2624.00,2.4332
2623.00,2.4311
2622.00,2.4290
2621.00,2.4271
2620.00,2.4251
2619.00,2.4229
2618.00,2.4204
2617.00,2.4178
2616.00,2.4152
2615.00,2.4125
2614.00,2.4099
2613.00,2.4074
2612.00,2.4047
2611.00,2.4016
2610.00,2.3987
2609.00,2.3962
2608.00,2.3939
2607.00,2.3911
2606.00,2.3873
2605.00,2.3830
2604.00,2.3789
2603.00,2.3753
2602.00,2.3717
2601.00,2.3677
2600.00,2.3631
2599.00,2.3580
2598.00,2.3528
2597.00,2.3480
2596.00,2.3436
2595.00,2.3395
2594.00,2.3351
2593.00,2.3300
2592.00,2.3244
2591.00,2.3185
2590.00,2.3128
2589.00,2.3076
2588.00,2.3027
2587.00,2.2981
2586.00,2.2933
2585.00,2.2880
2584.00,2.2821
2583.00,2.2755
2582.00,2.2687
2581.00,2.2623
2580.00,2.2562
2579.00,2.2501
2578.00,2.2437
2577.00,2.2373
2576.00,2.2305
2575.00,2.2234
2574.00,2.2160
2573.00,2.2086
2572.00,2.2015
2571.00,2.1944
2570.00,2.1869
2569.00,2.1790
2568.00,2.1709
2567.00,2.1625
2566.00,2.1541
2565.00,2.1456
2564.00,2.1373
2563.00,2.1289
2562.00,2.1200
2561.00,2.1104
2560.00,2.1004
2559.00,2.0903
2558.00,2.0802
2557.00,2.0701
2556.00,2.0599
2555.00,2.0494
2554.00,2.0386
2553.00,2.0273
2552.00,2.0159
2551.00,2.0043
2550.00,1.9925
2549.00,1.9804
2548.00,1.9683
2547.00,1.9562
2546.00,1.9440
2545.00,1.9315
2544.00,1.9187
2543.00,1.9054
2542.00,1.8917
2541.00,1.8779
2540.00,1.8641
2539.00,1.8501
2538.00,1.8358
2537.00,1.8209
2536.00,1.8056
2535.00,1.7899
2534.00,1.7740
2533.00,1.7580
2532.00,1.7418
2531.00,1.7253
2530.00,1.7083
2529.00,1.6910
2528.00,1.6733
2527.00,1.6554
2526.00,1.6371
2525.00,1.6183
2524.00,1.5992
2523.00,1.5797
2522.00,1.5599
2521.00,1.5397
2520.00,1.5189
2519.00,1.4977
2518.00,1.4760
2517.00,1.4540
2516.00,1.4318
2515.00,1.4095
2514.00,1.3869
2513.00,1.3644
2512.00,1.3418
2511.00,1.3196
2510.00,1.2977
2509.00,1.2763
2508.00,1.2554
2507.00,1.2352
2506.00,1.2158
2505.00,1.1973
2504.00,1.1800
2503.00,1.1638
2502.00,1.1490
2501.00,1.1355
2500.00,1.1235
2499.00,1.1131
2498.00,1.1043
2497.00,1.0972
2496.00,1.0918
2495.00,1.0882
2494.00,1.0864
2493.00,1.0863
2492.00,1.0878
2491.00,1.0910
2490.00,1.0956
2489.00,1.1018
2488.00,1.1094
2487.00,1.1183
2486.00,1.1284
2485.00,1.1397
2484.00,1.1520
2483.00,1.1652
2482.00,1.1793
2481.00,1.1941
2480.00,1.2097
2479.00,1.2260
2478.00,1.2429
2477.00,1.2604
2476.00,1.2785
2475.00,1.2971
2474.00,1.3163
2473.00,1.3359
2472.00,1.3558
2471.00,1.3761
2470.00,1.3964
2469.00,1.4168
2468.00,1.4373
2467.00,1.4577
2466.00,1.4781
2465.00,1.4984
2464.00,1.5185
2463.00,1.5385
2462.00,1.5584
2461.00,1.5783
2460.00,1.5983
2459.00,1.6182
2458.00,1.6381
2457.00,1.6580
2456.00,1.6778
2455.00,1.6975
2454.00,1.7170
2453.00,1.7361
2452.00,1.7548
2451.00,1.7732
2450.00,1.7915
2449.00,1.8095
2448.00,1.8272
2447.00,1.8447
2446.00,1.8617
2445.00,1.8785
2444.00,1.8949
2443.00,1.9111
2442.00,1.9271
2441.00,1.9429
2440.00,1.9586
2439.00,1.9740
2438.00,1.9890
2437.00,2.0038
2436.00,2.0183
2435.00,2.0325
2434.00,2.0464
2433.00,2.0600
2432.00,2.0734
2431.00,2.0866
2430.00,2.0996
2429.00,2.1124
2428.00,2.1250
2427.00,2.1371
2426.00,2.1486
2425.00,2.1598
2424.00,2.1707
2423.00,2.1816
2422.00,2.1924
2421.00,2.2030
2420.00,2.2135
2419.00,2.2240
2418.00,2.2343
2417.00,2.2440
2416.00,2.2532
2415.00,2.2621
2414.00,2.2710
2413.00,2.2801
2412.00,2.2895
2411.00,2.2990
2410.00,2.3086
2409.00,2.3179
2408.00,2.3271
2407.00,2.3360
2406.00,2.3444
2405.00,2.3523
2404.00,2.3599
2403.00,2.3674
2402.00,2.3750
2401.00,2.3828
2400.00,2.3906
2399.00,2.3984
2398.00,2.4060
2397.00,2.4130
2396.00,2.4194
2395.00,2.4256
2394.00,2.4324
2393.00,2.4401
2392.00,2.4479
2391.00,2.4548
2390.00,2.4603
2389.00,2.4649
2388.00,2.4700
2387.00,2.4764
2386.00,2.4836
2385.00,2.4902
2384.00,2.4956
2383.00,2.5002
2382.00,2.5056
2381.00,2.5121
2380.00,2.5191
2379.00,2.5252
2378.00,2.5299
2377.00,2.5337
2376.00,2.5377
2375.00,2.5421
2374.00,2.5468
2373.00,2.5515
2372.00,2.5563
2371.00,2.5616
2370.00,2.5672
2369.00,2.5724
2368.00,2.5765
2367.00,2.5797
2366.00,2.5828
2365.00,2.5864
2364.00,2.5904
2363.00,2.5943
2362.00,2.5980
2361.00,2.6018
2360.00,2.6058
2359.00,2.6095
2358.00,2.6126
2357.00,2.6155
2356.00,2.6186
2355.00,2.6221
2354.00,2.6254
2353.00,2.6278
2352.00,2.6297
2351.00,2.6320
2350.00,2.6356
2349.00,2.6395
2348.00,2.6427
2347.00,2.6450
2346.00,2.6471
2345.00,2.6498
2344.00,2.6529
2343.00,2.6559
2342.00,2.6583
2341.00,2.6601
2340.00,2.6614
2339.00,2.6624
2338.00,2.6638
2337.00,2.6657
2336.00,2.6676
2335.00,2.6689
2334.00,2.6700
2333.00,2.6715
2332.00,2.6736
2331.00,2.6754
2330.00,2.6770
2329.00,2.6785
2328.00,2.6806
2327.00,2.6830
2326.00,2.6847
2325.00,2.6852
2324.00,2.6844
2323.00,2.6837
2322.00,2.6839
2321.00,2.6850
2320.00,2.6862
2319.00,2.6870
2318.00,2.6881
2317.00,2.6901
2316.00,2.6923
2315.00,2.6938
2314.00,2.6940
2313.00,2.6932
2312.00,2.6923
2311.00,2.6921
2310.00,2.6931
2309.00,2.6949
2308.00,2.6961
2307.00,2.6958
2306.00,2.6944
2305.00,2.6929
2304.00,2.6926
2303.00,2.6940
2302.00,2.6963
2301.00,2.6979
2300.00,2.6974
2299.00,2.6947
2298.00,2.6917
2297.00,2.6903
2296.00,2.6904
2295.00,2.6906
2294.00,2.6896
2293.00,2.6877
2292.00,2.6858
2291.00,2.6845
2290.00,2.6834
2289.00,2.6819
2288.00,2.6801
2287.00,2.6784
2286.00,2.6775
2285.00,2.6773
2284.00,2.6770
2283.00,2.6760
2282.00,2.6742
2281.00,2.6716
2280.00,2.6687
2279.00,2.6659
2278.00,2.6634
2277.00,2.6614
2276.00,2.6597
2275.00,2.6580
2274.00,2.6561
2273.00,2.6538
2272.00,2.6512
2271.00,2.6483
2270.00,2.6455
2269.00,2.6429
2268.00,2.6406
2267.00,2.6385
2266.00,2.6362
2265.00,2.6334
2264.00,2.6296
2263.00,2.6253
2262.00,2.6212
2261.00,2.6183
2260.00,2.6167
2259.00,2.6152
2258.00,2.6124
2257.00,2.6076
2256.00,2.6015
2255.00,2.5956
2254.00,2.5912
2253.00,2.5882
2252.00,2.5852
2251.00,2.5815
2250.00,2.5771
2249.00,2.5724
2248.00,2.5676
2247.00,2.5621
2246.00,2.5561
2245.00,2.5501
2244.00,2.5449
2243.00,2.5403
2242.00,2.5357
2241.00,2.5303
2240.00,2.5241
2239.00,2.5174
2238.00,2.5106
2237.00,2.5042
2236.00,2.4982
2235.00,2.4927
2234.00,2.4874
2233.00,2.4822
2232.00,2.4767
2231.00,2.4704
2230.00,2.4633
2229.00,2.4558
2228.00,2.4483
2227.00,2.4409
2226.00,2.4335
2225.00,2.4258
2224.00,2.4177
2223.00,2.4092
2222.00,2.4004
2221.00,2.3914
2220.00,2.3824
2219.00,2.3738
2218.00,2.3654
2217.00,2.3570
2216.00,2.3485
2215.00,2.3396
2214.00,2.3302
2213.00,2.3202
2212.00,2.3100
2211.00,2.2998
2210.00,2.2900
2209.00,2.2802
2208.00,2.2698
2207.00,2.2587
2206.00,2.2468
2205.00,2.2349
2204.00,2.2233
2203.00,2.2118
2202.00,2.1999
2201.00,2.1875
2200.00,2.1745
2199.00,2.1612
2198.00,2.1477
2197.00,2.1341
2196.00,2.1203
2195.00,2.1060
2194.00,2.0912
2193.00,2.0757
2192.00,2.0598
2191.00,2.0437
2190.00,2.0277
2189.00,2.0117
2188.00,1.9953
2187.00,1.9786
2186.00,1.9616
2185.00,1.9442
2184.00,1.9265
2183.00,1.9087
2182.00,1.8906
2181.00,1.8723
2180.00,1.8541
2179.00,1.8359
2178.00,1.8177
2177.00,1.7993
2176.00,1.7807
2175.00,1.7616
2174.00,1.7421
2173.00,1.7219
2172.00,1.7008
2171.00,1.6787
2170.00,1.6556
2169.00,1.6320
2168.00,1.6077
2167.00,1.5829
2166.00,1.5576
2165.00,1.5322
2164.00,1.5068
2163.00,1.4817
2162.00,1.4568
2161.00,1.4324
2160.00,1.4087
2159.00,1.3858
2158.00,1.3641
2157.00,1.3437
2156.00,1.3249
2155.00,1.3078
2154.00,1.2925
2153.00,1.2792
2152.00,1.2680
2151.00,1.2590
2150.00,1.2524
2149.00,1.2480
2148.00,1.2460
2147.00,1.2461
2146.00,1.2483
2145.00,1.2527
2144.00,1.2590
2143.00,1.2674
2142.00,1.2776
2141.00,1.2895
2140.00,1.3031
2139.00,1.3181
2138.00,1.3343
2137.00,1.3514
2136.00,1.3693
2135.00,1.3877
2134.00,1.4066
2133.00,1.4260
2132.00,1.4458
2131.00,1.4660
2130.00,1.4864
2129.00,1.5071
2128.00,1.5280
2127.00,1.5493
2126.00,1.5711
2125.00,1.5932
2124.00,1.6158
2123.00,1.6387
2122.00,1.6619
2121.00,1.6853
2120.00,1.7089
2119.00,1.7326
2118.00,1.7563
2117.00,1.7800
2116.00,1.8036
2115.00,1.8268
2114.00,1.8495
2113.00,1.8716
2112.00,1.8931
2111.00,1.9144
2110.00,1.9354
2109.00,1.9565
2108.00,1.9777
2107.00,1.9986
2106.00,2.0190
2105.00,2.0385
2104.00,2.0575
2103.00,2.0759
2102.00,2.0942
2101.00,2.1124
2100.00,2.1303
2099.00,2.1478
2098.00,2.1647
2097.00,2.1810
2096.00,2.1967
2095.00,2.2116
2094.00,2.2261
2093.00,2.2406
2092.00,2.2553
2091.00,2.2700
2090.00,2.2841
2089.00,2.2974
2088.00,2.3101
2087.00,2.3228
2086.00,2.3356
2085.00,2.3486
2084.00,2.3617
2083.00,2.3746
2082.00,2.3874
2081.00,2.4001
2080.00,2.4124
2079.00,2.4244
2078.00,2.4362
2077.00,2.4475
2076.00,2.4586
2075.00,2.4694
2074.00,2.4801
2073.00,2.4910
2072.00,2.5021
2071.00,2.5132
2070.00,2.5242
2069.00,2.5346
2068.00,2.5442
2067.00,2.5530
2066.00,2.5614
2065.00,2.5698
2064.00,2.5782
2063.00,2.5869
2062.00,2.5959
2061.00,2.6048
2060.00,2.6132
2059.00,2.6203
2058.00,2.6263
2057.00,2.6315
2056.00,2.6367
2055.00,2.6427
2054.00,2.6496
2053.00,2.6571
2052.00,2.6644
2051.00,2.6712
2050.00,2.6779
2049.00,2.6852
2048.00,2.6932
2047.00,2.7013
2046.00,2.7094
2045.00,2.7172
2044.00,2.7246
2043.00,2.7316
2042.00,2.7383
2041.00,2.7451
2040.00,2.7511
2039.00,2.7558
2038.00,2.7593
2037.00,2.7628
2036.00,2.7674
2035.00,2.7730
2034.00,2.7792
2033.00,2.7852
2032.00,2.7902
2031.00,2.7942
2030.00,2.7979
2029.00,2.8021
2028.00,2.8065
2027.00,2.8102
2026.00,2.8139
2025.00,2.8192
2024.00,2.8270
2023.00,2.8352
2022.00,2.8411
2021.00,2.8442
2020.00,2.8467
2019.00,2.8502
2018.00,2.8549
2017.00,2.8602
2016.00,2.8656
2015.00,2.8703
2014.00,2.8736
2013.00,2.8759
2012.00,2.8780
2011.00,2.8805
2010.00,2.8840
2009.00,2.8884
2008.00,2.8934
2007.00,2.8980
2006.00,2.9013
2005.00,2.9038
2004.00,2.9059
2003.00,2.9077
2002.00,2.9089
2001.00,2.9096
2000.00,2.9103
1999.00,2.9113
1998.00,2.9122
1997.00,2.9136
1996.00,2.9164
1995.00,2.9213
1994.00,2.9276
1993.00,2.9338
1992.00,2.9388
1991.00,2.9418
1990.00,2.9428
1989.00,2.9429
1988.00,2.9433
1987.00,2.9438
1986.00,2.9435
1985.00,2.9421
1984.00,2.9411
1983.00,2.9414
1982.00,2.9432
1981.00,2.9455
1980.00,2.9478
1979.00,2.9495
1978.00,2.9502
1977.00,2.9506
1976.00,2.9514
1975.00,2.9521
1974.00,2.9512
1973.00,2.9489
1972.00,2.9474
1971.00,2.9485
1970.00,2.9516
1969.00,2.9544
1968.00,2.9551
1967.00,2.9534
1966.00,2.9509
1965.00,2.9503
1964.00,2.9530
1963.00,2.9569
1962.00,2.9581
1961.00,2.9554
1960.00,2.9515
1959.00,2.9500
1958.00,2.9512
1957.00,2.9523
1956.00,2.9515
1955.00,2.9489
1954.00,2.9459
1953.00,2.9435
1952.00,2.9418
1951.00,2.9405
1950.00,2.9389
1949.00,2.9368
1948.00,2.9352
1947.00,2.9349
1946.00,2.9362
1945.00,2.9390
1944.00,2.9429
1943.00,2.9465
1942.00,2.9474
1941.00,2.9442
1940.00,2.9387
1939.00,2.9331
1938.00,2.9285
1937.00,2.9245
1936.00,2.9216
1935.00,2.9205
1934.00,2.9205
1933.00,2.9200
1932.00,2.9186
1931.00,2.9168
1930.00,2.9146
1929.00,2.9112
1928.00,2.9062
1927.00,2.9007
1926.00,2.8962
1925.00,2.8935
1924.00,2.8924
1923.00,2.8920
1922.00,2.8913
1921.00,2.8901
1920.00,2.8880
1919.00,2.8847
1918.00,2.8790
1917.00,2.8712
1916.00,2.8629
1915.00,2.8563
1914.00,2.8514
1913.00,2.8478
1912.00,2.8446
1911.00,2.8416
1910.00,2.8382
1909.00,2.8336
1908.00,2.8273
1907.00,2.8198
1906.00,2.8122
1905.00,2.8062
1904.00,2.8030
1903.00,2.8014
1902.00,2.7987
1901.00,2.7926
1900.00,2.7839
1899.00,2.7748
1898.00,2.7668
1897.00,2.7597
1896.00,2.7523
1895.00,2.7442
1894.00,2.7357
1893.00,2.7283
1892.00,2.7226
1891.00,2.7177
1890.00,2.7115
1889.00,2.7029
1888.00,2.6928
1887.00,2.6821
1886.00,2.6711
1885.00,2.6596
1884.00,2.6480
1883.00,2.6374
1882.00,2.6282
1881.00,2.6200
1880.00,2.6118
1879.00,2.6022
1878.00,2.5905
1877.00,2.5779
1876.00,2.5662
1875.00,2.5565
1874.00,2.5485
1873.00,2.5418
1872.00,2.5359
1871.00,2.5298
1870.00,2.5211
1869.00,2.5082
1868.00,2.4920
1867.00,2.4742
1866.00,2.4560
1865.00,2.4382
1864.00,2.4215
1863.00,2.4059
1862.00,2.3904
1861.00,2.3741
1860.00,2.3567
1859.00,2.3384
1858.00,2.3188
1857.00,2.2985
1856.00,2.2778
1855.00,2.2570
1854.00,2.2355
1853.00,2.2133
1852.00,2.1911
1851.00,2.1694
1850.00,2.1478
1849.00,2.1263
1848.00,2.1053
1847.00,2.0840
1846.00,2.0601
1845.00,2.0315
1844.00,1.9987
1843.00,1.9642
1842.00,1.9302
1841.00,1.8973
1840.00,1.8657
1839.00,1.8350
1838.00,1.8047
1837.00,1.7744
1836.00,1.7444
1835.00,1.7158
1834.00,1.6897
1833.00,1.6666
1832.00,1.6454
1831.00,1.6237
1830.00,1.6010
1829.00,1.5807
1828.00,1.5659
1827.00,1.5567
1826.00,1.5507
1825.00,1.5457
1824.00,1.5419
1823.00,1.5409
1822.00,1.5448
1821.00,1.5553
1820.00,1.5722
1819.00,1.5943
1818.00,1.6195
1817.00,1.6464
1816.00,1.6748
1815.00,1.7056
1814.00,1.7393
1813.00,1.7751
1812.00,1.8109
1811.00,1.8448
1810.00,1.8764
1809.00,1.9055
1808.00,1.9313
1807.00,1.9532
1806.00,1.9726
1805.00,1.9921
1804.00,2.0134
1803.00,2.0353
1802.00,2.0547
1801.00,2.0706
1800.00,2.0850
1799.00,2.1021
1798.00,2.1242
1797.00,2.1511
1796.00,2.1806
1795.00,2.2108
1794.00,2.2419
1793.00,2.2753
1792.00,2.3102
1791.00,2.3435
1790.00,2.3725
1789.00,2.3985
1788.00,2.4254
1787.00,2.4552
1786.00,2.4870
1785.00,2.5176
1784.00,2.5452
1783.00,2.5701
1782.00,2.5938
1781.00,2.6182
1780.00,2.6434
1779.00,2.6685
1778.00,2.6931
1777.00,2.7177
1776.00,2.7420
1775.00,2.7643
1774.00,2.7840
1773.00,2.8029
1772.00,2.8249
1771.00,2.8516
1770.00,2.8795
1769.00,2.9026
1768.00,2.9172
1767.00,2.9242
1766.00,2.9292
1765.00,2.9372
1764.00,2.9491
1763.00,2.9639
1762.00,2.9807
1761.00,2.9990
1760.00,3.0169
1759.00,3.0327
1758.00,3.0463
1757.00,3.0583
1756.00,3.0693
1755.00,3.0812
1754.00,3.0971
1753.00,3.1177
1752.00,3.1391
1751.00,3.1560
1750.00,3.1683
1749.00,3.1794
1748.00,3.1908
1747.00,3.2007
1746.00,3.2079
1745.00,3.2145
1744.00,3.2221
1743.00,3.2308
1742.00,3.2387
1741.00,3.2426
1740.00,3.2412
1739.00,3.2399
1738.00,3.2454
1737.00,3.2579
1736.00,3.2719
1735.00,3.2814
1734.00,3.2828
1733.00,3.2775
1732.00,3.2717
1731.00,3.2745
1730.00,3.2942
1729.00,3.3352
1728.00,3.3988
1727.00,3.4857
1726.00,3.5996
1725.00,3.7427
1724.00,3.9093
1723.00,4.0957
1722.00,4.3046
1721.00,4.5043
1720.00,4.6099
1719.00,4.6257
1718.00,4.6592
1717.00,4.7492
1716.00,4.8788
1715.00,4.9953
1714.00,4.9858
1713.00,4.8939
1712.00,4.8661
1711.00,5.0241
1710.00,5.0539
1709.00,4.7614
1708.00,4.5983
1707.00,4.5504
1706.00,4.5935
1705.00,4.7410
1704.00,4.7530
1703.00,4.4673
1702.00,4.1958
1701.00,3.9696
1700.00,3.7716
1699.00,3.6198
1698.00,3.5092
1697.00,3.4112
1696.00,3.3077
1695.00,3.2072
1694.00,3.1211
1693.00,3.0448
1692.00,2.9665
1691.00,2.8819
1690.00,2.7933
1689.00,2.7041
1688.00,2.6172
1687.00,2.5341
1686.00,2.4553
1685.00,2.3803
1684.00,2.3174
1683.00,2.2776
1682.00,2.2580
1681.00,2.2514
1680.00,2.2552
1679.00,2.2686
1678.00,2.2898
1677.00,2.3137
1676.00,2.3349
1675.00,2.3505
1674.00,2.3620
1673.00,2.3735
1672.00,2.3868
1671.00,2.4016
1670.00,2.4175
1669.00,2.4348
1668.00,2.4531
1667.00,2.4722
1666.00,2.4932
1665.00,2.5168
1664.00,2.5430
1663.00,2.5722
1662.00,2.6048
1661.00,2.6388
1660.00,2.6711
1659.00,2.7010
1658.00,2.7314
1657.00,2.7643
1656.00,2.7965
1655.00,2.8213
1654.00,2.8333
1653.00,2.8394
1652.00,2.8529
1651.00,2.8747
1650.00,2.9000
1649.00,2.9221
1648.00,2.9365
1647.00,2.9465
1646.00,2.9581
1645.00,2.9729
1644.00,2.9886
1643.00,3.0030
1642.00,3.0155
1641.00,3.0292
1640.00,3.0446
1639.00,3.0573
1638.00,3.0630
1637.00,3.0632
1636.00,3.0645
1635.00,3.0722
1634.00,3.0836
1633.00,3.0940
1632.00,3.1022
1631.00,3.1079
1630.00,3.1121
1629.00,3.1173
1628.00,3.1258
1627.00,3.1376
1626.00,3.1497
1625.00,3.1595
1624.00,3.1659
1623.00,3.1693
1622.00,3.1710
1621.00,3.1729
1620.00,3.1747
1619.00,3.1744
1618.00,3.1721
1617.00,3.1715
1616.00,3.1766
1615.00,3.1851
1614.00,3.1924
1613.00,3.1985
1612.00,3.2063
1611.00,3.2162
1610.00,3.2250
1609.00,3.2287
1608.00,3.2267
1607.00,3.2212
1606.00,3.2154
1605.00,3.2127
1604.00,3.2134
1603.00,3.2144
1602.00,3.2138
1601.00,3.2140
1600.00,3.2192
1599.00,3.2301
1598.00,3.2435
1597.00,3.2549
1596.00,3.2621
1595.00,3.2649
1594.00,3.2647
1593.00,3.2629
1592.00,3.2610
1591.00,3.2602
1590.00,3.2609
1589.00,3.2631
1588.00,3.2659
1587.00,3.2684
1586.00,3.2706
1585.00,3.2733
1584.00,3.2763
1583.00,3.2784
1582.00,3.2794
1581.00,3.2809
1580.00,3.2834
1579.00,3.2840
1578.00,3.2797
1577.00,3.2726
1576.00,3.2694
1575.00,3.2725
1574.00,3.2758
1573.00,3.2741
1572.00,3.2685
1571.00,3.2632
1570.00,3.2626
1569.00,3.2686
1568.00,3.2780
1567.00,3.2847
1566.00,3.2858
1565.00,3.2823
1564.00,3.2777
1563.00,3.2756
1562.00,3.2776
1561.00,3.2838
1560.00,3.2856
1559.00,3.2772
1558.00,3.2730
1557.00,3.2746
1556.00,3.2747
1555.00,3.2701
1554.00,3.2623
1553.00,3.2588
1552.00,3.2627
1551.00,3.2683
1550.00,3.2668
1549.00,3.2561
1548.00,3.2439
1547.00,3.2392
1546.00,3.2434
1545.00,3.2493
1544.00,3.2476
1543.00,3.2350
1542.00,3.2159
1541.00,3.1980
1540.00,3.1903
1539.00,3.1950
1538.00,3.2015
1537.00,3.2050
1536.00,3.2076
1535.00,3.2102
1534.00,3.2116
1533.00,3.2105
1532.00,3.2057
1531.00,3.1976
1530.00,3.1896
1529.00,3.1847
1528.00,3.1821
1527.00,3.1793
1526.00,3.1747
1525.00,3.1698
1524.00,3.1667
1523.00,3.1644
1522.00,3.1601
1521.00,3.1529
1520.00,3.1460
1519.00,3.1434
1518.00,3.1452
1517.00,3.1476
1516.00,3.1453
1515.00,3.1382
1514.00,3.1241
1513.00,3.1159
1512.00,3.1032
1511.00,3.1144
1510.00,3.0861
1509.00,3.0337
1508.00,3.0342
1507.00,3.0164
1506.00,3.0055
1505.00,2.9909
1504.00,2.9835
1503.00,2.9791
1502.00,2.9721
1501.00,2.9651
1500.00,2.9559
1499.00,2.9454
1498.00,2.9322
1497.00,2.9160
1496.00,2.8981
1495.00,2.8817
1494.00,2.8692
1493.00,2.8602
1492.00,2.8534
1491.00,2.8475
1490.00,2.8408
1489.00,2.8319
1488.00,2.8196
1487.00,2.8045
1486.00,2.7871
1485.00,2.7679
1484.00,2.7478
1483.00,2.7276
1482.00,2.7077
1481.00,2.6885
1480.00,2.6711
1479.00,2.6564
1478.00,2.6437
1477.00,2.6302
1476.00,2.6134
1475.00,2.5926
1474.00,2.5675
1473.00,2.5389
1472.00,2.5094
1471.00,2.4828
1470.00,2.4629
1469.00,2.4530
1468.00,2.4547
1467.00,2.4675
1466.00,2.4883
1465.00,2.5123
1464.00,2.5335
1463.00,2.5467
1462.00,2.5526
1461.00,2.5573
1460.00,2.5671
1459.00,2.5868
1458.00,2.6201
1457.00,2.6711
1456.00,2.7400
1455.00,2.8216
1454.00,2.9115
1453.00,3.0093
1452.00,3.1148
1451.00,3.2185
1450.00,3.2981
1449.00,3.3290
1448.00,3.3025
1447.00,3.2346
1446.00,3.1496
1445.00,3.0615
1444.00,2.9737
1443.00,2.8880
1442.00,2.8083
1441.00,2.7401
1440.00,2.6884
1439.00,2.6565
1438.00,2.6443
1437.00,2.6473
1436.00,2.6609
1435.00,2.6847
1434.00,2.7201
1433.00,2.7659
1432.00,2.8159
1431.00,2.8602
1430.00,2.8905
1429.00,2.9061
1428.00,2.9117
1427.00,2.9133
1426.00,2.9153
1425.00,2.9203
1424.00,2.9279
1423.00,2.9364
1422.00,2.9438
1421.00,2.9482
1420.00,2.9439
1419.00,2.9220
1418.00,2.8789
1417.00,2.8188
1416.00,2.7482
1415.00,2.6734
1414.00,2.5996
1413.00,2.5297
1412.00,2.4631
1411.00,2.3991
1410.00,2.3387
1409.00,2.2839
1408.00,2.2371
1407.00,2.1994
1406.00,2.1695
1405.00,2.1444
1404.00,2.1233
1403.00,2.1089
1402.00,2.1045
1401.00,2.1107
1400.00,2.1247
1399.00,2.1429
1398.00,2.1632
1397.00,2.1850
1396.00,2.2081
1395.00,2.2319
1394.00,2.2549
1393.00,2.2775
1392.00,2.3022
1391.00,2.3327
1390.00,2.3705
1389.00,2.4136
1388.00,2.4571
1387.00,2.4958
1386.00,2.5275
1385.00,2.5545
1384.00,2.5810
1383.00,2.6095
1382.00,2.6404
1381.00,2.6721
1380.00,2.7026
1379.00,2.7308
1378.00,2.7570
1377.00,2.7833
1376.00,2.8112
1375.00,2.8402
1374.00,2.8684
1373.00,2.8948
1372.00,2.9194
1371.00,2.9428
1370.00,2.9653
1369.00,2.9882
1368.00,3.0130
1367.00,3.0401
1366.00,3.0683
1365.00,3.0962
1364.00,3.1225
1363.00,3.1453
1362.00,3.1622
1361.00,3.1745
1360.00,3.1856
1359.00,3.1976
1358.00,3.2100
1357.00,3.2227
1356.00,3.2384
1355.00,3.2619
1354.00,3.2956
1353.00,3.3379
1352.00,3.3815
1351.00,3.4172
1350.00,3.4400
1349.00,3.4516
1348.00,3.4544
1347.00,3.4496
1346.00,3.4392
1345.00,3.4298
1344.00,3.4305
1343.00,3.4446
1342.00,3.4672
1341.00,3.4888
1340.00,3.5003
1339.00,3.4947
1338.00,3.4678
1337.00,3.4228
1336.00,3.3705
1335.00,3.3241
1334.00,3.2937
1333.00,3.2837
1332.00,3.2922
1331.00,3.3126
1330.00,3.3373
1329.00,3.3628
1328.00,3.3898
1327.00,3.4193
1326.00,3.4488
1325.00,3.4737
1324.00,3.4917
1323.00,3.5052
1322.00,3.5201
1321.00,3.5409
1320.00,3.5661
1319.00,3.5895
1318.00,3.6074
1317.00,3.6255
1316.00,3.6499
1315.00,3.6774
1314.00,3.6991
1313.00,3.7114
1312.00,3.7165
1311.00,3.7102
1310.00,3.6793
1309.00,3.6187
1308.00,3.5439
1307.00,3.4765
1306.00,3.4279
1305.00,3.3980
1304.00,3.3830
1303.00,3.3795
1302.00,3.3845
1301.00,3.3936
1300.00,3.4029
1299.00,3.4113
1298.00,3.4219
1297.00,3.4369
1296.00,3.4530
1295.00,3.4623
1294.00,3.4605
1293.00,3.4526
1292.00,3.4488
1291.00,3.4557
1290.00,3.4722
1289.00,3.4930
1288.00,3.5148
1287.00,3.5378
1286.00,3.5624
1285.00,3.5848
1284.00,3.5992
1283.00,3.6032
1282.00,3.6006
1281.00,3.5973
1280.00,3.5983
1279.00,3.6040
1278.00,3.6112
1277.00,3.6163
1276.00,3.6201
1275.00,3.6239
1274.00,3.6243
1273.00,3.6166
1272.00,3.6035
1271.00,3.5960
1270.00,3.6030
1269.00,3.6230
1268.00,3.6448
1267.00,3.6561
1266.00,3.6552
1265.00,3.6521
1264.00,3.6564
1263.00,3.6678
1262.00,3.6786
1261.00,3.6823
1260.00,3.6786
1259.00,3.6746
1258.00,3.6772
1257.00,3.6884
1256.00,3.7064
1255.00,3.7272
1254.00,3.7427
1253.00,3.7454
1252.00,3.7370
1251.00,3.7293
1250.00,3.7321
1249.00,3.7442
1248.00,3.7592
1247.00,3.7733
1246.00,3.7844
1245.00,3.7829
1244.00,3.7576
1243.00,3.7163
1242.00,3.6829
1241.00,3.6763
1240.00,3.6999
1239.00,3.7413
1238.00,3.7780
1237.00,3.7976
1236.00,3.8059
1235.00,3.8078
1234.00,3.7992
1233.00,3.7745
1232.00,3.7376
1231.00,3.7026
1230.00,3.6822
1229.00,3.6810
1228.00,3.6955
1227.00,3.7194
1226.00,3.7532
1225.00,3.8034
1224.00,3.8731
1223.00,3.9553
1222.00,4.0301
1221.00,4.0721
1220.00,4.0732
1219.00,4.0434
1218.00,3.9929
1217.00,3.9242
1216.00,3.8546
1215.00,3.8123
1214.00,3.8023
1213.00,3.8007
1212.00,3.7826
1211.00,3.7562
1210.00,3.7466
1209.00,3.7655
1208.00,3.8049
1207.00,3.8436
1206.00,3.8593
1205.00,3.8422
1204.00,3.8027
1203.00,3.7630
1202.00,3.7432
1201.00,3.7523
1200.00,3.7874
1199.00,3.8364
1198.00,3.8802
1197.00,3.9048
1196.00,3.9047
1195.00,3.8827
1194.00,3.8472
1193.00,3.8000
1192.00,3.7478
1191.00,3.7103
1190.00,3.7012
1189.00,3.7172
1188.00,3.7435
1187.00,3.7658
1186.00,3.7775
1185.00,3.7795
1184.00,3.7765
1183.00,3.7755
1182.00,3.7827
1181.00,3.7978
1180.00,3.8163
1179.00,3.8374
1178.00,3.8576
1177.00,3.8633
1176.00,3.8370
1175.00,3.7768
1174.00,3.7120
1173.00,3.6804
1172.00,3.6976
1171.00,3.7481
1170.00,3.7923
1169.00,3.7911
1168.00,3.7468
1167.00,3.7027
1166.00,3.6887
1165.00,3.7006
1164.00,3.7147
1163.00,3.7095
1162.00,3.6811
1161.00,3.6442
1160.00,3.6167
1159.00,3.6079
1158.00,3.6139
1157.00,3.6182
1156.00,3.6047
1155.00,3.5758
1154.00,3.5468
1153.00,3.5301
1152.00,3.5298
1151.00,3.5423
1150.00,3.5608
1149.00,3.5778
1148.00,3.5879
1147.00,3.5885
1146.00,3.5783
1145.00,3.5577
1144.00,3.5330
1143.00,3.5156
1142.00,3.5127
1141.00,3.5184
1140.00,3.5187
1139.00,3.5071
1138.00,3.4921
1137.00,3.4841
1136.00,3.4811
1135.00,3.4706
1134.00,3.4446
1133.00,3.4077
1132.00,3.3701
1131.00,3.3399
1130.00,3.3223
1129.00,3.3192
1128.00,3.3292
1127.00,3.3498
1126.00,3.3804
1125.00,3.4196
1124.00,3.4665
1123.00,3.5217
1122.00,3.5877
1121.00,3.6652
1120.00,3.7508
1119.00,3.8356
1118.00,3.9051
1117.00,3.9465
1116.00,3.9598
1115.00,3.9612
1114.00,3.9672
1113.00,3.9687
1112.00,3.9470
1111.00,3.9098
1110.00,3.8672
1109.00,3.8082
1108.00,3.7172
1107.00,3.6128
1106.00,3.5346
1105.00,3.4992
1104.00,3.5012
1103.00,3.5302
1102.00,3.5719
1101.00,3.5989
1100.00,3.5759
1099.00,3.5097
1098.00,3.4466
1097.00,3.4110
1096.00,3.3964
1095.00,3.3838
1094.00,3.3633
1093.00,3.3422
1092.00,3.3320
1091.00,3.3347
1090.00,3.3419
1089.00,3.3402
1088.00,3.3227
1087.00,3.2965
1086.00,3.2729
1085.00,3.2537
1084.00,3.2323
1083.00,3.2053
1082.00,3.1766
1081.00,3.1509
1080.00,3.1282
1079.00,3.1073
1078.00,3.0907
1077.00,3.0814
1076.00,3.0785
1075.00,3.0787
1074.00,3.0808
1073.00,3.0836
1072.00,3.0825
1071.00,3.0726
1070.00,3.0560
1069.00,3.0415
1068.00,3.0367
1067.00,3.0431
1066.00,3.0574
1065.00,3.0750
1064.00,3.0917
1063.00,3.1060
1062.00,3.1195
1061.00,3.1351
1060.00,3.1539
1059.00,3.1752
1058.00,3.2005
1057.00,3.2333
1056.00,3.2721
1055.00,3.3064
1054.00,3.3242
1053.00,3.3282
1052.00,3.3301
1051.00,3.3277
1050.00,3.3052
1049.00,3.2558
1048.00,3.1881
1047.00,3.1167
1046.00,3.0569
1045.00,3.0183
1044.00,3.0016
1043.00,3.0015
1042.00,3.0101
1041.00,3.0219
1040.00,3.0342
1039.00,3.0455
1038.00,3.0546
1037.00,3.0618
1036.00,3.0709
1035.00,3.0872
1034.00,3.1137
1033.00,3.1492
1032.00,3.1895
1031.00,3.2311
1030.00,3.2726
1029.00,3.3138
1028.00,3.3553
1027.00,3.3996
1026.00,3.4479
1025.00,3.4981
1024.00,3.5464
1023.00,3.5899
1022.00,3.6320
1021.00,3.6819
1020.00,3.7391
1019.00,3.7792
1018.00,3.7685
1017.00,3.7083
1016.00,3.6355
1015.00,3.5803
1014.00,3.5557
1013.00,3.5623
1012.00,3.5869
1011.00,3.6090
1010.00,3.6156
1009.00,3.6101
1008.00,3.6142
1007.00,3.6487
1006.00,3.7149
1005.00,3.7927
1004.00,3.8492
1003.00,3.8682
1002.00,3.8624
1001.00,3.8561
1000.00,3.8760
999.00,3.9312
998.00,4.0092
997.00,4.1005
996.00,4.1941
995.00,4.2438
994.00,4.1954
993.00,4.0798
992.00,3.9791
991.00,3.9335
990.00,3.9428
989.00,3.9925
988.00,4.0661
987.00,4.1422
986.00,4.1895
985.00,4.1948
984.00,4.1767
983.00,4.1859
982.00,4.3077
981.00,4.7342
980.00,4.9321
979.00,4.3702
978.00,4.1844
977.00,4.1051
976.00,4.0685
975.00,4.0607
974.00,4.0729
973.00,4.1414
972.00,4.2817
971.00,4.4461
970.00,4.4660
969.00,4.3208
968.00,4.2000
967.00,4.1628
966.00,4.1847
965.00,4.2325
964.00,4.3058
963.00,4.4450
962.00,4.6261
961.00,4.6398
960.00,4.5849
959.00,4.5716
958.00,4.5474
957.00,4.5303
956.00,4.5352
955.00,4.5651
954.00,4.6481
953.00,4.5407
952.00,4.4779
951.00,4.7277
950.00,4.5628
949.00,4.2393
948.00,4.1311
947.00,4.1053
946.00,4.1441
945.00,4.2781
944.00,4.4744
943.00,4.5402
942.00,4.5184
941.00,4.5871
940.00,4.8002
939.00,4.9319
938.00,4.7486
937.00,4.5243
936.00,4.3033
935.00,4.1847
934.00,4.1622
933.00,4.1833
932.00,4.1863
931.00,4.1266
930.00,4.0435
929.00,3.9963
928.00,4.0158
927.00,4.1166
926.00,4.2947
925.00,4.4337
924.00,4.3907
923.00,4.3473
922.00,4.3718
921.00,4.3716
920.00,4.3460
919.00,4.2947
918.00,4.1751
917.00,4.1180
916.00,4.1702
915.00,4.2472
914.00,4.2888
913.00,4.3158
912.00,4.3013
911.00,4.2853
910.00,4.2175
909.00,4.0457
908.00,3.8967
907.00,3.8322
906.00,3.8545
905.00,3.9426
904.00,4.0484
903.00,4.1275
902.00,4.2091
901.00,4.3675
900.00,4.6111
899.00,4.7982
898.00,4.5805
897.00,4.2540
896.00,4.0864
895.00,4.0423
894.00,4.0863
893.00,4.1981
892.00,4.3204
891.00,4.3028
890.00,4.1963
889.00,4.1496
888.00,4.1912
887.00,4.3425
886.00,4.6005
885.00,4.6237
884.00,4.4231
883.00,4.2796
882.00,4.2339
881.00,4.2856
880.00,4.3463
879.00,4.3512
878.00,4.3812
877.00,4.4592
876.00,4.7529
875.00,4.7680
874.00,4.2257
873.00,4.0159
872.00,3.9447
871.00,3.9751
870.00,4.1283
869.00,4.4250
868.00,4.6774
867.00,4.6067
866.00,4.8330
865.00,4.9966
864.00,4.4939
863.00,4.4370
862.00,4.5710
861.00,4.6919
860.00,4.6355
859.00,4.4881
858.00,4.3698
857.00,4.2877
856.00,4.2541
855.00,4.2739
854.00,4.3446
853.00,4.5053
852.00,4.9291
851.00,5.3489
850.00,4.6322
849.00,4.2799
848.00,4.1172
847.00,4.0926
846.00,4.1577
845.00,4.2791
844.00,4.4732
843.00,4.7276
842.00,4.8734
841.00,4.7619
840.00,4.5491
839.00,4.3554
838.00,4.2450
837.00,4.2034
836.00,4.1398
835.00,4.0292
834.00,3.9239
833.00,3.8577
832.00,3.8418
831.00,3.8748
830.00,3.9610
829.00,4.0955
828.00,4.2327
827.00,4.3625
826.00,4.5775
825.00,4.9233
824.00,4.9494
823.00,4.5593
822.00,4.3037
821.00,4.2165
820.00,4.2986
819.00,4.6349
818.00,4.7989
817.00,4.4646
816.00,4.5091
815.00,4.9822
814.00,4.8490
813.00,4.4353
812.00,4.2477
811.00,4.1336
810.00,4.0768
809.00,4.1116
808.00,4.2383
807.00,4.4439
806.00,4.6494
805.00,4.4538
804.00,4.2950
803.00,4.3197
802.00,4.5464
801.00,4.8255
800.00,4.5576
799.00,4.3724
798.00,4.2725
797.00,4.2678
796.00,4.4629
795.00,5.0859
794.00,4.7328
793.00,4.4878
792.00,4.4629
791.00,4.5017
790.00,4.3919
789.00,4.2712
788.00,4.2948
787.00,4.4542
786.00,4.6174
785.00,4.7071
784.00,4.9057
783.00,4.5782
782.00,4.2527
781.00,4.1300
780.00,4.1637
779.00,4.2020
778.00,4.0856
777.00,3.9974
776.00,3.9685
775.00,3.9588
774.00,3.9566
773.00,3.9712
772.00,4.0101
771.00,4.0542
770.00,4.0662
769.00,4.0412
768.00,4.0335
767.00,4.0999
766.00,4.2556
765.00,4.4069
764.00,4.4519
763.00,4.4090
762.00,4.4563
761.00,4.7393
760.00,4.5826
759.00,4.4229
758.00,4.3453
757.00,4.1980
756.00,4.1203
755.00,4.1151
754.00,4.1253
753.00,4.1421
752.00,4.1737
751.00,4.1344
750.00,4.0417
749.00,3.9800
748.00,3.9298
747.00,3.8893
746.00,3.8954
745.00,3.9631
744.00,4.0722
743.00,4.1558
742.00,4.1474
741.00,4.0736
740.00,4.0141
739.00,4.0148
738.00,4.0563
737.00,4.0564
736.00,4.0195
735.00,4.0418
734.00,4.1525
733.00,4.3862
732.00,4.9258
731.00,4.8206
730.00,4.4726
729.00,4.3403
728.00,4.2442
727.00,4.1863
726.00,4.1938
725.00,4.2386
724.00,4.2478
723.00,4.2007
722.00,4.1833
721.00,4.3012
720.00,4.5981
719.00,4.5583
718.00,4.3209
717.00,4.1970
716.00,4.1738
715.00,4.3852
714.00,4.8130
713.00,4.2244
712.00,4.1021
711.00,4.3583
710.00,4.6446
709.00,4.0866
708.00,3.9656
707.00,4.0036
706.00,4.1330
705.00,4.3320
704.00,4.4337
703.00,4.3406
702.00,4.2192
701.00,4.2081
700.00,4.3278
699.00,4.4832
698.00,4.5706
697.00,4.8686
696.00,5.0729
695.00,4.5830
694.00,4.2720
693.00,4.0894
692.00,4.0637
691.00,4.2075
690.00,4.3095
689.00,4.1184
688.00,4.0283
687.00,4.0556
686.00,4.1424
685.00,4.2725
684.00,4.4904
683.00,4.9098
682.00,4.9647
681.00,4.6622
680.00,4.4769
679.00,4.3413
678.00,4.2804
677.00,4.3800
676.00,4.7819
675.00,4.6414
674.00,4.3569
673.00,4.2300
672.00,4.1641
671.00,4.1790
670.00,4.2957
669.00,4.5870
668.00,5.0529
667.00,4.6413
666.00,4.3720
665.00,4.1901
664.00,4.0997
663.00,4.1426
662.00,4.2486
661.00,4.1507
660.00,4.0645
659.00,4.1380
658.00,4.4069
657.00,4.5819
656.00,4.3582
655.00,4.3329
654.00,4.4151
653.00,4.3926
652.00,4.2641
651.00,4.0588
650.00,3.8807
649.00,3.7897
648.00,3.8005
647.00,3.9272
646.00,4.1112
645.00,4.1939
644.00,4.2525
643.00,4.1187
642.00,3.9152
641.00,3.8347
640.00,3.8663
639.00,3.9815
638.00,4.0862
637.00,4.0170
636.00,3.9042
635.00,3.8667
634.00,3.8772
633.00,3.8661
632.00,3.8252
631.00,3.8045
630.00,3.8374
629.00,3.9267
628.00,4.0046
627.00,3.9803
626.00,3.9064
625.00,3.8594
624.00,3.8908
623.00,4.0245
622.00,4.2221
621.00,4.2277
620.00,4.0802
619.00,4.0149
618.00,4.0159
617.00,4.0383
616.00,4.0794
615.00,4.1275
614.00,4.1756
613.00,4.2654
612.00,4.1789
611.00,3.9987
610.00,3.8794
609.00,3.7575
608.00,3.6623
607.00,3.6409
606.00,3.6847
605.00,3.7493
604.00,3.7872
603.00,3.7838
602.00,3.7570
601.00,3.7215
600.00,3.6958
599.00,3.7181
598.00,3.8066
597.00,3.9141
596.00,3.9575
595.00,3.9219
594.00,3.8715
593.00,3.8824
592.00,3.9672
591.00,4.0880
590.00,4.2007
589.00,4.2554
588.00,4.0570
587.00,3.7857
586.00,3.6155
585.00,3.5362
584.00,3.5260
583.00,3.5707
582.00,3.6559
581.00,3.7484
580.00,3.7754
579.00,3.7391
578.00,3.7468
577.00,3.8496
576.00,4.0262
575.00,4.1315
574.00,4.0440
573.00,3.9524
572.00,3.9441
571.00,4.0070
570.00,4.0892
569.00,4.1203
568.00,4.0874
567.00,3.9932
566.00,3.8672
565.00,3.7657
564.00,3.7114
563.00,3.7010
562.00,3.7072
561.00,3.7044
560.00,3.7078
559.00,3.7581
558.00,3.8865
557.00,3.9838
556.00,3.9328
555.00,3.9003
554.00,3.8731
553.00,3.7932
552.00,3.7190
551.00,3.7041
550.00,3.7738
549.00,3.9206
548.00,4.0197
547.00,3.9418
546.00,3.8277
545.00,3.7972
544.00,3.8621
543.00,3.9606
542.00,4.0013
541.00,3.9822
540.00,3.8169
539.00,3.6636
538.00,3.6339
537.00,3.7481
536.00,3.9985
535.00,4.0061
534.00,3.9079
533.00,3.9692
532.00,4.0425
531.00,3.9841
530.00,3.9287
529.00,3.9045
528.00,3.8882
527.00,3.8281
526.00,3.6884
525.00,3.5954
524.00,3.6015
523.00,3.6783
522.00,3.7051
521.00,3.6187
520.00,3.5399
519.00,3.5051
518.00,3.5322
517.00,3.6635
516.00,3.9040
515.00,4.1847
514.00,4.5213
513.00,4.3878
512.00,4.1467
511.00,3.9515
510.00,3.8094
509.00,3.8202
508.00,3.9279
507.00,4.0054
506.00,4.3978
505.00,4.0985
504.00,3.6814
503.00,3.5185
502.00,3.4596
501.00,3.4605
500.00,3.5110
499.00,3.5692
498.00,3.6356
497.00,3.8157
496.00,3.9485
495.00,3.8133
494.00,3.7478
493.00,3.6826
492.00,3.6431
491.00,3.6744
490.00,3.6638
489.00,3.5605
488.00,3.5542
487.00,3.7543
486.00,3.8826
485.00,3.6928
484.00,3.6406
483.00,3.5380
482.00,3.4805
481.00,3.5214
480.00,3.5207
479.00,3.4769
478.00,3.5039
477.00,3.6031
476.00,3.6984
475.00,3.6869
474.00,3.5467
473.00,3.3945
472.00,3.3318
471.00,3.3635
470.00,3.4701
469.00,3.6629
468.00,3.8771
467.00,3.8277
466.00,3.5721
465.00,3.3588
464.00,3.2523
463.00,3.2314
462.00,3.2574
461.00,3.2815
460.00,3.2886
459.00,3.3287
458.00,3.4779
457.00,3.8400
456.00,4.5490
455.00,4.1754
454.00,3.5949
453.00,3.3024
452.00,3.1467
451.00,3.0685
450.00,3.0488
449.00,3.0669
448.00,3.0894
447.00,3.1160
446.00,3.1804
445.00,3.2734
444.00,3.3012
443.00,3.2528
442.00,3.2585
441.00,3.4499
440.00,3.7459
439.00,3.4480
438.00,3.3529
437.00,3.3142
436.00,3.2093
435.00,3.1241
434.00,3.0671
433.00,3.0388
432.00,3.0507
431.00,3.0835
430.00,3.1487
429.00,3.2548
428.00,3.2040
427.00,3.0564
426.00,2.9869
425.00,2.9932
424.00,3.0378
423.00,3.0688
422.00,3.0559
421.00,3.0395
420.00,3.0834
419.00,3.2087
418.00,3.3514
417.00,3.3794
416.00,3.2972
415.00,3.1432
414.00,2.9644
413.00,2.8377
412.00,2.7870
411.00,2.8122
410.00,2.8907
409.00,2.9210
408.00,2.8454
407.00,2.7601
406.00,2.7175
405.00,2.7087
404.00,2.7048
403.00,2.6852
402.00,2.6412
401.00,2.5538
400.00,2.4543
