Created as New Dataset,Sample 165 By Administrator Date Friday, November 26 2021
cm-1,A
7000.00,0.8729
6999.00,0.8679
6998.00,0.8630
6997.00,0.8584
6996.00,0.8539
6995.00,0.8495
6994.00,0.8451
6993.00,0.8405
6992.00,0.8359
6991.00,0.8313
6990.00,0.8270
6989.00,0.8226
6988.00,0.8182
6987.00,0.8139
6986.00,0.8097
6985.00,0.8056
6984.00,0.8014
6983.00,0.7972
6982.00,0.7930
6981.00,0.7890
6980.00,0.7850
6979.00,0.7811
6978.00,0.7773
6977.00,0.7735
6976.00,0.7697
6975.00,0.7660
6974.00,0.7624
6973.00,0.7589
6972.00,0.7556
6971.00,0.7523
6970.00,0.7492
6969.00,0.7462
6968.00,0.7433
6967.00,0.7405
6966.00,0.7378
6965.00,0.7352
6964.00,0.7326
6963.00,0.7301
6962.00,0.7278
6961.00,0.7255
6960.00,0.7233
6959.00,0.7211
6958.00,0.7191
6957.00,0.7174
6956.00,0.7158
6955.00,0.7142
6954.00,0.7126
6953.00,0.7112
6952.00,0.7099
6951.00,0.7089
6950.00,0.7081
6949.00,0.7074
6948.00,0.7067
6947.00,0.7062
6946.00,0.7058
6945.00,0.7056
6944.00,0.7054
6943.00,0.7052
6942.00,0.7051
6941.00,0.7052
6940.00,0.7056
6939.00,0.7061
6938.00,0.7066
6937.00,0.7072
6936.00,0.7079
6935.00,0.7086
6934.00,0.7094
6933.00,0.7102
6932.00,0.7113
6931.00,0.7126
6930.00,0.7141
6929.00,0.7157
6928.00,0.7173
6927.00,0.7191
6926.00,0.7209
6925.00,0.7229
6924.00,0.7248
6923.00,0.7268
6922.00,0.7289
6921.00,0.7313
6920.00,0.7340
6919.00,0.7367
6918.00,0.7394
6917.00,0.7421
6916.00,0.7448
6915.00,0.7476
6914.00,0.7504
6913.00,0.7532
6912.00,0.7560
6911.00,0.7589
6910.00,0.7620
6909.00,0.7654
6908.00,0.7689
6907.00,0.7722
6906.00,0.7756
6905.00,0.7792
6904.00,0.7831
6903.00,0.7871
6902.00,0.7911
6901.00,0.7950
6900.00,0.7989
6899.00,0.8028
6898.00,0.8068
6897.00,0.8109
6896.00,0.8150
6895.00,0.8190
6894.00,0.8232
6893.00,0.8276
6892.00,0.8320
6891.00,0.8362
6890.00,0.8403
6889.00,0.8443
6888.00,0.8486
6887.00,0.8530
6886.00,0.8577
6885.00,0.8624
6884.00,0.8671
6883.00,0.8717
6882.00,0.8763
6881.00,0.8807
6880.00,0.8849
6879.00,0.8891
6878.00,0.8934
6877.00,0.8979
6876.00,0.9024
6875.00,0.9070
6874.00,0.9118
6873.00,0.9169
6872.00,0.9219
6871.00,0.9268
6870.00,0.9315
6869.00,0.9362
6868.00,0.9410
6867.00,0.9455
6866.00,0.9500
6865.00,0.9545
6864.00,0.9594
6863.00,0.9644
6862.00,0.9693
6861.00,0.9741
6860.00,0.9785
6859.00,0.9828
6858.00,0.9871
6857.00,0.9915
6856.00,0.9957
6855.00,1.0000
6854.00,1.0044
6853.00,1.0090
6852.00,1.0138
6851.00,1.0185
6850.00,1.0231
6849.00,1.0276
6848.00,1.0321
6847.00,1.0365
6846.00,1.0408
6845.00,1.0451
6844.00,1.0495
6843.00,1.0537
6842.00,1.0576
6841.00,1.0613
6840.00,1.0651
6839.00,1.0690
6838.00,1.0728
6837.00,1.0766
6836.00,1.0805
6835.00,1.0847
6834.00,1.0889
6833.00,1.0930
6832.00,1.0969
6831.00,1.1005
6830.00,1.1041
6829.00,1.1075
6828.00,1.1112
6827.00,1.1150
6826.00,1.1189
6825.00,1.1224
6824.00,1.1253
6823.00,1.1280
6822.00,1.1310
6821.00,1.1342
6820.00,1.1375
6819.00,1.1409
6818.00,1.1443
6817.00,1.1476
6816.00,1.1507
6815.00,1.1533
6814.00,1.1555
6813.00,1.1578
6812.00,1.1604
6811.00,1.1632
6810.00,1.1662
6809.00,1.1692
6808.00,1.1718
6807.00,1.1742
6806.00,1.1764
6805.00,1.1785
6804.00,1.1805
6803.00,1.1826
6802.00,1.1849
6801.00,1.1874
6800.00,1.1898
6799.00,1.1920
6798.00,1.1942
6797.00,1.1962
6796.00,1.1981
6795.00,1.1997
6794.00,1.2012
6793.00,1.2028
6792.00,1.2046
6791.00,1.2063
6790.00,1.2081
6789.00,1.2101
6788.00,1.2121
6787.00,1.2139
6786.00,1.2152
6785.00,1.2161
6784.00,1.2168
6783.00,1.2175
6782.00,1.2185
6781.00,1.2199
6780.00,1.2215
6779.00,1.2231
6778.00,1.2246
6777.00,1.2258
6776.00,1.2273
6775.00,1.2288
6774.00,1.2300
6773.00,1.2307
6772.00,1.2310
6771.00,1.2315
6770.00,1.2323
6769.00,1.2331
6768.00,1.2336
6767.00,1.2337
6766.00,1.2337
6765.00,1.2340
6764.00,1.2343
6763.00,1.2341
6762.00,1.2337
6761.00,1.2333
6760.00,1.2332
6759.00,1.2333
6758.00,1.2335
6757.00,1.2336
6756.00,1.2337
6755.00,1.2337
6754.00,1.2336
6753.00,1.2337
6752.00,1.2339
6751.00,1.2339
6750.00,1.2336
6749.00,1.2329
6748.00,1.2322
6747.00,1.2315
6746.00,1.2308
6745.00,1.2301
6744.00,1.2295
6743.00,1.2291
6742.00,1.2288
6741.00,1.2285
6740.00,1.2278
6739.00,1.2268
6738.00,1.2256
6737.00,1.2242
6736.00,1.2227
6735.00,1.2212
6734.00,1.2197
6733.00,1.2184
6732.00,1.2172
6731.00,1.2161
6730.00,1.2150
6729.00,1.2137
6728.00,1.2121
6727.00,1.2102
6726.00,1.2084
6725.00,1.2068
6724.00,1.2053
6723.00,1.2036
6722.00,1.2017
6721.00,1.2000
6720.00,1.1982
6719.00,1.1962
6718.00,1.1939
6717.00,1.1913
6716.00,1.1886
6715.00,1.1860
6714.00,1.1838
6713.00,1.1816
6712.00,1.1793
6711.00,1.1766
6710.00,1.1740
6709.00,1.1715
6708.00,1.1691
6707.00,1.1664
6706.00,1.1635
6705.00,1.1605
6704.00,1.1579
6703.00,1.1554
6702.00,1.1529
6701.00,1.1500
6700.00,1.1469
6699.00,1.1436
6698.00,1.1403
6697.00,1.1372
6696.00,1.1340
6695.00,1.1305
6694.00,1.1268
6693.00,1.1230
6692.00,1.1194
6691.00,1.1158
6690.00,1.1120
6689.00,1.1082
6688.00,1.1044
6687.00,1.1008
6686.00,1.0973
6685.00,1.0936
6684.00,1.0898
6683.00,1.0859
6682.00,1.0821
6681.00,1.0783
6680.00,1.0744
6679.00,1.0704
6678.00,1.0663
6677.00,1.0619
6676.00,1.0572
6675.00,1.0524
6674.00,1.0477
6673.00,1.0433
6672.00,1.0391
6671.00,1.0348
6670.00,1.0303
6669.00,1.0258
6668.00,1.0213
6667.00,1.0168
6666.00,1.0120
6665.00,1.0071
6664.00,1.0023
6663.00,0.9976
6662.00,0.9931
6661.00,0.9883
6660.00,0.9834
6659.00,0.9783
6658.00,0.9732
6657.00,0.9681
6656.00,0.9631
6655.00,0.9581
6654.00,0.9531
6653.00,0.9482
6652.00,0.9434
6651.00,0.9384
6650.00,0.9334
6649.00,0.9283
6648.00,0.9233
6647.00,0.9182
6646.00,0.9132
6645.00,0.9081
6644.00,0.9029
6643.00,0.8977
6642.00,0.8926
6641.00,0.8876
6640.00,0.8826
6639.00,0.8776
6638.00,0.8727
6637.00,0.8679
6636.00,0.8630
6635.00,0.8579
6634.00,0.8529
6633.00,0.8480
6632.00,0.8433
6631.00,0.8387
6630.00,0.8343
6629.00,0.8299
6628.00,0.8257
6627.00,0.8215
6626.00,0.8173
6625.00,0.8130
6624.00,0.8088
6623.00,0.8046
6622.00,0.8005
6621.00,0.7965
6620.00,0.7925
6619.00,0.7886
6618.00,0.7849
6617.00,0.7814
6616.00,0.7781
6615.00,0.7748
6614.00,0.7715
6613.00,0.7685
6612.00,0.7656
6611.00,0.7628
6610.00,0.7599
6609.00,0.7571
6608.00,0.7544
6607.00,0.7519
6606.00,0.7494
6605.00,0.7471
6604.00,0.7450
6603.00,0.7430
6602.00,0.7412
6601.00,0.7394
6600.00,0.7378
6599.00,0.7364
6598.00,0.7352
6597.00,0.7342
6596.00,0.7333
6595.00,0.7326
6594.00,0.7321
6593.00,0.7317
6592.00,0.7313
6591.00,0.7309
6590.00,0.7308
6589.00,0.7309
6588.00,0.7313
6587.00,0.7317
6586.00,0.7322
6585.00,0.7327
6584.00,0.7334
6583.00,0.7341
6582.00,0.7350
6581.00,0.7360
6580.00,0.7372
6579.00,0.7385
6578.00,0.7401
6577.00,0.7419
6576.00,0.7437
6575.00,0.7455
6574.00,0.7475
6573.00,0.7497
6572.00,0.7521
6571.00,0.7546
6570.00,0.7572
6569.00,0.7600
6568.00,0.7628
6567.00,0.7656
6566.00,0.7684
6565.00,0.7714
6564.00,0.7744
6563.00,0.7776
6562.00,0.7811
6561.00,0.7848
6560.00,0.7887
6559.00,0.7925
6558.00,0.7963
6557.00,0.8001
6556.00,0.8039
6555.00,0.8079
6554.00,0.8120
6553.00,0.8162
6552.00,0.8204
6551.00,0.8245
6550.00,0.8286
6549.00,0.8328
6548.00,0.8369
6547.00,0.8410
6546.00,0.8452
6545.00,0.8497
6544.00,0.8543
6543.00,0.8590
6542.00,0.8639
6541.00,0.8687
6540.00,0.8735
6539.00,0.8781
6538.00,0.8826
6537.00,0.8872
6536.00,0.8918
6535.00,0.8964
6534.00,0.9013
6533.00,0.9063
6532.00,0.9114
6531.00,0.9165
6530.00,0.9214
6529.00,0.9264
6528.00,0.9313
6527.00,0.9361
6526.00,0.9408
6525.00,0.9458
6524.00,0.9508
6523.00,0.9558
6522.00,0.9607
6521.00,0.9656
6520.00,0.9704
6519.00,0.9752
6518.00,0.9800
6517.00,0.9849
6516.00,0.9898
6515.00,0.9946
6514.00,0.9995
6513.00,1.0044
6512.00,1.0094
6511.00,1.0143
6510.00,1.0191
6509.00,1.0236
6508.00,1.0282
6507.00,1.0327
6506.00,1.0372
6505.00,1.0415
6504.00,1.0458
6503.00,1.0502
6502.00,1.0547
6501.00,1.0593
6500.00,1.0637
6499.00,1.0679
6498.00,1.0721
6497.00,1.0763
6496.00,1.0805
6495.00,1.0847
6494.00,1.0890
6493.00,1.0934
6492.00,1.0977
6491.00,1.1020
6490.00,1.1062
6489.00,1.1102
6488.00,1.1139
6487.00,1.1176
6486.00,1.1215
6485.00,1.1254
6484.00,1.1292
6483.00,1.1329
6482.00,1.1366
6481.00,1.1402
6480.00,1.1437
6479.00,1.1469
6478.00,1.1500
6477.00,1.1532
6476.00,1.1564
6475.00,1.1594
6474.00,1.1624
6473.00,1.1656
6472.00,1.1687
6471.00,1.1718
6470.00,1.1748
6469.00,1.1779
6468.00,1.1809
6467.00,1.1835
6466.00,1.1859
6465.00,1.1884
6464.00,1.1908
6463.00,1.1930
6462.00,1.1954
6461.00,1.1979
6460.00,1.2005
6459.00,1.2031
6458.00,1.2055
6457.00,1.2078
6456.00,1.2101
6455.00,1.2122
6454.00,1.2142
6453.00,1.2162
6452.00,1.2182
6451.00,1.2204
6450.00,1.2227
6449.00,1.2248
6448.00,1.2267
6447.00,1.2284
6446.00,1.2301
6445.00,1.2320
6444.00,1.2339
6443.00,1.2355
6442.00,1.2370
6441.00,1.2384
6440.00,1.2397
6439.00,1.2407
6438.00,1.2414
6437.00,1.2419
6436.00,1.2423
6435.00,1.2430
6434.00,1.2439
6433.00,1.2452
6432.00,1.2465
6431.00,1.2477
6430.00,1.2487
6429.00,1.2496
6428.00,1.2503
6427.00,1.2507
6426.00,1.2508
6425.00,1.2508
6424.00,1.2510
6423.00,1.2516
6422.00,1.2524
6421.00,1.2532
6420.00,1.2536
6419.00,1.2537
6418.00,1.2537
6417.00,1.2537
6416.00,1.2536
6415.00,1.2532
6414.00,1.2529
6413.00,1.2529
6412.00,1.2529
6411.00,1.2527
6410.00,1.2521
6409.00,1.2511
6408.00,1.2500
6407.00,1.2489
6406.00,1.2479
6405.00,1.2469
6404.00,1.2461
6403.00,1.2454
6402.00,1.2451
6401.00,1.2448
6400.00,1.2444
6399.00,1.2438
6398.00,1.2431
6397.00,1.2422
6396.00,1.2410
6395.00,1.2397
6394.00,1.2383
6393.00,1.2369
6392.00,1.2355
6391.00,1.2339
6390.00,1.2323
6389.00,1.2306
6388.00,1.2287
6387.00,1.2268
6386.00,1.2249
6385.00,1.2232
6384.00,1.2216
6383.00,1.2198
6382.00,1.2179
6381.00,1.2157
6380.00,1.2133
6379.00,1.2108
6378.00,1.2084
6377.00,1.2061
6376.00,1.2040
6375.00,1.2018
6374.00,1.1996
6373.00,1.1971
6372.00,1.1946
6371.00,1.1918
6370.00,1.1891
6369.00,1.1866
6368.00,1.1842
6367.00,1.1817
6366.00,1.1790
6365.00,1.1760
6364.00,1.1729
6363.00,1.1698
6362.00,1.1667
6361.00,1.1637
6360.00,1.1607
6359.00,1.1575
6358.00,1.1541
6357.00,1.1507
6356.00,1.1471
6355.00,1.1434
6354.00,1.1398
6353.00,1.1363
6352.00,1.1328
6351.00,1.1292
6350.00,1.1255
6349.00,1.1216
6348.00,1.1176
6347.00,1.1133
6346.00,1.1089
6345.00,1.1046
6344.00,1.1005
6343.00,1.0964
6342.00,1.0923
6341.00,1.0883
6340.00,1.0842
6339.00,1.0800
6338.00,1.0758
6337.00,1.0716
6336.00,1.0673
6335.00,1.0629
6334.00,1.0583
6333.00,1.0536
6332.00,1.0488
6331.00,1.0439
6330.00,1.0389
6329.00,1.0341
6328.00,1.0294
6327.00,1.0246
6326.00,1.0197
6325.00,1.0147
6324.00,1.0097
6323.00,1.0047
6322.00,0.9997
6321.00,0.9949
6320.00,0.9900
6319.00,0.9849
6318.00,0.9797
6317.00,0.9745
6316.00,0.9693
6315.00,0.9640
6314.00,0.9586
6313.00,0.9534
6312.00,0.9483
6311.00,0.9432
6310.00,0.9380
6309.00,0.9329
6308.00,0.9279
6307.00,0.9228
6306.00,0.9176
6305.00,0.9123
6304.00,0.9069
6303.00,0.9017
6302.00,0.8964
6301.00,0.8913
6300.00,0.8864
6299.00,0.8815
6298.00,0.8767
6297.00,0.8717
6296.00,0.8668
6295.00,0.8618
6294.00,0.8568
6293.00,0.8519
6292.00,0.8471
6291.00,0.8423
6290.00,0.8378
6289.00,0.8333
6288.00,0.8288
6287.00,0.8242
6286.00,0.8197
6285.00,0.8153
6284.00,0.8110
6283.00,0.8067
6282.00,0.8024
6281.00,0.7982
6280.00,0.7940
6279.00,0.7898
6278.00,0.7857
6277.00,0.7817
6276.00,0.7779
6275.00,0.7742
6274.00,0.7706
6273.00,0.7670
6272.00,0.7635
6271.00,0.7600
6270.00,0.7566
6269.00,0.7533
6268.00,0.7501
6267.00,0.7469
6266.00,0.7439
6265.00,0.7409
6264.00,0.7380
6263.00,0.7351
6262.00,0.7324
6261.00,0.7298
6260.00,0.7274
6259.00,0.7251
6258.00,0.7230
6257.00,0.7209
6256.00,0.7191
6255.00,0.7172
6254.00,0.7155
6253.00,0.7138
6252.00,0.7123
6251.00,0.7109
6250.00,0.7098
6249.00,0.7088
6248.00,0.7080
6247.00,0.7074
6246.00,0.7069
6245.00,0.7067
6244.00,0.7065
6243.00,0.7065
6242.00,0.7066
6241.00,0.7068
6240.00,0.7071
6239.00,0.7075
6238.00,0.7081
6237.00,0.7088
6236.00,0.7097
6235.00,0.7108
6234.00,0.7120
6233.00,0.7134
6232.00,0.7150
6231.00,0.7167
6230.00,0.7185
6229.00,0.7205
6228.00,0.7225
6227.00,0.7247
6226.00,0.7270
6225.00,0.7295
6224.00,0.7321
6223.00,0.7349
6222.00,0.7379
6221.00,0.7411
6220.00,0.7444
6219.00,0.7477
6218.00,0.7510
6217.00,0.7545
6216.00,0.7580
6215.00,0.7615
6214.00,0.7652
6213.00,0.7691
6212.00,0.7731
6211.00,0.7772
6210.00,0.7813
6209.00,0.7855
6208.00,0.7897
6207.00,0.7940
6206.00,0.7984
6205.00,0.8029
6204.00,0.8075
6203.00,0.8121
6202.00,0.8168
6201.00,0.8215
6200.00,0.8263
6199.00,0.8312
6198.00,0.8362
6197.00,0.8412
6196.00,0.8462
6195.00,0.8512
6194.00,0.8563
6193.00,0.8616
6192.00,0.8669
6191.00,0.8722
6190.00,0.8774
6189.00,0.8828
6188.00,0.8881
6187.00,0.8933
6186.00,0.8986
6185.00,0.9039
6184.00,0.9092
6183.00,0.9145
6182.00,0.9197
6181.00,0.9251
6180.00,0.9304
6179.00,0.9357
6178.00,0.9411
6177.00,0.9466
6176.00,0.9522
6175.00,0.9577
6174.00,0.9630
6173.00,0.9684
6172.00,0.9737
6171.00,0.9790
6170.00,0.9843
6169.00,0.9897
6168.00,0.9951
6167.00,1.0004
6166.00,1.0057
6165.00,1.0109
6164.00,1.0161
6163.00,1.0212
6162.00,1.0263
6161.00,1.0314
6160.00,1.0365
6159.00,1.0416
6158.00,1.0467
6157.00,1.0518
6156.00,1.0567
6155.00,1.0615
6154.00,1.0664
6153.00,1.0714
6152.00,1.0763
6151.00,1.0812
6150.00,1.0860
6149.00,1.0908
6148.00,1.0955
6147.00,1.1002
6146.00,1.1049
6145.00,1.1096
6144.00,1.1142
6143.00,1.1187
6142.00,1.1230
6141.00,1.1271
6140.00,1.1312
6139.00,1.1353
6138.00,1.1396
6137.00,1.1440
6136.00,1.1483
6135.00,1.1525
6134.00,1.1566
6133.00,1.1607
6132.00,1.1647
6131.00,1.1686
6130.00,1.1724
6129.00,1.1760
6128.00,1.1794
6127.00,1.1827
6126.00,1.1859
6125.00,1.1894
6124.00,1.1929
6123.00,1.1966
6122.00,1.2002
6121.00,1.2038
6120.00,1.2070
6119.00,1.2100
6118.00,1.2127
6117.00,1.2155
6116.00,1.2185
6115.00,1.2214
6114.00,1.2242
6113.00,1.2270
6112.00,1.2297
6111.00,1.2325
6110.00,1.2353
6109.00,1.2382
6108.00,1.2412
6107.00,1.2442
6106.00,1.2470
6105.00,1.2494
6104.00,1.2516
6103.00,1.2536
6102.00,1.2557
6101.00,1.2580
6100.00,1.2602
6099.00,1.2624
6098.00,1.2645
6097.00,1.2666
6096.00,1.2684
6095.00,1.2702
6094.00,1.2719
6093.00,1.2738
6092.00,1.2757
6091.00,1.2775
6090.00,1.2791
6089.00,1.2807
6088.00,1.2821
6087.00,1.2835
6086.00,1.2848
6085.00,1.2859
6084.00,1.2870
6083.00,1.2880
6082.00,1.2892
6081.00,1.2904
6080.00,1.2916
6079.00,1.2927
6078.00,1.2936
6077.00,1.2942
6076.00,1.2945
6075.00,1.2944
6074.00,1.2943
6073.00,1.2946
6072.00,1.2954
6071.00,1.2965
6070.00,1.2975
6069.00,1.2983
6068.00,1.2989
6067.00,1.2991
6066.00,1.2991
6065.00,1.2990
6064.00,1.2990
6063.00,1.2992
6062.00,1.2996
6061.00,1.3000
6060.00,1.3000
6059.00,1.2998
6058.00,1.2995
6057.00,1.2991
6056.00,1.2988
6055.00,1.2984
6054.00,1.2979
6053.00,1.2974
6052.00,1.2968
6051.00,1.2960
6050.00,1.2951
6049.00,1.2944
6048.00,1.2937
6047.00,1.2930
6046.00,1.2922
6045.00,1.2913
6044.00,1.2904
6043.00,1.2894
6042.00,1.2884
6041.00,1.2872
6040.00,1.2859
6039.00,1.2845
6038.00,1.2832
6037.00,1.2819
6036.00,1.2805
6035.00,1.2791
6034.00,1.2777
6033.00,1.2762
6032.00,1.2744
6031.00,1.2724
6030.00,1.2702
6029.00,1.2682
6028.00,1.2663
6027.00,1.2642
6026.00,1.2621
6025.00,1.2600
6024.00,1.2578
6023.00,1.2554
6022.00,1.2530
6021.00,1.2508
6020.00,1.2487
6019.00,1.2465
6018.00,1.2441
6017.00,1.2418
6016.00,1.2394
6015.00,1.2369
6014.00,1.2342
6013.00,1.2313
6012.00,1.2282
6011.00,1.2248
6010.00,1.2213
6009.00,1.2179
6008.00,1.2145
6007.00,1.2113
6006.00,1.2081
6005.00,1.2051
6004.00,1.2022
6003.00,1.1990
6002.00,1.1958
6001.00,1.1924
6000.00,1.1889
5999.00,1.1853
5998.00,1.1816
5997.00,1.1776
5996.00,1.1734
5995.00,1.1691
5994.00,1.1648
5993.00,1.1607
5992.00,1.1568
5991.00,1.1530
5990.00,1.1490
5989.00,1.1448
5988.00,1.1405
5987.00,1.1362
5986.00,1.1317
5985.00,1.1273
5984.00,1.1229
5983.00,1.1183
5982.00,1.1135
5981.00,1.1085
5980.00,1.1035
5979.00,1.0985
5978.00,1.0936
5977.00,1.0888
5976.00,1.0840
5975.00,1.0791
5974.00,1.0739
5973.00,1.0687
5972.00,1.0633
5971.00,1.0580
5970.00,1.0526
5969.00,1.0472
5968.00,1.0418
5967.00,1.0364
5966.00,1.0309
5965.00,1.0255
5964.00,1.0201
5963.00,1.0147
5962.00,1.0092
5961.00,1.0036
5960.00,0.9978
5959.00,0.9920
5958.00,0.9863
5957.00,0.9806
5956.00,0.9750
5955.00,0.9692
5954.00,0.9634
5953.00,0.9575
5952.00,0.9515
5951.00,0.9456
5950.00,0.9396
5949.00,0.9338
5948.00,0.9281
5947.00,0.9224
5946.00,0.9166
5945.00,0.9107
5944.00,0.9047
5943.00,0.8987
5942.00,0.8927
5941.00,0.8868
5940.00,0.8809
5939.00,0.8752
5938.00,0.8695
5937.00,0.8640
5936.00,0.8585
5935.00,0.8531
5934.00,0.8477
5933.00,0.8424
5932.00,0.8371
5931.00,0.8317
5930.00,0.8265
5929.00,0.8215
5928.00,0.8164
5927.00,0.8114
5926.00,0.8063
5925.00,0.8013
5924.00,0.7964
5923.00,0.7917
5922.00,0.7871
5921.00,0.7827
5920.00,0.7785
5919.00,0.7745
5918.00,0.7706
5917.00,0.7667
5916.00,0.7629
5915.00,0.7593
5914.00,0.7558
5913.00,0.7525
5912.00,0.7492
5911.00,0.7460
5910.00,0.7430
5909.00,0.7401
5908.00,0.7375
5907.00,0.7350
5906.00,0.7328
5905.00,0.7307
5904.00,0.7289
5903.00,0.7272
5902.00,0.7257
5901.00,0.7244
5900.00,0.7232
5899.00,0.7222
5898.00,0.7214
5897.00,0.7208
5896.00,0.7203
5895.00,0.7201
5894.00,0.7200
5893.00,0.7201
5892.00,0.7204
5891.00,0.7207
5890.00,0.7213
5889.00,0.7221
5888.00,0.7231
5887.00,0.7244
5886.00,0.7259
5885.00,0.7276
5884.00,0.7294
5883.00,0.7312
5882.00,0.7332
5881.00,0.7354
5880.00,0.7377
5879.00,0.7401
5878.00,0.7427
5877.00,0.7455
5876.00,0.7484
5875.00,0.7514
5874.00,0.7546
5873.00,0.7580
5872.00,0.7615
5871.00,0.7652
5870.00,0.7690
5869.00,0.7729
5868.00,0.7770
5867.00,0.7811
5866.00,0.7853
5865.00,0.7896
5864.00,0.7938
5863.00,0.7980
5862.00,0.8024
5861.00,0.8068
5860.00,0.8114
5859.00,0.8161
5858.00,0.8209
5857.00,0.8259
5856.00,0.8311
5855.00,0.8362
5854.00,0.8414
5853.00,0.8466
5852.00,0.8518
5851.00,0.8570
5850.00,0.8622
5849.00,0.8674
5848.00,0.8727
5847.00,0.8781
5846.00,0.8837
5845.00,0.8893
5844.00,0.8949
5843.00,0.9005
5842.00,0.9061
5841.00,0.9118
5840.00,0.9174
5839.00,0.9230
5838.00,0.9287
5837.00,0.9344
5836.00,0.9401
5835.00,0.9457
5834.00,0.9514
5833.00,0.9571
5832.00,0.9629
5831.00,0.9687
5830.00,0.9745
5829.00,0.9802
5828.00,0.9859
5827.00,0.9914
5826.00,0.9971
5825.00,1.0028
5824.00,1.0086
5823.00,1.0142
5822.00,1.0198
5821.00,1.0253
5820.00,1.0309
5819.00,1.0363
5818.00,1.0418
5817.00,1.0473
5816.00,1.0528
5815.00,1.0582
5814.00,1.0633
5813.00,1.0684
5812.00,1.0736
5811.00,1.0790
5810.00,1.0845
5809.00,1.0900
5808.00,1.0955
5807.00,1.1010
5806.00,1.1063
5805.00,1.1112
5804.00,1.1160
5803.00,1.1207
5802.00,1.1253
5801.00,1.1300
5800.00,1.1347
5799.00,1.1395
5798.00,1.1443
5797.00,1.1491
5796.00,1.1539
5795.00,1.1586
5794.00,1.1632
5793.00,1.1677
5792.00,1.1722
5791.00,1.1765
5790.00,1.1807
5789.00,1.1847
5788.00,1.1888
5787.00,1.1931
5786.00,1.1974
5785.00,1.2017
5784.00,1.2060
5783.00,1.2101
5782.00,1.2140
5781.00,1.2177
5780.00,1.2213
5779.00,1.2249
5778.00,1.2286
5777.00,1.2323
5776.00,1.2360
5775.00,1.2396
5774.00,1.2430
5773.00,1.2462
5772.00,1.2495
5771.00,1.2527
5770.00,1.2560
5769.00,1.2593
5768.00,1.2627
5767.00,1.2662
5766.00,1.2695
5765.00,1.2726
5764.00,1.2755
5763.00,1.2781
5762.00,1.2805
5761.00,1.2829
5760.00,1.2853
5759.00,1.2877
5758.00,1.2902
5757.00,1.2928
5756.00,1.2953
5755.00,1.2977
5754.00,1.3000
5753.00,1.3023
5752.00,1.3050
5751.00,1.3077
5750.00,1.3102
5749.00,1.3125
5748.00,1.3146
5747.00,1.3166
5746.00,1.3184
5745.00,1.3200
5744.00,1.3216
5743.00,1.3233
5742.00,1.3249
5741.00,1.3264
5740.00,1.3280
5739.00,1.3296
5738.00,1.3312
5737.00,1.3328
5736.00,1.3342
5735.00,1.3355
5734.00,1.3367
5733.00,1.3377
5732.00,1.3386
5731.00,1.3395
5730.00,1.3402
5729.00,1.3408
5728.00,1.3415
5727.00,1.3423
5726.00,1.3434
5725.00,1.3447
5724.00,1.3460
5723.00,1.3469
5722.00,1.3474
5721.00,1.3474
5720.00,1.3472
5719.00,1.3470
5718.00,1.3468
5717.00,1.3470
5716.00,1.3472
5715.00,1.3474
5714.00,1.3475
5713.00,1.3474
5712.00,1.3471
5711.00,1.3468
5710.00,1.3466
5709.00,1.3464
5708.00,1.3462
5707.00,1.3457
5706.00,1.3449
5705.00,1.3439
5704.00,1.3427
5703.00,1.3416
5702.00,1.3404
5701.00,1.3394
5700.00,1.3384
5699.00,1.3374
5698.00,1.3364
5697.00,1.3352
5696.00,1.3340
5695.00,1.3329
5694.00,1.3320
5693.00,1.3312
5692.00,1.3302
5691.00,1.3290
5690.00,1.3274
5689.00,1.3256
5688.00,1.3237
5687.00,1.3220
5686.00,1.3203
5685.00,1.3188
5684.00,1.3172
5683.00,1.3156
5682.00,1.3137
5681.00,1.3118
5680.00,1.3098
5679.00,1.3079
5678.00,1.3060
5677.00,1.3038
5676.00,1.3014
5675.00,1.2988
5674.00,1.2961
5673.00,1.2934
5672.00,1.2906
5671.00,1.2880
5670.00,1.2854
5669.00,1.2829
5668.00,1.2804
5667.00,1.2778
5666.00,1.2750
5665.00,1.2720
5664.00,1.2689
5663.00,1.2656
5662.00,1.2624
5661.00,1.2591
5660.00,1.2559
5659.00,1.2527
5658.00,1.2495
5657.00,1.2463
5656.00,1.2429
5655.00,1.2394
5654.00,1.2358
5653.00,1.2321
5652.00,1.2283
5651.00,1.2244
5650.00,1.2205
5649.00,1.2165
5648.00,1.2125
5647.00,1.2084
5646.00,1.2042
5645.00,1.2001
5644.00,1.1959
5643.00,1.1916
5642.00,1.1872
5641.00,1.1827
5640.00,1.1781
5639.00,1.1734
5638.00,1.1688
5637.00,1.1642
5636.00,1.1595
5635.00,1.1548
5634.00,1.1499
5633.00,1.1450
5632.00,1.1401
5631.00,1.1351
5630.00,1.1301
5629.00,1.1250
5628.00,1.1198
5627.00,1.1145
5626.00,1.1092
5625.00,1.1037
5624.00,1.0981
5623.00,1.0924
5622.00,1.0868
5621.00,1.0811
5620.00,1.0752
5619.00,1.0693
5618.00,1.0634
5617.00,1.0574
5616.00,1.0515
5615.00,1.0455
5614.00,1.0395
5613.00,1.0334
5612.00,1.0271
5611.00,1.0208
5610.00,1.0146
5609.00,1.0084
5608.00,1.0022
5607.00,0.9961
5606.00,0.9899
5605.00,0.9835
5604.00,0.9771
5603.00,0.9707
5602.00,0.9642
5601.00,0.9578
5600.00,0.9514
5599.00,0.9450
5598.00,0.9385
5597.00,0.9321
5596.00,0.9257
5595.00,0.9192
5594.00,0.9127
5593.00,0.9061
5592.00,0.8996
5591.00,0.8932
5590.00,0.8867
5589.00,0.8803
5588.00,0.8738
5587.00,0.8674
5586.00,0.8611
5585.00,0.8548
5584.00,0.8487
5583.00,0.8425
5582.00,0.8365
5581.00,0.8305
5580.00,0.8245
5579.00,0.8186
5578.00,0.8128
5577.00,0.8072
5576.00,0.8016
5575.00,0.7961
5574.00,0.7908
5573.00,0.7856
5572.00,0.7805
5571.00,0.7755
5570.00,0.7706
5569.00,0.7658
5568.00,0.7611
5567.00,0.7565
5566.00,0.7521
5565.00,0.7480
5564.00,0.7440
5563.00,0.7402
5562.00,0.7365
5561.00,0.7330
5560.00,0.7297
5559.00,0.7265
5558.00,0.7235
5557.00,0.7208
5556.00,0.7183
5555.00,0.7160
5554.00,0.7139
5553.00,0.7119
5552.00,0.7101
5551.00,0.7084
5550.00,0.7070
5549.00,0.7058
5548.00,0.7048
5547.00,0.7041
5546.00,0.7036
5545.00,0.7033
5544.00,0.7031
5543.00,0.7032
5542.00,0.7035
5541.00,0.7040
5540.00,0.7048
5539.00,0.7057
5538.00,0.7068
5537.00,0.7082
5536.00,0.7097
5535.00,0.7113
5534.00,0.7131
5533.00,0.7151
5532.00,0.7172
5531.00,0.7196
5530.00,0.7222
5529.00,0.7250
5528.00,0.7279
5527.00,0.7310
5526.00,0.7342
5525.00,0.7375
5524.00,0.7408
5523.00,0.7444
5522.00,0.7482
5521.00,0.7521
5520.00,0.7562
5519.00,0.7604
5518.00,0.7647
5517.00,0.7691
5516.00,0.7737
5515.00,0.7783
5514.00,0.7830
5513.00,0.7878
5512.00,0.7927
5511.00,0.7977
5510.00,0.8027
5509.00,0.8079
5508.00,0.8133
5507.00,0.8187
5506.00,0.8243
5505.00,0.8299
5504.00,0.8357
5503.00,0.8415
5502.00,0.8474
5501.00,0.8534
5500.00,0.8594
5499.00,0.8654
5498.00,0.8715
5497.00,0.8777
5496.00,0.8839
5495.00,0.8901
5494.00,0.8964
5493.00,0.9027
5492.00,0.9090
5491.00,0.9154
5490.00,0.9219
5489.00,0.9284
5488.00,0.9350
5487.00,0.9416
5486.00,0.9483
5485.00,0.9548
5484.00,0.9611
5483.00,0.9673
5482.00,0.9736
5481.00,0.9799
5480.00,0.9862
5479.00,0.9924
5478.00,0.9986
5477.00,1.0047
5476.00,1.0110
5475.00,1.0174
5474.00,1.0240
5473.00,1.0307
5472.00,1.0372
5471.00,1.0434
5470.00,1.0495
5469.00,1.0556
5468.00,1.0616
5467.00,1.0676
5466.00,1.0735
5465.00,1.0793
5464.00,1.0850
5463.00,1.0907
5462.00,1.0964
5461.00,1.1023
5460.00,1.1081
5459.00,1.1139
5458.00,1.1197
5457.00,1.1254
5456.00,1.1309
5455.00,1.1364
5454.00,1.1419
5453.00,1.1473
5452.00,1.1527
5451.00,1.1580
5450.00,1.1633
5449.00,1.1685
5448.00,1.1738
5447.00,1.1790
5446.00,1.1843
5445.00,1.1896
5444.00,1.1947
5443.00,1.1997
5442.00,1.2045
5441.00,1.2092
5440.00,1.2137
5439.00,1.2183
5438.00,1.2229
5437.00,1.2275
5436.00,1.2320
5435.00,1.2365
5434.00,1.2410
5433.00,1.2453
5432.00,1.2494
5431.00,1.2532
5430.00,1.2571
5429.00,1.2611
5428.00,1.2651
5427.00,1.2690
5426.00,1.2728
5425.00,1.2765
5424.00,1.2801
5423.00,1.2836
5422.00,1.2873
5421.00,1.2911
5420.00,1.2949
5419.00,1.2985
5418.00,1.3019
5417.00,1.3052
5416.00,1.3084
5415.00,1.3114
5414.00,1.3143
5413.00,1.3173
5412.00,1.3202
5411.00,1.3231
5410.00,1.3259
5409.00,1.3288
5408.00,1.3317
5407.00,1.3344
5406.00,1.3371
5405.00,1.3397
5404.00,1.3423
5403.00,1.3448
5402.00,1.3472
5401.00,1.3495
5400.00,1.3517
5399.00,1.3539
5398.00,1.3559
5397.00,1.3579
5396.00,1.3599
5395.00,1.3618
5394.00,1.3637
5393.00,1.3655
5392.00,1.3674
5391.00,1.3691
5390.00,1.3707
5389.00,1.3722
5388.00,1.3737
5387.00,1.3751
5386.00,1.3764
5385.00,1.3777
5384.00,1.3788
5383.00,1.3797
5382.00,1.3807
5381.00,1.3818
5380.00,1.3830
5379.00,1.3843
5378.00,1.3855
5377.00,1.3865
5376.00,1.3871
5375.00,1.3875
5374.00,1.3878
5373.00,1.3884
5372.00,1.3890
5371.00,1.3898
5370.00,1.3904
5369.00,1.3908
5368.00,1.3910
5367.00,1.3909
5366.00,1.3908
5365.00,1.3906
5364.00,1.3906
5363.00,1.3907
5362.00,1.3907
5361.00,1.3906
5360.00,1.3905
5359.00,1.3904
5358.00,1.3903
5357.00,1.3901
5356.00,1.3898
5355.00,1.3893
5354.00,1.3887
5353.00,1.3879
5352.00,1.3871
5351.00,1.3863
5350.00,1.3854
5349.00,1.3845
5348.00,1.3838
5347.00,1.3832
5346.00,1.3823
5345.00,1.3811
5344.00,1.3795
5343.00,1.3779
5342.00,1.3762
5341.00,1.3745
5340.00,1.3729
5339.00,1.3714
5338.00,1.3700
5337.00,1.3685
5336.00,1.3668
5335.00,1.3649
5334.00,1.3631
5333.00,1.3612
5332.00,1.3594
5331.00,1.3575
5330.00,1.3555
5329.00,1.3535
5328.00,1.3512
5327.00,1.3490
5326.00,1.3468
5325.00,1.3446
5324.00,1.3420
5323.00,1.3392
5322.00,1.3362
5321.00,1.3332
5320.00,1.3301
5319.00,1.3270
5318.00,1.3240
5317.00,1.3211
5316.00,1.3183
5315.00,1.3155
5314.00,1.3126
5313.00,1.3095
5312.00,1.3062
5311.00,1.3027
5310.00,1.2991
5309.00,1.2956
5308.00,1.2921
5307.00,1.2887
5306.00,1.2852
5305.00,1.2817
5304.00,1.2779
5303.00,1.2739
5302.00,1.2699
5301.00,1.2658
5300.00,1.2615
5299.00,1.2573
5298.00,1.2530
5297.00,1.2488
5296.00,1.2445
5295.00,1.2401
5294.00,1.2356
5293.00,1.2309
5292.00,1.2262
5291.00,1.2215
5290.00,1.2167
5289.00,1.2119
5288.00,1.2072
5287.00,1.2023
5286.00,1.1972
5285.00,1.1920
5284.00,1.1867
5283.00,1.1814
5282.00,1.1760
5281.00,1.1706
5280.00,1.1651
5279.00,1.1595
5278.00,1.1538
5277.00,1.1481
5276.00,1.1423
5275.00,1.1363
5274.00,1.1303
5273.00,1.1243
5272.00,1.1182
5271.00,1.1119
5270.00,1.1057
5269.00,1.0995
5268.00,1.0933
5267.00,1.0870
5266.00,1.0806
5265.00,1.0742
5264.00,1.0676
5263.00,1.0609
5262.00,1.0541
5261.00,1.0473
5260.00,1.0404
5259.00,1.0335
5258.00,1.0266
5257.00,1.0197
5256.00,1.0128
5255.00,1.0058
5254.00,0.9988
5253.00,0.9919
5252.00,0.9849
5251.00,0.9779
5250.00,0.9708
5249.00,0.9637
5248.00,0.9565
5247.00,0.9493
5246.00,0.9421
5245.00,0.9349
5244.00,0.9276
5243.00,0.9203
5242.00,0.9131
5241.00,0.9058
5240.00,0.8987
5239.00,0.8916
5238.00,0.8845
5237.00,0.8776
5236.00,0.8707
5235.00,0.8637
5234.00,0.8568
5233.00,0.8499
5232.00,0.8432
5231.00,0.8365
5230.00,0.8299
5229.00,0.8235
5228.00,0.8173
5227.00,0.8111
5226.00,0.8049
5225.00,0.7990
5224.00,0.7932
5223.00,0.7876
5222.00,0.7820
5221.00,0.7766
5220.00,0.7713
5219.00,0.7661
5218.00,0.7611
5217.00,0.7563
5216.00,0.7517
5215.00,0.7472
5214.00,0.7430
5213.00,0.7390
5212.00,0.7354
5211.00,0.7320
5210.00,0.7288
5209.00,0.7260
5208.00,0.7233
5207.00,0.7208
5206.00,0.7185
5205.00,0.7164
5204.00,0.7145
5203.00,0.7128
5202.00,0.7113
5201.00,0.7101
5200.00,0.7092
5199.00,0.7085
5198.00,0.7080
5197.00,0.7078
5196.00,0.7079
5195.00,0.7082
5194.00,0.7089
5193.00,0.7098
5192.00,0.7110
5191.00,0.7124
5190.00,0.7140
5189.00,0.7158
5188.00,0.7178
5187.00,0.7201
5186.00,0.7227
5185.00,0.7255
5184.00,0.7285
5183.00,0.7317
5182.00,0.7350
5181.00,0.7385
5180.00,0.7423
5179.00,0.7462
5178.00,0.7504
5177.00,0.7546
5176.00,0.7590
5175.00,0.7636
5174.00,0.7684
5173.00,0.7733
5172.00,0.7785
5171.00,0.7838
5170.00,0.7892
5169.00,0.7946
5168.00,0.8002
5167.00,0.8058
5166.00,0.8116
5165.00,0.8176
5164.00,0.8237
5163.00,0.8299
5162.00,0.8361
5161.00,0.8425
5160.00,0.8489
5159.00,0.8554
5158.00,0.8620
5157.00,0.8687
5156.00,0.8753
5155.00,0.8820
5154.00,0.8887
5153.00,0.8955
5152.00,0.9024
5151.00,0.9094
5150.00,0.9164
5149.00,0.9235
5148.00,0.9306
5147.00,0.9377
5146.00,0.9448
5145.00,0.9520
5144.00,0.9592
5143.00,0.9663
5142.00,0.9735
5141.00,0.9808
5140.00,0.9880
5139.00,0.9951
5138.00,1.0022
5137.00,1.0093
5136.00,1.0164
5135.00,1.0235
5134.00,1.0305
5133.00,1.0376
5132.00,1.0445
5131.00,1.0515
5130.00,1.0585
5129.00,1.0656
5128.00,1.0726
5127.00,1.0796
5126.00,1.0865
5125.00,1.0932
5124.00,1.0998
5123.00,1.1064
5122.00,1.1130
5121.00,1.1196
5120.00,1.1263
5119.00,1.1329
5118.00,1.1395
5117.00,1.1460
5116.00,1.1525
5115.00,1.1588
5114.00,1.1650
5113.00,1.1712
5112.00,1.1772
5111.00,1.1833
5110.00,1.1894
5109.00,1.1955
5108.00,1.2014
5107.00,1.2072
5106.00,1.2129
5105.00,1.2186
5104.00,1.2243
5103.00,1.2300
5102.00,1.2356
5101.00,1.2412
5100.00,1.2466
5099.00,1.2518
5098.00,1.2569
5097.00,1.2620
5096.00,1.2670
5095.00,1.2720
5094.00,1.2770
5093.00,1.2821
5092.00,1.2870
5091.00,1.2919
5090.00,1.2965
5089.00,1.3009
5088.00,1.3052
5087.00,1.3094
5086.00,1.3137
5085.00,1.3180
5084.00,1.3223
5083.00,1.3266
5082.00,1.3309
5081.00,1.3350
5080.00,1.3391
5079.00,1.3430
5078.00,1.3469
5077.00,1.3508
5076.00,1.3546
5075.00,1.3584
5074.00,1.3621
5073.00,1.3657
5072.00,1.3690
5071.00,1.3722
5070.00,1.3753
5069.00,1.3784
5068.00,1.3814
5067.00,1.3843
5066.00,1.3872
5065.00,1.3901
5064.00,1.3930
5063.00,1.3959
5062.00,1.3988
5061.00,1.4016
5060.00,1.4044
5059.00,1.4071
5058.00,1.4098
5057.00,1.4124
5056.00,1.4148
5055.00,1.4171
5054.00,1.4192
5053.00,1.4212
5052.00,1.4233
5051.00,1.4252
5050.00,1.4271
5049.00,1.4290
5048.00,1.4308
5047.00,1.4326
5046.00,1.4345
5045.00,1.4363
5044.00,1.4379
5043.00,1.4392
5042.00,1.4403
5041.00,1.4414
5040.00,1.4427
5039.00,1.4440
5038.00,1.4453
5037.00,1.4465
5036.00,1.4475
5035.00,1.4483
5034.00,1.4492
5033.00,1.4501
5032.00,1.4512
5031.00,1.4523
5030.00,1.4533
5029.00,1.4543
5028.00,1.4552
5027.00,1.4560
5026.00,1.4566
5025.00,1.4571
5024.00,1.4573
5023.00,1.4574
5022.00,1.4575
5021.00,1.4576
5020.00,1.4577
5019.00,1.4577
5018.00,1.4578
5017.00,1.4578
5016.00,1.4577
5015.00,1.4576
5014.00,1.4573
5013.00,1.4570
5012.00,1.4567
5011.00,1.4564
5010.00,1.4561
5009.00,1.4557
5008.00,1.4551
5007.00,1.4542
5006.00,1.4532
5005.00,1.4522
5004.00,1.4514
5003.00,1.4506
5002.00,1.4497
5001.00,1.4486
5000.00,1.4473
4999.00,1.4461
4998.00,1.4449
4997.00,1.4437
4996.00,1.4426
4995.00,1.4414
4994.00,1.4401
4993.00,1.4384
4992.00,1.4365
4991.00,1.4343
4990.00,1.4322
4989.00,1.4302
4988.00,1.4285
4987.00,1.4269
4986.00,1.4254
4985.00,1.4236
4984.00,1.4215
4983.00,1.4192
4982.00,1.4169
4981.00,1.4145
4980.00,1.4121
4979.00,1.4095
4978.00,1.4068
4977.00,1.4041
4976.00,1.4013
4975.00,1.3984
4974.00,1.3955
4973.00,1.3926
4972.00,1.3896
4971.00,1.3867
4970.00,1.3838
4969.00,1.3807
4968.00,1.3776
4967.00,1.3743
4966.00,1.3710
4965.00,1.3675
4964.00,1.3640
4963.00,1.3602
4962.00,1.3563
4961.00,1.3524
4960.00,1.3485
4959.00,1.3446
4958.00,1.3407
4957.00,1.3368
4956.00,1.3328
4955.00,1.3288
4954.00,1.3246
4953.00,1.3204
4952.00,1.3161
4951.00,1.3116
4950.00,1.3071
4949.00,1.3024
4948.00,1.2977
4947.00,1.2929
4946.00,1.2880
4945.00,1.2830
4944.00,1.2779
4943.00,1.2727
4942.00,1.2675
4941.00,1.2622
4940.00,1.2567
4939.00,1.2511
4938.00,1.2454
4937.00,1.2398
4936.00,1.2342
4935.00,1.2286
4934.00,1.2230
4933.00,1.2173
4932.00,1.2113
4931.00,1.2052
4930.00,1.1991
4929.00,1.1929
4928.00,1.1867
4927.00,1.1803
4926.00,1.1737
4925.00,1.1671
4924.00,1.1604
4923.00,1.1536
4922.00,1.1469
4921.00,1.1401
4920.00,1.1332
4919.00,1.1261
4918.00,1.1190
4917.00,1.1118
4916.00,1.1046
4915.00,1.0973
4914.00,1.0899
4913.00,1.0825
4912.00,1.0749
4911.00,1.0673
4910.00,1.0596
4909.00,1.0519
4908.00,1.0441
4907.00,1.0363
4906.00,1.0284
4905.00,1.0204
4904.00,1.0123
4903.00,1.0043
4902.00,0.9962
4901.00,0.9882
4900.00,0.9801
4899.00,0.9719
4898.00,0.9637
4897.00,0.9555
4896.00,0.9472
4895.00,0.9391
4894.00,0.9310
4893.00,0.9229
4892.00,0.9148
4891.00,0.9065
4890.00,0.8983
4889.00,0.8901
4888.00,0.8820
4887.00,0.8741
4886.00,0.8662
4885.00,0.8584
4884.00,0.8508
4883.00,0.8432
4882.00,0.8356
4881.00,0.8281
4880.00,0.8207
4879.00,0.8134
4878.00,0.8062
4877.00,0.7991
4876.00,0.7923
4875.00,0.7856
4874.00,0.7791
4873.00,0.7728
4872.00,0.7667
4871.00,0.7609
4870.00,0.7552
4869.00,0.7499
4868.00,0.7447
4867.00,0.7397
4866.00,0.7349
4865.00,0.7303
4864.00,0.7261
4863.00,0.7221
4862.00,0.7184
4861.00,0.7150
4860.00,0.7119
4859.00,0.7091
4858.00,0.7066
4857.00,0.7044
4856.00,0.7025
4855.00,0.7009
4854.00,0.6996
4853.00,0.6986
4852.00,0.6979
4851.00,0.6975
4850.00,0.6974
4849.00,0.6977
4848.00,0.6983
4847.00,0.6991
4846.00,0.7002
4845.00,0.7017
4844.00,0.7034
4843.00,0.7053
4842.00,0.7076
4841.00,0.7102
4840.00,0.7130
4839.00,0.7160
4838.00,0.7193
4837.00,0.7229
4836.00,0.7268
4835.00,0.7308
4834.00,0.7352
4833.00,0.7397
4832.00,0.7444
4831.00,0.7494
4830.00,0.7545
4829.00,0.7598
4828.00,0.7653
4827.00,0.7710
4826.00,0.7769
4825.00,0.7829
4824.00,0.7891
4823.00,0.7954
4822.00,0.8019
4821.00,0.8085
4820.00,0.8152
4819.00,0.8221
4818.00,0.8291
4817.00,0.8363
4816.00,0.8435
4815.00,0.8508
4814.00,0.8582
4813.00,0.8657
4812.00,0.8733
4811.00,0.8809
4810.00,0.8886
4809.00,0.8963
4808.00,0.9041
4807.00,0.9121
4806.00,0.9201
4805.00,0.9282
4804.00,0.9363
4803.00,0.9443
4802.00,0.9524
4801.00,0.9604
4800.00,0.9685
4799.00,0.9766
4798.00,0.9848
4797.00,0.9929
4796.00,1.0011
4795.00,1.0092
4794.00,1.0173
4793.00,1.0254
4792.00,1.0335
4791.00,1.0415
4790.00,1.0496
4789.00,1.0576
4788.00,1.0655
4787.00,1.0733
4786.00,1.0811
4785.00,1.0889
4784.00,1.0968
4783.00,1.1046
4782.00,1.1124
4781.00,1.1201
4780.00,1.1278
4779.00,1.1355
4778.00,1.1430
4777.00,1.1505
4776.00,1.1579
4775.00,1.1653
4774.00,1.1727
4773.00,1.1800
4772.00,1.1873
4771.00,1.1946
4770.00,1.2017
4769.00,1.2086
4768.00,1.2154
4767.00,1.2220
4766.00,1.2286
4765.00,1.2352
4764.00,1.2418
4763.00,1.2484
4762.00,1.2550
4761.00,1.2617
4760.00,1.2682
4759.00,1.2746
4758.00,1.2808
4757.00,1.2869
4756.00,1.2929
4755.00,1.2988
4754.00,1.3049
4753.00,1.3109
4752.00,1.3168
4751.00,1.3224
4750.00,1.3279
4749.00,1.3332
4748.00,1.3384
4747.00,1.3436
4746.00,1.3488
4745.00,1.3539
4744.00,1.3590
4743.00,1.3641
4742.00,1.3691
4741.00,1.3742
4740.00,1.3792
4739.00,1.3841
4738.00,1.3887
4737.00,1.3932
4736.00,1.3976
4735.00,1.4019
4734.00,1.4063
4733.00,1.4106
4732.00,1.4148
4731.00,1.4189
4730.00,1.4229
4729.00,1.4270
4728.00,1.4309
4727.00,1.4349
4726.00,1.4388
4725.00,1.4426
4724.00,1.4463
4723.00,1.4498
4722.00,1.4532
4721.00,1.4565
4720.00,1.4597
4719.00,1.4628
4718.00,1.4660
4717.00,1.4692
4716.00,1.4722
4715.00,1.4751
4714.00,1.4778
4713.00,1.4805
4712.00,1.4833
4711.00,1.4860
4710.00,1.4887
4709.00,1.4914
4708.00,1.4940
4707.00,1.4964
4706.00,1.4986
4705.00,1.5006
4704.00,1.5026
4703.00,1.5045
4702.00,1.5065
4701.00,1.5085
4700.00,1.5105
4699.00,1.5125
4698.00,1.5143
4697.00,1.5160
4696.00,1.5176
4695.00,1.5192
4694.00,1.5208
4693.00,1.5223
4692.00,1.5238
4691.00,1.5251
4690.00,1.5265
4689.00,1.5279
4688.00,1.5293
4687.00,1.5308
4686.00,1.5320
4685.00,1.5331
4684.00,1.5339
4683.00,1.5347
4682.00,1.5353
4681.00,1.5360
4680.00,1.5366
4679.00,1.5372
4678.00,1.5379
4677.00,1.5386
4676.00,1.5392
4675.00,1.5397
4674.00,1.5400
4673.00,1.5402
4672.00,1.5401
4671.00,1.5400
4670.00,1.5399
4669.00,1.5399
4668.00,1.5399
4667.00,1.5399
4666.00,1.5397
4665.00,1.5393
4664.00,1.5388
4663.00,1.5382
4662.00,1.5377
4661.00,1.5374
4660.00,1.5369
4659.00,1.5363
4658.00,1.5354
4657.00,1.5344
4656.00,1.5333
4655.00,1.5322
4654.00,1.5311
4653.00,1.5301
4652.00,1.5292
4651.00,1.5282
4650.00,1.5272
4649.00,1.5259
4648.00,1.5245
4647.00,1.5230
4646.00,1.5215
4645.00,1.5199
4644.00,1.5182
4643.00,1.5164
4642.00,1.5146
4641.00,1.5128
4640.00,1.5111
4639.00,1.5092
4638.00,1.5071
4637.00,1.5048
4636.00,1.5023
4635.00,1.4996
4634.00,1.4969
4633.00,1.4943
4632.00,1.4918
4631.00,1.4894
4630.00,1.4870
4629.00,1.4845
4628.00,1.4818
4627.00,1.4790
4626.00,1.4761
4625.00,1.4731
4624.00,1.4702
4623.00,1.4672
4622.00,1.4641
4621.00,1.4610
4620.00,1.4576
4619.00,1.4542
4618.00,1.4507
4617.00,1.4472
4616.00,1.4437
4615.00,1.4400
4614.00,1.4360
4613.00,1.4319
4612.00,1.4277
4611.00,1.4237
4610.00,1.4198
4609.00,1.4158
4608.00,1.4117
4607.00,1.4074
4606.00,1.4029
4605.00,1.3984
4604.00,1.3938
4603.00,1.3891
4602.00,1.3843
4601.00,1.3793
4600.00,1.3744
4599.00,1.3694
4598.00,1.3644
4597.00,1.3592
4596.00,1.3538
4595.00,1.3483
4594.00,1.3427
4593.00,1.3370
4592.00,1.3313
4591.00,1.3255
4590.00,1.3196
4589.00,1.3137
4588.00,1.3076
4587.00,1.3014
4586.00,1.2949
4585.00,1.2883
4584.00,1.2816
4583.00,1.2749
4582.00,1.2683
4581.00,1.2618
4580.00,1.2553
4579.00,1.2487
4578.00,1.2417
4577.00,1.2346
4576.00,1.2274
4575.00,1.2201
4574.00,1.2128
4573.00,1.2053
4572.00,1.1977
4571.00,1.1899
4570.00,1.1820
4569.00,1.1741
4568.00,1.1662
4567.00,1.1583
4566.00,1.1502
4565.00,1.1420
4564.00,1.1337
4563.00,1.1252
4562.00,1.1167
4561.00,1.1081
4560.00,1.0995
4559.00,1.0907
4558.00,1.0818
4557.00,1.0729
4556.00,1.0639
4555.00,1.0550
4554.00,1.0460
4553.00,1.0370
4552.00,1.0280
4551.00,1.0189
4550.00,1.0097
4549.00,1.0006
4548.00,0.9914
4547.00,0.9821
4546.00,0.9729
4545.00,0.9635
4544.00,0.9542
4543.00,0.9448
4542.00,0.9355
4541.00,0.9263
4540.00,0.9172
4539.00,0.9081
4538.00,0.8991
4537.00,0.8902
4536.00,0.8813
4535.00,0.8725
4534.00,0.8637
4533.00,0.8551
4532.00,0.8465
4531.00,0.8381
4530.00,0.8299
4529.00,0.8218
4528.00,0.8139
4527.00,0.8062
4526.00,0.7987
4525.00,0.7915
4524.00,0.7846
4523.00,0.7779
4522.00,0.7714
4521.00,0.7652
4520.00,0.7592
4519.00,0.7535
4518.00,0.7481
4517.00,0.7431
4516.00,0.7384
4515.00,0.7341
4514.00,0.7301
4513.00,0.7264
4512.00,0.7231
4511.00,0.7201
4510.00,0.7176
4509.00,0.7154
4508.00,0.7136
4507.00,0.7122
4506.00,0.7112
4505.00,0.7106
4504.00,0.7103
4503.00,0.7104
4502.00,0.7109
4501.00,0.7119
4500.00,0.7132
4499.00,0.7149
4498.00,0.7169
4497.00,0.7193
4496.00,0.7220
4495.00,0.7251
4494.00,0.7285
4493.00,0.7322
4492.00,0.7362
4491.00,0.7406
4490.00,0.7452
4489.00,0.7501
4488.00,0.7553
4487.00,0.7607
4486.00,0.7665
4485.00,0.7726
4484.00,0.7789
4483.00,0.7854
4482.00,0.7921
4481.00,0.7990
4480.00,0.8061
4479.00,0.8134
4478.00,0.8209
4477.00,0.8286
4476.00,0.8364
4475.00,0.8444
4474.00,0.8524
4473.00,0.8606
4472.00,0.8690
4471.00,0.8774
4470.00,0.8860
4469.00,0.8948
4468.00,0.9036
4467.00,0.9125
4466.00,0.9215
4465.00,0.9305
4464.00,0.9396
4463.00,0.9487
4462.00,0.9578
4461.00,0.9669
4460.00,0.9761
4459.00,0.9853
4458.00,0.9946
4457.00,1.0040
4456.00,1.0134
4455.00,1.0227
4454.00,1.0321
4453.00,1.0414
4452.00,1.0508
4451.00,1.0601
4450.00,1.0694
4449.00,1.0786
4448.00,1.0878
4447.00,1.0969
4446.00,1.1059
4445.00,1.1150
4444.00,1.1240
4443.00,1.1330
4442.00,1.1421
4441.00,1.1511
4440.00,1.1600
4439.00,1.1688
4438.00,1.1776
4437.00,1.1864
4436.00,1.1951
4435.00,1.2038
4434.00,1.2123
4433.00,1.2207
4432.00,1.2290
4431.00,1.2372
4430.00,1.2454
4429.00,1.2536
4428.00,1.2618
4427.00,1.2699
4426.00,1.2777
4425.00,1.2855
4424.00,1.2931
4423.00,1.3008
4422.00,1.3084
4421.00,1.3159
4420.00,1.3233
4419.00,1.3305
4418.00,1.3376
4417.00,1.3446
4416.00,1.3515
4415.00,1.3583
4414.00,1.3650
4413.00,1.3717
4412.00,1.3783
4411.00,1.3848
4410.00,1.3911
4409.00,1.3973
4408.00,1.4034
4407.00,1.4096
4406.00,1.4158
4405.00,1.4218
4404.00,1.4278
4403.00,1.4337
4402.00,1.4394
4401.00,1.4450
4400.00,1.4504
4399.00,1.4557
4398.00,1.4608
4397.00,1.4658
4396.00,1.4709
4395.00,1.4759
4394.00,1.4810
4393.00,1.4859
4392.00,1.4907
4391.00,1.4953
4390.00,1.4997
4389.00,1.5041
4388.00,1.5086
4387.00,1.5130
4386.00,1.5174
4385.00,1.5216
4384.00,1.5258
4383.00,1.5299
4382.00,1.5339
4381.00,1.5378
4380.00,1.5417
4379.00,1.5455
4378.00,1.5492
4377.00,1.5529
4376.00,1.5564
4375.00,1.5598
4374.00,1.5631
4373.00,1.5663
4372.00,1.5694
4371.00,1.5724
4370.00,1.5752
4369.00,1.5780
4368.00,1.5807
4367.00,1.5835
4366.00,1.5864
4365.00,1.5891
4364.00,1.5917
4363.00,1.5940
4362.00,1.5963
4361.00,1.5986
4360.00,1.6009
4359.00,1.6032
4358.00,1.6053
4357.00,1.6073
4356.00,1.6093
4355.00,1.6113
4354.00,1.6134
4353.00,1.6153
4352.00,1.6169
4351.00,1.6185
4350.00,1.6199
4349.00,1.6214
4348.00,1.6231
4347.00,1.6247
4346.00,1.6264
4345.00,1.6280
4344.00,1.6294
4343.00,1.6305
4342.00,1.6314
4341.00,1.6324
4340.00,1.6335
4339.00,1.6347
4338.00,1.6357
4337.00,1.6366
4336.00,1.6372
4335.00,1.6376
4334.00,1.6382
4333.00,1.6388
4332.00,1.6395
4331.00,1.6399
4330.00,1.6400
4329.00,1.6399
4328.00,1.6399
4327.00,1.6401
4326.00,1.6405
4325.00,1.6409
4324.00,1.6412
4323.00,1.6413
4322.00,1.6413
4321.00,1.6411
4320.00,1.6407
4319.00,1.6403
4318.00,1.6398
4317.00,1.6392
4316.00,1.6387
4315.00,1.6381
4314.00,1.6375
4313.00,1.6367
4312.00,1.6359
4311.00,1.6350
4310.00,1.6342
4309.00,1.6334
4308.00,1.6325
4307.00,1.6314
4306.00,1.6301
4305.00,1.6287
4304.00,1.6273
4303.00,1.6260
4302.00,1.6250
4301.00,1.6240
4300.00,1.6230
4299.00,1.6217
4298.00,1.6200
4297.00,1.6179
4296.00,1.6156
4295.00,1.6134
4294.00,1.6112
4293.00,1.6091
4292.00,1.6071
4291.00,1.6050
4290.00,1.6029
4289.00,1.6007
4288.00,1.5986
4287.00,1.5965
4286.00,1.5944
4285.00,1.5921
4284.00,1.5896
4283.00,1.5870
4282.00,1.5843
4281.00,1.5815
4280.00,1.5786
4279.00,1.5757
4278.00,1.5727
4277.00,1.5695
4276.00,1.5661
4275.00,1.5626
4274.00,1.5591
4273.00,1.5557
4272.00,1.5523
4271.00,1.5488
4270.00,1.5452
4269.00,1.5416
4268.00,1.5378
4267.00,1.5339
4266.00,1.5299
4265.00,1.5258
4264.00,1.5216
4263.00,1.5172
4262.00,1.5127
4261.00,1.5081
4260.00,1.5034
4259.00,1.4986
4258.00,1.4938
4257.00,1.4889
4256.00,1.4839
4255.00,1.4789
4254.00,1.4739
4253.00,1.4689
4252.00,1.4637
4251.00,1.4582
4250.00,1.4525
4249.00,1.4467
4248.00,1.4408
4247.00,1.4348
4246.00,1.4288
4245.00,1.4228
4244.00,1.4168
4243.00,1.4106
4242.00,1.4043
4241.00,1.3978
4240.00,1.3910
4239.00,1.3841
4238.00,1.3772
4237.00,1.3703
4236.00,1.3634
4235.00,1.3565
4234.00,1.3494
4233.00,1.3421
4232.00,1.3347
4231.00,1.3272
4230.00,1.3196
4229.00,1.3119
4228.00,1.3042
4227.00,1.2963
4226.00,1.2883
4225.00,1.2802
4224.00,1.2720
4223.00,1.2638
4222.00,1.2555
4221.00,1.2472
4220.00,1.2387
4219.00,1.2301
4218.00,1.2214
4217.00,1.2127
4216.00,1.2038
4215.00,1.1948
4214.00,1.1856
4213.00,1.1763
4212.00,1.1669
4211.00,1.1574
4210.00,1.1479
4209.00,1.1382
4208.00,1.1283
4207.00,1.1183
4206.00,1.1082
4205.00,1.0981
4204.00,1.0879
4203.00,1.0777
4202.00,1.0675
4201.00,1.0572
4200.00,1.0467
4199.00,1.0362
4198.00,1.0257
4197.00,1.0152
4196.00,1.0048
4195.00,0.9943
4194.00,0.9840
4193.00,0.9736
4192.00,0.9633
4191.00,0.9532
4190.00,0.9431
4189.00,0.9332
4188.00,0.9234
4187.00,0.9136
4186.00,0.9040
4185.00,0.8944
4184.00,0.8851
4183.00,0.8759
4182.00,0.8670
4181.00,0.8583
4180.00,0.8498
4179.00,0.8414
4178.00,0.8333
4177.00,0.8254
4176.00,0.8178
4175.00,0.8105
4174.00,0.8036
4173.00,0.7971
4172.00,0.7908
4171.00,0.7849
4170.00,0.7793
4169.00,0.7742
4168.00,0.7695
4167.00,0.7651
4166.00,0.7612
4165.00,0.7577
4164.00,0.7546
4163.00,0.7520
4162.00,0.7498
4161.00,0.7481
4160.00,0.7469
4159.00,0.7461
4158.00,0.7458
4157.00,0.7459
4156.00,0.7465
4155.00,0.7475
4154.00,0.7490
4153.00,0.7509
4152.00,0.7532
4151.00,0.7559
4150.00,0.7590
4149.00,0.7625
4148.00,0.7663
4147.00,0.7705
4146.00,0.7751
4145.00,0.7800
4144.00,0.7853
4143.00,0.7908
4142.00,0.7967
4141.00,0.8029
4140.00,0.8094
4139.00,0.8161
4138.00,0.8232
4137.00,0.8305
4136.00,0.8382
4135.00,0.8461
4134.00,0.8542
4133.00,0.8626
4132.00,0.8711
4131.00,0.8800
4130.00,0.8889
4129.00,0.8981
4128.00,0.9073
4127.00,0.9166
4126.00,0.9260
4125.00,0.9355
4124.00,0.9451
4123.00,0.9549
4122.00,0.9648
4121.00,0.9747
4120.00,0.9847
4119.00,0.9948
4118.00,1.0050
4117.00,1.0152
4116.00,1.0254
4115.00,1.0357
4114.00,1.0461
4113.00,1.0564
4112.00,1.0668
4111.00,1.0771
4110.00,1.0874
4109.00,1.0978
4108.00,1.1081
4107.00,1.1185
4106.00,1.1289
4105.00,1.1393
4104.00,1.1495
4103.00,1.1597
4102.00,1.1699
4101.00,1.1800
4100.00,1.1901
4099.00,1.2002
4098.00,1.2102
4097.00,1.2201
4096.00,1.2299
4095.00,1.2397
4094.00,1.2494
4093.00,1.2590
4092.00,1.2686
4091.00,1.2781
4090.00,1.2875
4089.00,1.2969
4088.00,1.3062
4087.00,1.3153
4086.00,1.3242
4085.00,1.3331
4084.00,1.3419
4083.00,1.3507
4082.00,1.3593
4081.00,1.3678
4080.00,1.3761
4079.00,1.3843
4078.00,1.3923
4077.00,1.4002
4076.00,1.4080
4075.00,1.4158
4074.00,1.4235
4073.00,1.4313
4072.00,1.4390
4071.00,1.4465
4070.00,1.4538
4069.00,1.4610
4068.00,1.4681
4067.00,1.4751
4066.00,1.4822
4065.00,1.4891
4064.00,1.4960
4063.00,1.5027
4062.00,1.5093
4061.00,1.5160
4060.00,1.5227
4059.00,1.5293
4058.00,1.5356
4057.00,1.5417
4056.00,1.5476
4055.00,1.5535
4054.00,1.5594
4053.00,1.5651
4052.00,1.5706
4051.00,1.5760
4050.00,1.5813
4049.00,1.5867
4048.00,1.5921
4047.00,1.5976
4046.00,1.6028
4045.00,1.6078
4044.00,1.6124
4043.00,1.6168
4042.00,1.6212
4041.00,1.6257
4040.00,1.6302
4039.00,1.6347
4038.00,1.6393
4037.00,1.6438
4036.00,1.6482
4035.00,1.6523
4034.00,1.6561
4033.00,1.6598
4032.00,1.6638
4031.00,1.6678
4030.00,1.6719
4029.00,1.6759
4028.00,1.6795
4027.00,1.6829
4026.00,1.6862
4025.00,1.6895
4024.00,1.6927
4023.00,1.6959
4022.00,1.6989
4021.00,1.7018
4020.00,1.7047
4019.00,1.7075
4018.00,1.7102
4017.00,1.7129
4016.00,1.7155
4015.00,1.7182
4014.00,1.7210
4013.00,1.7238
4012.00,1.7265
4011.00,1.7290
4010.00,1.7311
4009.00,1.7331
4008.00,1.7350
4007.00,1.7369
4006.00,1.7390
4005.00,1.7410
4004.00,1.7428
4003.00,1.7443
4002.00,1.7458
4001.00,1.7474
4000.00,1.7491
3999.00,1.7508
3998.00,1.7523
3997.00,1.7536
3996.00,1.7548
3995.00,1.7559
3994.00,1.7570
3993.00,1.7582
3992.00,1.7593
3991.00,1.7603
3990.00,1.7613
3989.00,1.7622
3988.00,1.7630
3987.00,1.7638
3986.00,1.7645
3985.00,1.7651
3984.00,1.7657
3983.00,1.7661
3982.00,1.7664
3981.00,1.7667
3980.00,1.7670
3979.00,1.7672
3978.00,1.7675
3977.00,1.7680
3976.00,1.7684
3975.00,1.7686
3974.00,1.7685
3973.00,1.7681
3972.00,1.7675
3971.00,1.7668
3970.00,1.7662
3969.00,1.7656
3968.00,1.7650
3967.00,1.7646
3966.00,1.7643
3965.00,1.7639
3964.00,1.7633
3963.00,1.7625
3962.00,1.7615
3961.00,1.7603
3960.00,1.7590
3959.00,1.7576
3958.00,1.7563
3957.00,1.7549
3956.00,1.7538
3955.00,1.7527
3954.00,1.7518
3953.00,1.7507
3952.00,1.7493
3951.00,1.7477
3950.00,1.7460
3949.00,1.7442
3948.00,1.7424
3947.00,1.7404
3946.00,1.7383
3945.00,1.7360
3944.00,1.7336
3943.00,1.7311
3942.00,1.7286
3941.00,1.7261
3940.00,1.7237
3939.00,1.7212
3938.00,1.7187
3937.00,1.7162
3936.00,1.7136
3935.00,1.7109
3934.00,1.7081
3933.00,1.7053
3932.00,1.7024
3931.00,1.6992
3930.00,1.6956
3929.00,1.6917
3928.00,1.6877
3927.00,1.6837
3926.00,1.6799
3925.00,1.6761
3924.00,1.6723
3923.00,1.6684
3922.00,1.6644
3921.00,1.6603
3920.00,1.6560
3919.00,1.6517
3918.00,1.6474
3917.00,1.6428
3916.00,1.6381
3915.00,1.6333
3914.00,1.6285
3913.00,1.6237
3912.00,1.6190
3911.00,1.6142
3910.00,1.6093
3909.00,1.6042
3908.00,1.5991
3907.00,1.5940
3906.00,1.5888
3905.00,1.5832
3904.00,1.5771
3903.00,1.5708
3902.00,1.5643
3901.00,1.5577
3900.00,1.5510
3899.00,1.5440
3898.00,1.5371
3897.00,1.5303
3896.00,1.5238
3895.00,1.5173
3894.00,1.5108
3893.00,1.5040
3892.00,1.4968
3891.00,1.4893
3890.00,1.4819
3889.00,1.4747
3888.00,1.4677
3887.00,1.4604
3886.00,1.4525
3885.00,1.4441
3884.00,1.4356
3883.00,1.4272
3882.00,1.4188
3881.00,1.4099
3880.00,1.4006
3879.00,1.3914
3878.00,1.3825
3877.00,1.3738
3876.00,1.3649
3875.00,1.3557
3874.00,1.3464
3873.00,1.3371
3872.00,1.3278
3871.00,1.3181
3870.00,1.3075
3869.00,1.2965
3868.00,1.2858
3867.00,1.2755
3866.00,1.2652
3865.00,1.2542
3864.00,1.2427
3863.00,1.2309
3862.00,1.2193
3861.00,1.2078
3860.00,1.1963
3859.00,1.1850
3858.00,1.1743
3857.00,1.1642
3856.00,1.1544
3855.00,1.1440
3854.00,1.1319
3853.00,1.1181
3852.00,1.1037
3851.00,1.0899
3850.00,1.0766
3849.00,1.0633
3848.00,1.0499
3847.00,1.0367
3846.00,1.0239
3845.00,1.0115
3844.00,0.9992
3843.00,0.9868
3842.00,0.9746
3841.00,0.9626
3840.00,0.9507
3839.00,0.9385
3838.00,0.9259
3837.00,0.9130
3836.00,0.9005
3835.00,0.8887
3834.00,0.8775
3833.00,0.8665
3832.00,0.8556
3831.00,0.8451
3830.00,0.8352
3829.00,0.8260
3828.00,0.8175
3827.00,0.8094
3826.00,0.8018
3825.00,0.7949
3824.00,0.7892
3823.00,0.7842
3822.00,0.7794
3821.00,0.7746
3820.00,0.7699
3819.00,0.7660
3818.00,0.7631
3817.00,0.7610
3816.00,0.7591
3815.00,0.7576
3814.00,0.7566
3813.00,0.7565
3812.00,0.7571
3811.00,0.7584
3810.00,0.7605
3809.00,0.7635
3808.00,0.7675
3807.00,0.7722
3806.00,0.7771
3805.00,0.7822
3804.00,0.7877
3803.00,0.7939
3802.00,0.8007
3801.00,0.8081
3800.00,0.8157
3799.00,0.8235
3798.00,0.8313
3797.00,0.8394
3796.00,0.8479
3795.00,0.8567
3794.00,0.8661
3793.00,0.8758
3792.00,0.8858
3791.00,0.8962
3790.00,0.9067
3789.00,0.9176
3788.00,0.9288
3787.00,0.9401
3786.00,0.9516
3785.00,0.9633
3784.00,0.9751
3783.00,0.9869
3782.00,0.9986
3781.00,1.0105
3780.00,1.0227
3779.00,1.0352
3778.00,1.0479
3777.00,1.0606
3776.00,1.0731
3775.00,1.0854
3774.00,1.0974
3773.00,1.1094
3772.00,1.1214
3771.00,1.1336
3770.00,1.1462
3769.00,1.1592
3768.00,1.1723
3767.00,1.1850
3766.00,1.1975
3765.00,1.2097
3764.00,1.2218
3763.00,1.2337
3762.00,1.2453
3761.00,1.2567
3760.00,1.2683
3759.00,1.2801
3758.00,1.2922
3757.00,1.3041
3756.00,1.3155
3755.00,1.3263
3754.00,1.3365
3753.00,1.3470
3752.00,1.3582
3751.00,1.3704
3750.00,1.3835
3749.00,1.3966
3748.00,1.4086
3747.00,1.4191
3746.00,1.4285
3745.00,1.4379
3744.00,1.4483
3743.00,1.4595
3742.00,1.4707
3741.00,1.4810
3740.00,1.4898
3739.00,1.4974
3738.00,1.5046
3737.00,1.5123
3736.00,1.5208
3735.00,1.5302
3734.00,1.5397
3733.00,1.5491
3732.00,1.5582
3731.00,1.5670
3730.00,1.5756
3729.00,1.5840
3728.00,1.5920
3727.00,1.5996
3726.00,1.6071
3725.00,1.6145
3724.00,1.6222
3723.00,1.6299
3722.00,1.6375
3721.00,1.6450
3720.00,1.6524
3719.00,1.6597
3718.00,1.6668
3717.00,1.6736
3716.00,1.6804
3715.00,1.6870
3714.00,1.6936
3713.00,1.7002
3712.00,1.7067
3711.00,1.7132
3710.00,1.7196
3709.00,1.7259
3708.00,1.7319
3707.00,1.7376
3706.00,1.7430
3705.00,1.7483
3704.00,1.7538
3703.00,1.7592
3702.00,1.7646
3701.00,1.7700
3700.00,1.7754
3699.00,1.7805
3698.00,1.7854
3697.00,1.7903
3696.00,1.7953
3695.00,1.8004
3694.00,1.8054
3693.00,1.8104
3692.00,1.8152
3691.00,1.8198
3690.00,1.8244
3689.00,1.8290
3688.00,1.8335
3687.00,1.8379
3686.00,1.8419
3685.00,1.8456
3684.00,1.8489
3683.00,1.8520
3682.00,1.8552
3681.00,1.8585
3680.00,1.8619
3679.00,1.8653
3678.00,1.8685
3677.00,1.8716
3676.00,1.8745
3675.00,1.8775
3674.00,1.8805
3673.00,1.8837
3672.00,1.8867
3671.00,1.8894
3670.00,1.8918
3669.00,1.8943
3668.00,1.8970
3667.00,1.8995
3666.00,1.9014
3665.00,1.9028
3664.00,1.9040
3663.00,1.9054
3662.00,1.9071
3661.00,1.9092
3660.00,1.9117
3659.00,1.9142
3658.00,1.9161
3657.00,1.9174
3656.00,1.9185
3655.00,1.9196
3654.00,1.9212
3653.00,1.9228
3652.00,1.9240
3651.00,1.9247
3650.00,1.9250
3649.00,1.9254
3648.00,1.9261
3647.00,1.9268
3646.00,1.9272
3645.00,1.9272
3644.00,1.9273
3643.00,1.9274
3642.00,1.9278
3641.00,1.9284
3640.00,1.9289
3639.00,1.9292
3638.00,1.9294
3637.00,1.9297
3636.00,1.9301
3635.00,1.9303
3634.00,1.9300
3633.00,1.9295
3632.00,1.9286
3631.00,1.9276
3630.00,1.9266
3629.00,1.9258
3628.00,1.9251
3627.00,1.9246
3626.00,1.9239
3625.00,1.9231
3624.00,1.9223
3623.00,1.9215
3622.00,1.9208
3621.00,1.9200
3620.00,1.9189
3619.00,1.9172
3618.00,1.9155
3617.00,1.9142
3616.00,1.9131
3615.00,1.9121
3614.00,1.9107
3613.00,1.9092
3612.00,1.9078
3611.00,1.9064
3610.00,1.9047
3609.00,1.9026
3608.00,1.9003
3607.00,1.8980
3606.00,1.8960
3605.00,1.8941
3604.00,1.8921
3603.00,1.8897
3602.00,1.8871
3601.00,1.8844
3600.00,1.8819
3599.00,1.8792
3598.00,1.8763
3597.00,1.8731
3596.00,1.8697
3595.00,1.8664
3594.00,1.8630
3593.00,1.8596
3592.00,1.8559
3591.00,1.8520
3590.00,1.8479
3589.00,1.8438
3588.00,1.8399
3587.00,1.8363
3586.00,1.8331
3585.00,1.8299
3584.00,1.8261
3583.00,1.8219
3582.00,1.8175
3581.00,1.8131
3580.00,1.8087
3579.00,1.8042
3578.00,1.7997
3577.00,1.7953
3576.00,1.7908
3575.00,1.7865
3574.00,1.7823
3573.00,1.7783
3572.00,1.7745
3571.00,1.7707
3570.00,1.7668
3569.00,1.7625
3568.00,1.7577
3567.00,1.7522
3566.00,1.7464
3565.00,1.7408
3564.00,1.7357
3563.00,1.7310
3562.00,1.7265
3561.00,1.7220
3560.00,1.7172
3559.00,1.7119
3558.00,1.7062
3557.00,1.7004
3556.00,1.6947
3555.00,1.6888
3554.00,1.6827
3553.00,1.6762
3552.00,1.6695
3551.00,1.6627
3550.00,1.6558
3549.00,1.6489
3548.00,1.6419
3547.00,1.6345
3546.00,1.6269
3545.00,1.6189
3544.00,1.6107
3543.00,1.6024
3542.00,1.5942
3541.00,1.5860
3540.00,1.5779
3539.00,1.5697
3538.00,1.5613
3537.00,1.5526
3536.00,1.5435
3535.00,1.5342
3534.00,1.5247
3533.00,1.5151
3532.00,1.5056
3531.00,1.4960
3530.00,1.4863
3529.00,1.4762
3528.00,1.4659
3527.00,1.4554
3526.00,1.4447
3525.00,1.4339
3524.00,1.4229
3523.00,1.4117
3522.00,1.4004
3521.00,1.3890
3520.00,1.3776
3519.00,1.3662
3518.00,1.3547
3517.00,1.3430
3516.00,1.3311
3515.00,1.3190
3514.00,1.3069
3513.00,1.2946
3512.00,1.2822
3511.00,1.2696
3510.00,1.2567
3509.00,1.2438
3508.00,1.2308
3507.00,1.2178
3506.00,1.2047
3505.00,1.1916
3504.00,1.1784
3503.00,1.1651
3502.00,1.1518
3501.00,1.1385
3500.00,1.1253
3499.00,1.1124
3498.00,1.0996
3497.00,1.0869
3496.00,1.0743
3495.00,1.0619
3494.00,1.0497
3493.00,1.0377
3492.00,1.0261
3491.00,1.0149
3490.00,1.0040
3489.00,0.9935
3488.00,0.9834
3487.00,0.9737
3486.00,0.9646
3485.00,0.9560
3484.00,0.9480
3483.00,0.9406
3482.00,0.9337
3481.00,0.9275
3480.00,0.9218
3479.00,0.9168
3478.00,0.9125
3477.00,0.9089
3476.00,0.9061
3475.00,0.9041
3474.00,0.9027
3473.00,0.9021
3472.00,0.9022
3471.00,0.9029
3470.00,0.9044
3469.00,0.9066
3468.00,0.9095
3467.00,0.9131
3466.00,0.9174
3465.00,0.9223
3464.00,0.9278
3463.00,0.9340
3462.00,0.9408
3461.00,0.9482
3460.00,0.9561
3459.00,0.9645
3458.00,0.9733
3457.00,0.9827
3456.00,0.9925
3455.00,1.0027
3454.00,1.0133
3453.00,1.0242
3452.00,1.0356
3451.00,1.0472
3450.00,1.0590
3449.00,1.0712
3448.00,1.0836
3447.00,1.0964
3446.00,1.1093
3445.00,1.1224
3444.00,1.1356
3443.00,1.1489
3442.00,1.1623
3441.00,1.1759
3440.00,1.1897
3439.00,1.2035
3438.00,1.2173
3437.00,1.2311
3436.00,1.2450
3435.00,1.2589
3434.00,1.2729
3433.00,1.2869
3432.00,1.3010
3431.00,1.3151
3430.00,1.3292
3429.00,1.3433
3428.00,1.3573
3427.00,1.3712
3426.00,1.3851
3425.00,1.3988
3424.00,1.4124
3423.00,1.4258
3422.00,1.4390
3421.00,1.4520
3420.00,1.4649
3419.00,1.4777
3418.00,1.4901
3417.00,1.5023
3416.00,1.5140
3415.00,1.5253
3414.00,1.5363
3413.00,1.5467
3412.00,1.5568
3411.00,1.5664
3410.00,1.5756
3409.00,1.5845
3408.00,1.5930
3407.00,1.6011
3406.00,1.6088
3405.00,1.6160
3404.00,1.6228
3403.00,1.6293
3402.00,1.6355
3401.00,1.6415
3400.00,1.6477
3399.00,1.6542
3398.00,1.6609
3397.00,1.6677
3396.00,1.6746
3395.00,1.6816
3394.00,1.6886
3393.00,1.6957
3392.00,1.7030
3391.00,1.7104
3390.00,1.7180
3389.00,1.7256
3388.00,1.7333
3387.00,1.7410
3386.00,1.7487
3385.00,1.7563
3384.00,1.7639
3383.00,1.7715
3382.00,1.7790
3381.00,1.7864
3380.00,1.7938
3379.00,1.8011
3378.00,1.8082
3377.00,1.8151
3376.00,1.8219
3375.00,1.8287
3374.00,1.8355
3373.00,1.8422
3372.00,1.8489
3371.00,1.8554
3370.00,1.8617
3369.00,1.8678
3368.00,1.8738
3367.00,1.8796
3366.00,1.8854
3365.00,1.8911
3364.00,1.8966
3363.00,1.9020
3362.00,1.9074
3361.00,1.9126
3360.00,1.9176
3359.00,1.9227
3358.00,1.9277
3357.00,1.9327
3356.00,1.9376
3355.00,1.9422
3354.00,1.9467
3353.00,1.9513
3352.00,1.9560
3351.00,1.9607
3350.00,1.9653
3349.00,1.9694
3348.00,1.9729
3347.00,1.9761
3346.00,1.9793
3345.00,1.9827
3344.00,1.9864
3343.00,1.9902
3342.00,1.9938
3341.00,1.9972
3340.00,2.0005
3339.00,2.0038
3338.00,2.0069
3337.00,2.0096
3336.00,2.0118
3335.00,2.0137
3334.00,2.0157
3333.00,2.0182
3332.00,2.0208
3331.00,2.0233
3330.00,2.0253
3329.00,2.0272
3328.00,2.0292
3327.00,2.0317
3326.00,2.0347
3325.00,2.0375
3324.00,2.0398
3323.00,2.0413
3322.00,2.0424
3321.00,2.0436
3320.00,2.0452
3319.00,2.0472
3318.00,2.0494
3317.00,2.0516
3316.00,2.0537
3315.00,2.0557
3314.00,2.0578
3313.00,2.0600
3312.00,2.0621
3311.00,2.0641
3310.00,2.0662
3309.00,2.0685
3308.00,2.0709
3307.00,2.0732
3306.00,2.0751
3305.00,2.0766
3304.00,2.0776
3303.00,2.0781
3302.00,2.0781
3301.00,2.0780
3300.00,2.0782
3299.00,2.0789
3298.00,2.0799
3297.00,2.0809
3296.00,2.0816
3295.00,2.0817
3294.00,2.0817
3293.00,2.0818
3292.00,2.0822
3291.00,2.0826
3290.00,2.0825
3289.00,2.0820
3288.00,2.0812
3287.00,2.0806
3286.00,2.0801
3285.00,2.0795
3284.00,2.0787
3283.00,2.0780
3282.00,2.0775
3281.00,2.0770
3280.00,2.0764
3279.00,2.0756
3278.00,2.0748
3277.00,2.0742
3276.00,2.0738
3275.00,2.0732
3274.00,2.0721
3273.00,2.0708
3272.00,2.0692
3271.00,2.0677
3270.00,2.0661
3269.00,2.0643
3268.00,2.0624
3267.00,2.0606
3266.00,2.0589
3265.00,2.0573
3264.00,2.0554
3263.00,2.0532
3262.00,2.0507
3261.00,2.0481
3260.00,2.0455
3259.00,2.0433
3258.00,2.0413
3257.00,2.0393
3256.00,2.0370
3255.00,2.0345
3254.00,2.0317
3253.00,2.0287
3252.00,2.0252
3251.00,2.0215
3250.00,2.0179
3249.00,2.0146
3248.00,2.0115
3247.00,2.0080
3246.00,2.0041
3245.00,2.0000
3244.00,1.9960
3243.00,1.9921
3242.00,1.9882
3241.00,1.9843
3240.00,1.9803
3239.00,1.9763
3238.00,1.9723
3237.00,1.9682
3236.00,1.9641
3235.00,1.9597
3234.00,1.9549
3233.00,1.9499
3232.00,1.9449
3231.00,1.9400
3230.00,1.9350
3229.00,1.9298
3228.00,1.9244
3227.00,1.9188
3226.00,1.9130
3225.00,1.9070
3224.00,1.9010
3223.00,1.8952
3222.00,1.8895
3221.00,1.8837
3220.00,1.8775
3219.00,1.8709
3218.00,1.8640
3217.00,1.8569
3216.00,1.8498
3215.00,1.8428
3214.00,1.8360
3213.00,1.8292
3212.00,1.8222
3211.00,1.8149
3210.00,1.8070
3209.00,1.7989
3208.00,1.7907
3207.00,1.7824
3206.00,1.7742
3205.00,1.7658
3204.00,1.7572
3203.00,1.7482
3202.00,1.7390
3201.00,1.7297
3200.00,1.7202
3199.00,1.7105
3198.00,1.7007
3197.00,1.6905
3196.00,1.6803
3195.00,1.6699
3194.00,1.6594
3193.00,1.6488
3192.00,1.6381
3191.00,1.6270
3190.00,1.6156
3189.00,1.6039
3188.00,1.5920
3187.00,1.5798
3186.00,1.5676
3185.00,1.5552
3184.00,1.5427
3183.00,1.5299
3182.00,1.5169
3181.00,1.5037
3180.00,1.4903
3179.00,1.4765
3178.00,1.4624
3177.00,1.4481
3176.00,1.4336
3175.00,1.4189
3174.00,1.4040
3173.00,1.3889
3172.00,1.3736
3171.00,1.3581
3170.00,1.3425
3169.00,1.3267
3168.00,1.3107
3167.00,1.2946
3166.00,1.2783
3165.00,1.2620
3164.00,1.2456
3163.00,1.2291
3162.00,1.2127
3161.00,1.1962
3160.00,1.1798
3159.00,1.1634
3158.00,1.1472
3157.00,1.1313
3156.00,1.1156
3155.00,1.1002
3154.00,1.0851
3153.00,1.0705
3152.00,1.0564
3151.00,1.0428
3150.00,1.0299
3149.00,1.0176
3148.00,1.0061
3147.00,0.9952
3146.00,0.9851
3145.00,0.9759
3144.00,0.9676
3143.00,0.9602
3142.00,0.9538
3141.00,0.9484
3140.00,0.9440
3139.00,0.9407
3138.00,0.9384
3137.00,0.9372
3136.00,0.9371
3135.00,0.9381
3134.00,0.9401
3133.00,0.9432
3132.00,0.9472
3131.00,0.9522
3130.00,0.9581
3129.00,0.9649
3128.00,0.9727
3127.00,0.9814
3126.00,0.9908
3125.00,1.0009
3124.00,1.0117
3123.00,1.0232
3122.00,1.0352
3121.00,1.0479
3120.00,1.0611
3119.00,1.0748
3118.00,1.0889
3117.00,1.1035
3116.00,1.1185
3115.00,1.1339
3114.00,1.1496
3113.00,1.1655
3112.00,1.1816
3111.00,1.1980
3110.00,1.2147
3109.00,1.2314
3108.00,1.2482
3107.00,1.2651
3106.00,1.2820
3105.00,1.2991
3104.00,1.3161
3103.00,1.3332
3102.00,1.3503
3101.00,1.3674
3100.00,1.3845
3099.00,1.4014
3098.00,1.4183
3097.00,1.4350
3096.00,1.4517
3095.00,1.4683
3094.00,1.4848
3093.00,1.5011
3092.00,1.5173
3091.00,1.5333
3090.00,1.5491
3089.00,1.5648
3088.00,1.5803
3087.00,1.5956
3086.00,1.6108
3085.00,1.6257
3084.00,1.6405
3083.00,1.6550
3082.00,1.6691
3081.00,1.6829
3080.00,1.6965
3079.00,1.7099
3078.00,1.7233
3077.00,1.7365
3076.00,1.7492
3075.00,1.7617
3074.00,1.7739
3073.00,1.7861
3072.00,1.7983
3071.00,1.8103
3070.00,1.8222
3069.00,1.8339
3068.00,1.8455
3067.00,1.8568
3066.00,1.8678
3065.00,1.8784
3064.00,1.8885
3063.00,1.8983
3062.00,1.9080
3061.00,1.9176
3060.00,1.9272
3059.00,1.9366
3058.00,1.9459
3057.00,1.9551
3056.00,1.9641
3055.00,1.9729
3054.00,1.9814
3053.00,1.9897
3052.00,1.9979
3051.00,2.0059
3050.00,2.0139
3049.00,2.0218
3048.00,2.0295
3047.00,2.0370
3046.00,2.0443
3045.00,2.0516
3044.00,2.0589
3043.00,2.0661
3042.00,2.0731
3041.00,2.0801
3040.00,2.0872
3039.00,2.0943
3038.00,2.1012
3037.00,2.1081
3036.00,2.1149
3035.00,2.1216
3034.00,2.1281
3033.00,2.1341
3032.00,2.1398
3031.00,2.1452
3030.00,2.1506
3029.00,2.1561
3028.00,2.1617
3027.00,2.1671
3026.00,2.1720
3025.00,2.1762
3024.00,2.1802
3023.00,2.1841
3022.00,2.1881
3021.00,2.1922
3020.00,2.1965
3019.00,2.2010
3018.00,2.2055
3017.00,2.2098
3016.00,2.2138
3015.00,2.2174
3014.00,2.2209
3013.00,2.2241
3012.00,2.2273
3011.00,2.2305
3010.00,2.2337
3009.00,2.2367
3008.00,2.2390
3007.00,2.2406
3006.00,2.2417
3005.00,2.2431
3004.00,2.2452
3003.00,2.2478
3002.00,2.2502
3001.00,2.2523
3000.00,2.2536
2999.00,2.2541
2998.00,2.2542
2997.00,2.2541
2996.00,2.2541
2995.00,2.2539
2994.00,2.2533
2993.00,2.2521
2992.00,2.2508
2991.00,2.2497
2990.00,2.2487
2989.00,2.2476
2988.00,2.2460
2987.00,2.2441
2986.00,2.2421
2985.00,2.2398
2984.00,2.2371
2983.00,2.2337
2982.00,2.2296
2981.00,2.2253
2980.00,2.2214
2979.00,2.2185
2978.00,2.2170
2977.00,2.2168
2976.00,2.2178
2975.00,2.2200
2974.00,2.2240
2973.00,2.2305
2972.00,2.2404
2971.00,2.2543
2970.00,2.2720
2969.00,2.2935
2968.00,2.3188
2967.00,2.3479
2966.00,2.3808
2965.00,2.4170
2964.00,2.4553
2963.00,2.4948
2962.00,2.5350
2961.00,2.5757
2960.00,2.6163
2959.00,2.6559
2958.00,2.6932
2957.00,2.7276
2956.00,2.7601
2955.00,2.7928
2954.00,2.8265
2953.00,2.8601
2952.00,2.8912
2951.00,2.9191
2950.00,2.9451
2949.00,2.9707
2948.00,2.9967
2947.00,3.0231
2946.00,3.0503
2945.00,3.0784
2944.00,3.1072
2943.00,3.1364
2942.00,3.1659
2941.00,3.1937
2940.00,3.2163
2939.00,3.2306
2938.00,3.2362
2937.00,3.2344
2936.00,3.2272
2935.00,3.2162
2934.00,3.2022
2933.00,3.1849
2932.00,3.1639
2931.00,3.1380
2930.00,3.1059
2929.00,3.0667
2928.00,3.0212
2927.00,2.9726
2926.00,2.9241
2925.00,2.8776
2924.00,2.8341
2923.00,2.7940
2922.00,2.7572
2921.00,2.7232
2920.00,2.6913
2919.00,2.6614
2918.00,2.6343
2917.00,2.6102
2916.00,2.5887
2915.00,2.5692
2914.00,2.5521
2913.00,2.5376
2912.00,2.5256
2911.00,2.5157
2910.00,2.5079
2909.00,2.5023
2908.00,2.4983
2907.00,2.4943
2906.00,2.4893
2905.00,2.4834
2904.00,2.4777
2903.00,2.4726
2902.00,2.4680
2901.00,2.4639
2900.00,2.4602
2899.00,2.4568
2898.00,2.4533
2897.00,2.4494
2896.00,2.4454
2895.00,2.4418
2894.00,2.4386
2893.00,2.4355
2892.00,2.4321
2891.00,2.4284
2890.00,2.4249
2889.00,2.4215
2888.00,2.4177
2887.00,2.4134
2886.00,2.4093
2885.00,2.4059
2884.00,2.4037
2883.00,2.4028
2882.00,2.4029
2881.00,2.4036
2880.00,2.4045
2879.00,2.4058
2878.00,2.4085
2877.00,2.4136
2876.00,2.4212
2875.00,2.4310
2874.00,2.4431
2873.00,2.4576
2872.00,2.4750
2871.00,2.4956
2870.00,2.5194
2869.00,2.5464
2868.00,2.5758
2867.00,2.6063
2866.00,2.6366
2865.00,2.6652
2864.00,2.6899
2863.00,2.7073
2862.00,2.7151
2861.00,2.7131
2860.00,2.7035
2859.00,2.6879
2858.00,2.6672
2857.00,2.6421
2856.00,2.6142
2855.00,2.5855
2854.00,2.5574
2853.00,2.5309
2852.00,2.5064
2851.00,2.4842
2850.00,2.4642
2849.00,2.4459
2848.00,2.4290
2847.00,2.4133
2846.00,2.3989
2845.00,2.3861
2844.00,2.3751
2843.00,2.3655
2842.00,2.3565
2841.00,2.3470
2840.00,2.3368
2839.00,2.3264
2838.00,2.3167
2837.00,2.3076
2836.00,2.2989
2835.00,2.2902
2834.00,2.2818
2833.00,2.2741
2832.00,2.2672
2831.00,2.2611
2830.00,2.2553
2829.00,2.2490
2828.00,2.2420
2827.00,2.2347
2826.00,2.2276
2825.00,2.2208
2824.00,2.2137
2823.00,2.2060
2822.00,2.1978
2821.00,2.1892
2820.00,2.1803
2819.00,2.1708
2818.00,2.1609
2817.00,2.1504
2816.00,2.1393
2815.00,2.1277
2814.00,2.1157
2813.00,2.1037
2812.00,2.0919
2811.00,2.0800
2810.00,2.0680
2809.00,2.0558
2808.00,2.0434
2807.00,2.0307
2806.00,2.0178
2805.00,2.0046
2804.00,1.9910
2803.00,1.9770
2802.00,1.9630
2801.00,1.9493
2800.00,1.9360
2799.00,1.9231
2798.00,1.9103
2797.00,1.8973
2796.00,1.8841
2795.00,1.8704
2794.00,1.8560
2793.00,1.8410
2792.00,1.8254
2791.00,1.8093
2790.00,1.7925
2789.00,1.7750
2788.00,1.7569
2787.00,1.7384
2786.00,1.7194
2785.00,1.7000
2784.00,1.6803
2783.00,1.6604
2782.00,1.6402
2781.00,1.6198
2780.00,1.5992
2779.00,1.5784
2778.00,1.5574
2777.00,1.5361
2776.00,1.5145
2775.00,1.4926
2774.00,1.4703
2773.00,1.4477
2772.00,1.4248
2771.00,1.4019
2770.00,1.3790
2769.00,1.3562
2768.00,1.3337
2767.00,1.3115
2766.00,1.2898
2765.00,1.2685
2764.00,1.2477
2763.00,1.2274
2762.00,1.2077
2761.00,1.1885
2760.00,1.1698
2759.00,1.1514
2758.00,1.1336
2757.00,1.1165
2756.00,1.1002
2755.00,1.0851
2754.00,1.0713
2753.00,1.0593
2752.00,1.0491
2751.00,1.0410
2750.00,1.0350
2749.00,1.0311
2748.00,1.0294
2747.00,1.0297
2746.00,1.0319
2745.00,1.0361
2744.00,1.0419
2743.00,1.0495
2742.00,1.0585
2741.00,1.0691
2740.00,1.0811
2739.00,1.0943
2738.00,1.1085
2737.00,1.1237
2736.00,1.1398
2735.00,1.1565
2734.00,1.1739
2733.00,1.1918
2732.00,1.2103
2731.00,1.2291
2730.00,1.2482
2729.00,1.2676
2728.00,1.2874
2727.00,1.3073
2726.00,1.3275
2725.00,1.3479
2724.00,1.3685
2723.00,1.3893
2722.00,1.4102
2721.00,1.4312
2720.00,1.4524
2719.00,1.4736
2718.00,1.4945
2717.00,1.5152
2716.00,1.5355
2715.00,1.5556
2714.00,1.5755
2713.00,1.5952
2712.00,1.6146
2711.00,1.6339
2710.00,1.6530
2709.00,1.6719
2708.00,1.6905
2707.00,1.7088
2706.00,1.7267
2705.00,1.7443
2704.00,1.7616
2703.00,1.7787
2702.00,1.7955
2701.00,1.8120
2700.00,1.8281
2699.00,1.8438
2698.00,1.8593
2697.00,1.8745
2696.00,1.8894
2695.00,1.9040
2694.00,1.9185
2693.00,1.9329
2692.00,1.9470
2691.00,1.9608
2690.00,1.9741
2689.00,1.9871
2688.00,1.9998
2687.00,2.0127
2686.00,2.0257
2685.00,2.0388
2684.00,2.0517
2683.00,2.0642
2682.00,2.0762
2681.00,2.0876
2680.00,2.0982
2679.00,2.1080
2678.00,2.1171
2677.00,2.1259
2676.00,2.1345
2675.00,2.1427
2674.00,2.1505
2673.00,2.1580
2672.00,2.1651
2671.00,2.1720
2670.00,2.1786
2669.00,2.1848
2668.00,2.1908
2667.00,2.1970
2666.00,2.2035
2665.00,2.2100
2664.00,2.2161
2663.00,2.2217
2662.00,2.2275
2661.00,2.2341
2660.00,2.2415
2659.00,2.2492
2658.00,2.2568
2657.00,2.2641
2656.00,2.2711
2655.00,2.2776
2654.00,2.2840
2653.00,2.2901
2652.00,2.2961
2651.00,2.3019
2650.00,2.3074
2649.00,2.3128
2648.00,2.3185
2647.00,2.3246
2646.00,2.3308
2645.00,2.3365
2644.00,2.3418
2643.00,2.3466
2642.00,2.3513
2641.00,2.3561
2640.00,2.3611
2639.00,2.3662
2638.00,2.3714
2637.00,2.3764
2636.00,2.3810
2635.00,2.3856
2634.00,2.3907
2633.00,2.3961
2632.00,2.4012
2631.00,2.4055
2630.00,2.4089
2629.00,2.4121
2628.00,2.4155
2627.00,2.4194
2626.00,2.4237
2625.00,2.4279
2624.00,2.4314
2623.00,2.4341
2622.00,2.4365
2621.00,2.4394
2620.00,2.4433
2619.00,2.4479
2618.00,2.4526
2617.00,2.4568
2616.00,2.4602
2615.00,2.4630
2614.00,2.4653
2613.00,2.4672
2612.00,2.4684
2611.00,2.4697
2610.00,2.4719
2609.00,2.4754
2608.00,2.4792
2607.00,2.4824
2606.00,2.4847
2605.00,2.4865
2604.00,2.4880
2603.00,2.4890
2602.00,2.4895
2601.00,2.4901
2600.00,2.4913
2599.00,2.4935
2598.00,2.4962
2597.00,2.4983
2596.00,2.4995
2595.00,2.4999
2594.00,2.5002
2593.00,2.5009
2592.00,2.5016
2591.00,2.5019
2590.00,2.5017
2589.00,2.5014
2588.00,2.5019
2587.00,2.5036
2586.00,2.5058
2585.00,2.5075
2584.00,2.5078
2583.00,2.5070
2582.00,2.5060
2581.00,2.5055
2580.00,2.5054
2579.00,2.5053
2578.00,2.5052
2577.00,2.5053
2576.00,2.5054
2575.00,2.5055
2574.00,2.5059
2573.00,2.5062
2572.00,2.5062
2571.00,2.5056
2570.00,2.5048
2569.00,2.5044
2568.00,2.5041
2567.00,2.5034
2566.00,2.5017
2565.00,2.4996
2564.00,2.4977
2563.00,2.4967
2562.00,2.4960
2561.00,2.4951
2560.00,2.4938
2559.00,2.4925
2558.00,2.4915
2557.00,2.4908
2556.00,2.4898
2555.00,2.4881
2554.00,2.4860
2553.00,2.4836
2552.00,2.4810
2551.00,2.4784
2550.00,2.4761
2549.00,2.4741
2548.00,2.4722
2547.00,2.4701
2546.00,2.4677
2545.00,2.4654
2544.00,2.4632
2543.00,2.4611
2542.00,2.4589
2541.00,2.4565
2540.00,2.4532
2539.00,2.4493
2538.00,2.4453
2537.00,2.4420
2536.00,2.4394
2535.00,2.4368
2534.00,2.4338
2533.00,2.4300
2532.00,2.4259
2531.00,2.4218
2530.00,2.4179
2529.00,2.4141
2528.00,2.4099
2527.00,2.4053
2526.00,2.4006
2525.00,2.3962
2524.00,2.3920
2523.00,2.3881
2522.00,2.3842
2521.00,2.3799
2520.00,2.3749
2519.00,2.3691
2518.00,2.3632
2517.00,2.3576
2516.00,2.3522
2515.00,2.3466
2514.00,2.3406
2513.00,2.3344
2512.00,2.3282
2511.00,2.3218
2510.00,2.3150
2509.00,2.3081
2508.00,2.3016
2507.00,2.2956
2506.00,2.2895
2505.00,2.2828
2504.00,2.2754
2503.00,2.2677
2502.00,2.2603
2501.00,2.2532
2500.00,2.2460
2499.00,2.2383
2498.00,2.2300
2497.00,2.2213
2496.00,2.2124
2495.00,2.2034
2494.00,2.1946
2493.00,2.1859
2492.00,2.1773
2491.00,2.1684
2490.00,2.1591
2489.00,2.1494
2488.00,2.1392
2487.00,2.1286
2486.00,2.1178
2485.00,2.1070
2484.00,2.0965
2483.00,2.0859
2482.00,2.0749
2481.00,2.0631
2480.00,2.0508
2479.00,2.0381
2478.00,2.0255
2477.00,2.0131
2476.00,2.0006
2475.00,1.9878
2474.00,1.9746
2473.00,1.9613
2472.00,1.9479
2471.00,1.9343
2470.00,1.9204
2469.00,1.9062
2468.00,1.8918
2467.00,1.8770
2466.00,1.8617
2465.00,1.8460
2464.00,1.8299
2463.00,1.8135
2462.00,1.7968
2461.00,1.7798
2460.00,1.7625
2459.00,1.7447
2458.00,1.7263
2457.00,1.7074
2456.00,1.6881
2455.00,1.6685
2454.00,1.6486
2453.00,1.6284
2452.00,1.6080
2451.00,1.5872
2450.00,1.5660
2449.00,1.5444
2448.00,1.5226
2447.00,1.5004
2446.00,1.4780
2445.00,1.4553
2444.00,1.4325
2443.00,1.4097
2442.00,1.3869
2441.00,1.3643
2440.00,1.3419
2439.00,1.3199
2438.00,1.2983
2437.00,1.2773
2436.00,1.2571
2435.00,1.2380
2434.00,1.2200
2433.00,1.2034
2432.00,1.1884
2431.00,1.1750
2430.00,1.1634
2429.00,1.1536
2428.00,1.1454
2427.00,1.1388
2426.00,1.1337
2425.00,1.1301
2424.00,1.1280
2423.00,1.1275
2422.00,1.1285
2421.00,1.1310
2420.00,1.1350
2419.00,1.1404
2418.00,1.1470
2417.00,1.1550
2416.00,1.1643
2415.00,1.1748
2414.00,1.1865
2413.00,1.1996
2412.00,1.2139
2411.00,1.2293
2410.00,1.2457
2409.00,1.2630
2408.00,1.2811
2407.00,1.2999
2406.00,1.3192
2405.00,1.3391
2404.00,1.3595
2403.00,1.3805
2402.00,1.4018
2401.00,1.4235
2400.00,1.4454
2399.00,1.4675
2398.00,1.4897
2397.00,1.5120
2396.00,1.5343
2395.00,1.5567
2394.00,1.5789
2393.00,1.6011
2392.00,1.6230
2391.00,1.6447
2390.00,1.6661
2389.00,1.6873
2388.00,1.7083
2387.00,1.7289
2386.00,1.7489
2385.00,1.7683
2384.00,1.7870
2383.00,1.8049
2382.00,1.8222
2381.00,1.8387
2380.00,1.8545
2379.00,1.8695
2378.00,1.8841
2377.00,1.8985
2376.00,1.9130
2375.00,1.9275
2374.00,1.9420
2373.00,1.9567
2372.00,1.9715
2371.00,1.9864
2370.00,2.0015
2369.00,2.0166
2368.00,2.0314
2367.00,2.0457
2366.00,2.0592
2365.00,2.0727
2364.00,2.0863
2363.00,2.0999
2362.00,2.1129
2361.00,2.1255
2360.00,2.1380
2359.00,2.1505
2358.00,2.1628
2357.00,2.1749
2356.00,2.1872
2355.00,2.1999
2354.00,2.2130
2353.00,2.2265
2352.00,2.2404
2351.00,2.2540
2350.00,2.2661
2349.00,2.2755
2348.00,2.2825
2347.00,2.2885
2346.00,2.2953
2345.00,2.3040
2344.00,2.3144
2343.00,2.3251
2342.00,2.3352
2341.00,2.3445
2340.00,2.3534
2339.00,2.3622
2338.00,2.3710
2337.00,2.3800
2336.00,2.3891
2335.00,2.3978
2334.00,2.4059
2333.00,2.4130
2332.00,2.4195
2331.00,2.4261
2330.00,2.4328
2329.00,2.4394
2328.00,2.4459
2327.00,2.4522
2326.00,2.4586
2325.00,2.4651
2324.00,2.4717
2323.00,2.4782
2322.00,2.4848
2321.00,2.4916
2320.00,2.4985
2319.00,2.5055
2318.00,2.5124
2317.00,2.5190
2316.00,2.5248
2315.00,2.5303
2314.00,2.5360
2313.00,2.5423
2312.00,2.5490
2311.00,2.5555
2310.00,2.5613
2309.00,2.5666
2308.00,2.5716
2307.00,2.5768
2306.00,2.5828
2305.00,2.5894
2304.00,2.5965
2303.00,2.6037
2302.00,2.6105
2301.00,2.6168
2300.00,2.6222
2299.00,2.6267
2298.00,2.6306
2297.00,2.6341
2296.00,2.6372
2295.00,2.6400
2294.00,2.6427
2293.00,2.6455
2292.00,2.6489
2291.00,2.6528
2290.00,2.6573
2289.00,2.6622
2288.00,2.6670
2287.00,2.6716
2286.00,2.6761
2285.00,2.6803
2284.00,2.6838
2283.00,2.6866
2282.00,2.6891
2281.00,2.6920
2280.00,2.6948
2279.00,2.6968
2278.00,2.6979
2277.00,2.6987
2276.00,2.7000
2275.00,2.7020
2274.00,2.7047
2273.00,2.7080
2272.00,2.7116
2271.00,2.7143
2270.00,2.7157
2269.00,2.7163
2268.00,2.7174
2267.00,2.7197
2266.00,2.7224
2265.00,2.7249
2264.00,2.7275
2263.00,2.7306
2262.00,2.7339
2261.00,2.7361
2260.00,2.7364
2259.00,2.7351
2258.00,2.7334
2257.00,2.7324
2256.00,2.7327
2255.00,2.7340
2254.00,2.7353
2253.00,2.7358
2252.00,2.7357
2251.00,2.7358
2250.00,2.7364
2249.00,2.7371
2248.00,2.7375
2247.00,2.7383
2246.00,2.7398
2245.00,2.7412
2244.00,2.7415
2243.00,2.7404
2242.00,2.7389
2241.00,2.7380
2240.00,2.7382
2239.00,2.7392
2238.00,2.7408
2237.00,2.7425
2236.00,2.7435
2235.00,2.7436
2234.00,2.7431
2233.00,2.7422
2232.00,2.7408
2231.00,2.7389
2230.00,2.7370
2229.00,2.7358
2228.00,2.7352
2227.00,2.7342
2226.00,2.7322
2225.00,2.7296
2224.00,2.7272
2223.00,2.7256
2222.00,2.7245
2221.00,2.7233
2220.00,2.7219
2219.00,2.7208
2218.00,2.7203
2217.00,2.7197
2216.00,2.7180
2215.00,2.7151
2214.00,2.7117
2213.00,2.7086
2212.00,2.7059
2211.00,2.7034
2210.00,2.7008
2209.00,2.6985
2208.00,2.6963
2207.00,2.6944
2206.00,2.6922
2205.00,2.6889
2204.00,2.6843
2203.00,2.6796
2202.00,2.6759
2201.00,2.6735
2200.00,2.6716
2199.00,2.6693
2198.00,2.6667
2197.00,2.6635
2196.00,2.6593
2195.00,2.6544
2194.00,2.6497
2193.00,2.6460
2192.00,2.6429
2191.00,2.6396
2190.00,2.6354
2189.00,2.6303
2188.00,2.6244
2187.00,2.6181
2186.00,2.6120
2185.00,2.6063
2184.00,2.6012
2183.00,2.5961
2182.00,2.5909
2181.00,2.5858
2180.00,2.5810
2179.00,2.5769
2178.00,2.5734
2177.00,2.5695
2176.00,2.5641
2175.00,2.5574
2174.00,2.5508
2173.00,2.5455
2172.00,2.5407
2171.00,2.5353
2170.00,2.5290
2169.00,2.5224
2168.00,2.5157
2167.00,2.5085
2166.00,2.5005
2165.00,2.4923
2164.00,2.4843
2163.00,2.4763
2162.00,2.4681
2161.00,2.4596
2160.00,2.4507
2159.00,2.4415
2158.00,2.4322
2157.00,2.4234
2156.00,2.4156
2155.00,2.4080
2154.00,2.3997
2153.00,2.3901
2152.00,2.3794
2151.00,2.3684
2150.00,2.3571
2149.00,2.3457
2148.00,2.3344
2147.00,2.3233
2146.00,2.3122
2145.00,2.3007
2144.00,2.2887
2143.00,2.2762
2142.00,2.2637
2141.00,2.2511
2140.00,2.2385
2139.00,2.2256
2138.00,2.2124
2137.00,2.1991
2136.00,2.1858
2135.00,2.1723
2134.00,2.1586
2133.00,2.1443
2132.00,2.1296
2131.00,2.1144
2130.00,2.0987
2129.00,2.0825
2128.00,2.0657
2127.00,2.0484
2126.00,2.0308
2125.00,2.0129
2124.00,1.9946
2123.00,1.9758
2122.00,1.9562
2121.00,1.9360
2120.00,1.9152
2119.00,1.8941
2118.00,1.8728
2117.00,1.8512
2116.00,1.8290
2115.00,1.8063
2114.00,1.7830
2113.00,1.7592
2112.00,1.7349
2111.00,1.7103
2110.00,1.6854
2109.00,1.6604
2108.00,1.6353
2107.00,1.6099
2106.00,1.5845
2105.00,1.5591
2104.00,1.5342
2103.00,1.5099
2102.00,1.4862
2101.00,1.4634
2100.00,1.4416
2099.00,1.4209
2098.00,1.4013
2097.00,1.3830
2096.00,1.3661
2095.00,1.3505
2094.00,1.3364
2093.00,1.3238
2092.00,1.3129
2091.00,1.3038
2090.00,1.2963
2089.00,1.2908
2088.00,1.2873
2087.00,1.2859
2086.00,1.2866
2085.00,1.2895
2084.00,1.2945
2083.00,1.3018
2082.00,1.3113
2081.00,1.3230
2080.00,1.3369
2079.00,1.3528
2078.00,1.3705
2077.00,1.3901
2076.00,1.4112
2075.00,1.4336
2074.00,1.4569
2073.00,1.4811
2072.00,1.5061
2071.00,1.5316
2070.00,1.5576
2069.00,1.5837
2068.00,1.6098
2067.00,1.6356
2066.00,1.6607
2065.00,1.6851
2064.00,1.7086
2063.00,1.7315
2062.00,1.7536
2061.00,1.7751
2060.00,1.7960
2059.00,1.8165
2058.00,1.8369
2057.00,1.8574
2056.00,1.8781
2055.00,1.8989
2054.00,1.9199
2053.00,1.9409
2052.00,1.9620
2051.00,1.9832
2050.00,2.0043
2049.00,2.0254
2048.00,2.0463
2047.00,2.0671
2046.00,2.0875
2045.00,2.1074
2044.00,2.1267
2043.00,2.1455
2042.00,2.1640
2041.00,2.1825
2040.00,2.2007
2039.00,2.2184
2038.00,2.2357
2037.00,2.2525
2036.00,2.2689
2035.00,2.2849
2034.00,2.3004
2033.00,2.3157
2032.00,2.3305
2031.00,2.3448
2030.00,2.3587
2029.00,2.3728
2028.00,2.3872
2027.00,2.4017
2026.00,2.4158
2025.00,2.4294
2024.00,2.4426
2023.00,2.4550
2022.00,2.4665
2021.00,2.4773
2020.00,2.4880
2019.00,2.4989
2018.00,2.5095
2017.00,2.5194
2016.00,2.5291
2015.00,2.5395
2014.00,2.5506
2013.00,2.5620
2012.00,2.5731
2011.00,2.5839
2010.00,2.5944
2009.00,2.6044
2008.00,2.6140
2007.00,2.6231
2006.00,2.6318
2005.00,2.6401
2004.00,2.6481
2003.00,2.6564
2002.00,2.6651
2001.00,2.6740
2000.00,2.6829
1999.00,2.6916
1998.00,2.7001
1997.00,2.7082
1996.00,2.7156
1995.00,2.7225
1994.00,2.7291
1993.00,2.7358
1992.00,2.7427
1991.00,2.7500
1990.00,2.7575
1989.00,2.7644
1988.00,2.7704
1987.00,2.7756
1986.00,2.7806
1985.00,2.7855
1984.00,2.7910
1983.00,2.7981
1982.00,2.8068
1981.00,2.8157
1980.00,2.8230
1979.00,2.8281
1978.00,2.8324
1977.00,2.8370
1976.00,2.8417
1975.00,2.8460
1974.00,2.8497
1973.00,2.8536
1972.00,2.8579
1971.00,2.8626
1970.00,2.8675
1969.00,2.8724
1968.00,2.8771
1967.00,2.8808
1966.00,2.8826
1965.00,2.8833
1964.00,2.8847
1963.00,2.8884
1962.00,2.8933
1961.00,2.8976
1960.00,2.9006
1959.00,2.9034
1958.00,2.9072
1957.00,2.9122
1956.00,2.9179
1955.00,2.9243
1954.00,2.9311
1953.00,2.9366
1952.00,2.9394
1951.00,2.9397
1950.00,2.9399
1949.00,2.9416
1948.00,2.9445
1947.00,2.9471
1946.00,2.9495
1945.00,2.9522
1944.00,2.9555
1943.00,2.9583
1942.00,2.9598
1941.00,2.9615
1940.00,2.9653
1939.00,2.9706
1938.00,2.9746
1937.00,2.9752
1936.00,2.9732
1935.00,2.9718
1934.00,2.9725
1933.00,2.9750
1932.00,2.9780
1931.00,2.9809
1930.00,2.9833
1929.00,2.9853
1928.00,2.9871
1927.00,2.9889
1926.00,2.9903
1925.00,2.9911
1924.00,2.9917
1923.00,2.9927
1922.00,2.9940
1921.00,2.9948
1920.00,2.9954
1919.00,2.9963
1918.00,2.9976
1917.00,2.9984
1916.00,2.9980
1915.00,2.9963
1914.00,2.9942
1913.00,2.9930
1912.00,2.9938
1911.00,2.9964
1910.00,2.9986
1909.00,2.9982
1908.00,2.9958
1907.00,2.9934
1906.00,2.9917
1905.00,2.9894
1904.00,2.9857
1903.00,2.9817
1902.00,2.9789
1901.00,2.9782
1900.00,2.9791
1899.00,2.9807
1898.00,2.9816
1897.00,2.9809
1896.00,2.9790
1895.00,2.9774
1894.00,2.9761
1893.00,2.9744
1892.00,2.9724
1891.00,2.9715
1890.00,2.9723
1889.00,2.9729
1888.00,2.9716
1887.00,2.9683
1886.00,2.9639
1885.00,2.9589
1884.00,2.9536
1883.00,2.9486
1882.00,2.9446
1881.00,2.9417
1880.00,2.9398
1879.00,2.9391
1878.00,2.9388
1877.00,2.9375
1876.00,2.9342
1875.00,2.9293
1874.00,2.9237
1873.00,2.9182
1872.00,2.9140
1871.00,2.9112
1870.00,2.9086
1869.00,2.9041
1868.00,2.8971
1867.00,2.8897
1866.00,2.8836
1865.00,2.8786
1864.00,2.8739
1863.00,2.8698
1862.00,2.8662
1861.00,2.8619
1860.00,2.8565
1859.00,2.8511
1858.00,2.8465
1857.00,2.8417
1856.00,2.8354
1855.00,2.8277
1854.00,2.8195
1853.00,2.8115
1852.00,2.8038
1851.00,2.7964
1850.00,2.7886
1849.00,2.7800
1848.00,2.7710
1847.00,2.7623
1846.00,2.7543
1845.00,2.7468
1844.00,2.7399
1843.00,2.7331
1842.00,2.7247
1841.00,2.7128
1840.00,2.6983
1839.00,2.6843
1838.00,2.6723
1837.00,2.6608
1836.00,2.6484
1835.00,2.6352
1834.00,2.6226
1833.00,2.6103
1832.00,2.5977
1831.00,2.5844
1830.00,2.5709
1829.00,2.5569
1828.00,2.5425
1827.00,2.5271
1826.00,2.5101
1825.00,2.4919
1824.00,2.4740
1823.00,2.4572
1822.00,2.4403
1821.00,2.4220
1820.00,2.4025
1819.00,2.3830
1818.00,2.3636
1817.00,2.3440
1816.00,2.3241
1815.00,2.3049
1814.00,2.2863
1813.00,2.2680
1812.00,2.2500
1811.00,2.2331
1810.00,2.2178
1809.00,2.2041
1808.00,2.1913
1807.00,2.1785
1806.00,2.1646
1805.00,2.1481
1804.00,2.1281
1803.00,2.1040
1802.00,2.0757
1801.00,2.0432
1800.00,2.0075
1799.00,1.9697
1798.00,1.9301
1797.00,1.8887
1796.00,1.8460
1795.00,1.8034
1794.00,1.7621
1793.00,1.7230
1792.00,1.6873
1791.00,1.6564
1790.00,1.6312
1789.00,1.6123
1788.00,1.6003
1787.00,1.5959
1786.00,1.6001
1785.00,1.6133
1784.00,1.6348
1783.00,1.6632
1782.00,1.6971
1781.00,1.7362
1780.00,1.7805
1779.00,1.8290
1778.00,1.8802
1777.00,1.9330
1776.00,1.9864
1775.00,2.0396
1774.00,2.0931
1773.00,2.1495
1772.00,2.2090
1771.00,2.2666
1770.00,2.3161
1769.00,2.3563
1768.00,2.3897
1767.00,2.4181
1766.00,2.4426
1765.00,2.4646
1764.00,2.4860
1763.00,2.5092
1762.00,2.5367
1761.00,2.5689
1760.00,2.6033
1759.00,2.6361
1758.00,2.6663
1757.00,2.6973
1756.00,2.7315
1755.00,2.7668
1754.00,2.7996
1753.00,2.8302
1752.00,2.8604
1751.00,2.8896
1750.00,2.9162
1749.00,2.9411
1748.00,2.9657
1747.00,2.9898
1746.00,3.0129
1745.00,3.0360
1744.00,3.0593
1743.00,3.0816
1742.00,3.1045
1741.00,3.1330
1740.00,3.1688
1739.00,3.2044
1738.00,3.2305
1737.00,3.2479
1736.00,3.2651
1735.00,3.2886
1734.00,3.3185
1733.00,3.3493
1732.00,3.3748
1731.00,3.3930
1730.00,3.4104
1729.00,3.4409
1728.00,3.4966
1727.00,3.5829
1726.00,3.7017
1725.00,3.8537
1724.00,4.0378
1723.00,4.2521
1722.00,4.5287
1721.00,5.0629
1720.00,5.3712
1719.00,4.8452
1718.00,4.6208
1717.00,4.5521
1716.00,4.6882
1715.00,5.1008
1714.00,5.8497
1713.00,5.5058
1712.00,5.1372
1711.00,4.9929
1710.00,5.0134
1709.00,5.2175
1708.00,5.1004
1707.00,4.8666
1706.00,4.7946
1705.00,4.8888
1704.00,5.0966
1703.00,4.7655
1702.00,4.3807
1701.00,4.0928
1700.00,3.8490
1699.00,3.6698
1698.00,3.5463
1697.00,3.4560
1696.00,3.3852
1695.00,3.3291
1694.00,3.2852
1693.00,3.2454
1692.00,3.2016
1691.00,3.1540
1690.00,3.1062
1689.00,3.0592
1688.00,3.0120
1687.00,2.9641
1686.00,2.9157
1685.00,2.8664
1684.00,2.8164
1683.00,2.7673
1682.00,2.7215
1681.00,2.6774
1680.00,2.6331
1679.00,2.5926
1678.00,2.5593
1677.00,2.5312
1676.00,2.5034
1675.00,2.4726
1674.00,2.4383
1673.00,2.4000
1672.00,2.3565
1671.00,2.3081
1670.00,2.2570
1669.00,2.2045
1668.00,2.1519
1667.00,2.0998
1666.00,2.0490
1665.00,2.0013
1664.00,1.9605
1663.00,1.9303
1662.00,1.9132
1661.00,1.9094
1660.00,1.9170
1659.00,1.9341
1658.00,1.9595
1657.00,1.9914
1656.00,2.0275
1655.00,2.0680
1654.00,2.1167
1653.00,2.1762
1652.00,2.2382
1651.00,2.2891
1650.00,2.3202
1649.00,2.3379
1648.00,2.3578
1647.00,2.3853
1646.00,2.4188
1645.00,2.4549
1644.00,2.4885
1643.00,2.5149
1642.00,2.5354
1641.00,2.5554
1640.00,2.5772
1639.00,2.6002
1638.00,2.6233
1637.00,2.6465
1636.00,2.6707
1635.00,2.6956
1634.00,2.7200
1633.00,2.7402
1632.00,2.7520
1631.00,2.7577
1630.00,2.7629
1629.00,2.7710
1628.00,2.7825
1627.00,2.7961
1626.00,2.8102
1625.00,2.8244
1624.00,2.8392
1623.00,2.8553
1622.00,2.8723
1621.00,2.8891
1620.00,2.9042
1619.00,2.9176
1618.00,2.9317
1617.00,2.9484
1616.00,2.9659
1615.00,2.9803
1614.00,2.9895
1613.00,2.9946
1612.00,2.9989
1611.00,3.0040
1610.00,3.0093
1609.00,3.0139
1608.00,3.0183
1607.00,3.0241
1606.00,3.0329
1605.00,3.0447
1604.00,3.0581
1603.00,3.0712
1602.00,3.0827
1601.00,3.0920
1600.00,3.0988
1599.00,3.1040
1598.00,3.1102
1597.00,3.1191
1596.00,3.1286
1595.00,3.1354
1594.00,3.1394
1593.00,3.1432
1592.00,3.1487
1591.00,3.1557
1590.00,3.1632
1589.00,3.1697
1588.00,3.1733
1587.00,3.1737
1586.00,3.1749
1585.00,3.1816
1584.00,3.1943
1583.00,3.2078
1582.00,3.2171
1581.00,3.2210
1580.00,3.2222
1579.00,3.2234
1578.00,3.2269
1577.00,3.2345
1576.00,3.2443
1575.00,3.2523
1574.00,3.2570
1573.00,3.2596
1572.00,3.2619
1571.00,3.2648
1570.00,3.2682
1569.00,3.2720
1568.00,3.2752
1567.00,3.2752
1566.00,3.2715
1565.00,3.2688
1564.00,3.2717
1563.00,3.2788
1562.00,3.2847
1561.00,3.2872
1560.00,3.2879
1559.00,3.2892
1558.00,3.2884
1557.00,3.2888
1556.00,3.2925
1555.00,3.2941
1554.00,3.2979
1553.00,3.3059
1552.00,3.3120
1551.00,3.3115
1550.00,3.3057
1549.00,3.3008
1548.00,3.3001
1547.00,3.3014
1546.00,3.3007
1545.00,3.2984
1544.00,3.2984
1543.00,3.3028
1542.00,3.3095
1541.00,3.3125
1540.00,3.3086
1539.00,3.3026
1538.00,3.3021
1537.00,3.3031
1536.00,3.2989
1535.00,3.2934
1534.00,3.2929
1533.00,3.2983
1532.00,3.3062
1531.00,3.3138
1530.00,3.3208
1529.00,3.3257
1528.00,3.3250
1527.00,3.3176
1526.00,3.3087
1525.00,3.3055
1524.00,3.3086
1523.00,3.3127
1522.00,3.3137
1521.00,3.3112
1520.00,3.3071
1519.00,3.3026
1518.00,3.2977
1517.00,3.2940
1516.00,3.2933
1515.00,3.2940
1514.00,3.2935
1513.00,3.2903
1512.00,3.2867
1511.00,3.2844
1510.00,3.2829
1509.00,3.2802
1508.00,3.2755
1507.00,3.2696
1506.00,3.2659
1505.00,3.2683
1504.00,3.2693
1503.00,3.2573
1502.00,3.2387
1501.00,3.2237
1500.00,3.2158
1499.00,3.2142
1498.00,3.2160
1497.00,3.2174
1496.00,3.2149
1495.00,3.2085
1494.00,3.2002
1493.00,3.1908
1492.00,3.1806
1491.00,3.1708
1490.00,3.1626
1489.00,3.1559
1488.00,3.1505
1487.00,3.1472
1486.00,3.1464
1485.00,3.1463
1484.00,3.1437
1483.00,3.1374
1482.00,3.1307
1481.00,3.1279
1480.00,3.1282
1479.00,3.1256
1478.00,3.1154
1477.00,3.0990
1476.00,3.0815
1475.00,3.0663
1474.00,3.0532
1473.00,3.0410
1472.00,3.0297
1471.00,3.0206
1470.00,3.0129
1469.00,3.0042
1468.00,2.9942
1467.00,2.9859
1466.00,2.9825
1465.00,2.9844
1464.00,2.9881
1463.00,2.9882
1462.00,2.9819
1461.00,2.9703
1460.00,2.9566
1459.00,2.9444
1458.00,2.9381
1457.00,2.9449
1456.00,2.9720
1455.00,3.0199
1454.00,3.0819
1453.00,3.1564
1452.00,3.2449
1451.00,3.3371
1450.00,3.4098
1449.00,3.4416
1448.00,3.4317
1447.00,3.3991
1446.00,3.3630
1445.00,3.3270
1444.00,3.2835
1443.00,3.2299
1442.00,3.1744
1441.00,3.1262
1440.00,3.0881
1439.00,3.0594
1438.00,3.0393
1437.00,3.0275
1436.00,3.0226
1435.00,3.0239
1434.00,3.0315
1433.00,3.0461
1432.00,3.0660
1431.00,3.0858
1430.00,3.1013
1429.00,3.1130
1428.00,3.1239
1427.00,3.1348
1426.00,3.1464
1425.00,3.1595
1424.00,3.1730
1423.00,3.1842
1422.00,3.1930
1421.00,3.2009
1420.00,3.2055
1419.00,3.1998
1418.00,3.1809
1417.00,3.1537
1416.00,3.1230
1415.00,3.0894
1414.00,3.0532
1413.00,3.0159
1412.00,2.9790
1411.00,2.9439
1410.00,2.9118
1409.00,2.8819
1408.00,2.8512
1407.00,2.8178
1406.00,2.7829
1405.00,2.7489
1404.00,2.7164
1403.00,2.6844
1402.00,2.6523
1401.00,2.6194
1400.00,2.5851
1399.00,2.5490
1398.00,2.5113
1397.00,2.4727
1396.00,2.4335
1395.00,2.3938
1394.00,2.3539
1393.00,2.3141
1392.00,2.2736
1391.00,2.2324
1390.00,2.1916
1389.00,2.1525
1388.00,2.1153
1387.00,2.0809
1386.00,2.0510
1385.00,2.0266
1384.00,2.0073
1383.00,1.9927
1382.00,1.9829
1381.00,1.9783
1380.00,1.9783
1379.00,1.9823
1378.00,1.9899
1377.00,2.0008
1376.00,2.0153
1375.00,2.0346
1374.00,2.0595
1373.00,2.0905
1372.00,2.1266
1371.00,2.1663
1370.00,2.2085
1369.00,2.2530
1368.00,2.2998
1367.00,2.3483
1366.00,2.3972
1365.00,2.4451
1364.00,2.4912
1363.00,2.5349
1362.00,2.5760
1361.00,2.6153
1360.00,2.6543
1359.00,2.6945
1358.00,2.7374
1357.00,2.7843
1356.00,2.8351
1355.00,2.8880
1354.00,2.9409
1353.00,2.9936
1352.00,3.0485
1351.00,3.1063
1350.00,3.1621
1349.00,3.2053
1348.00,3.2255
1347.00,3.2197
1346.00,3.1959
1345.00,3.1686
1344.00,3.1515
1343.00,3.1522
1342.00,3.1714
1341.00,3.2032
1340.00,3.2333
1339.00,3.2389
1338.00,3.2033
1337.00,3.1355
1336.00,3.0618
1335.00,3.0022
1334.00,2.9633
1333.00,2.9439
1332.00,2.9403
1331.00,2.9502
1330.00,2.9714
1329.00,3.0008
1328.00,3.0333
1327.00,3.0651
1326.00,3.0966
1325.00,3.1309
1324.00,3.1694
1323.00,3.2087
1322.00,3.2446
1321.00,3.2783
1320.00,3.3152
1319.00,3.3586
1318.00,3.4051
1317.00,3.4486
1316.00,3.4873
1315.00,3.5244
1314.00,3.5609
1313.00,3.5902
1312.00,3.5962
1311.00,3.5633
1310.00,3.4913
1309.00,3.3956
1308.00,3.2952
1307.00,3.2035
1306.00,3.1278
1305.00,3.0717
1304.00,3.0361
1303.00,3.0194
1302.00,3.0178
1301.00,3.0261
1300.00,3.0392
1299.00,3.0546
1298.00,3.0724
1297.00,3.0946
1296.00,3.1211
1295.00,3.1477
1294.00,3.1691
1293.00,3.1849
1292.00,3.2004
1291.00,3.2205
1290.00,3.2456
1289.00,3.2734
1288.00,3.3013
1287.00,3.3266
1286.00,3.3455
1285.00,3.3577
1284.00,3.3700
1283.00,3.3903
1282.00,3.4186
1281.00,3.4466
1280.00,3.4661
1279.00,3.4766
1278.00,3.4841
1277.00,3.4932
1276.00,3.5046
1275.00,3.5169
1274.00,3.5274
1273.00,3.5321
1272.00,3.5298
1271.00,3.5234
1270.00,3.5180
1269.00,3.5191
1268.00,3.5290
1267.00,3.5435
1266.00,3.5546
1265.00,3.5571
1264.00,3.5550
1263.00,3.5562
1262.00,3.5641
1261.00,3.5739
1260.00,3.5788
1259.00,3.5774
1258.00,3.5716
1257.00,3.5641
1256.00,3.5580
1255.00,3.5560
1254.00,3.5603
1253.00,3.5735
1252.00,3.5981
1251.00,3.6338
1250.00,3.6724
1249.00,3.6975
1248.00,3.6990
1247.00,3.6881
1246.00,3.6827
1245.00,3.6897
1244.00,3.7013
1243.00,3.7044
1242.00,3.6978
1241.00,3.6939
1240.00,3.7008
1239.00,3.7094
1238.00,3.7027
1237.00,3.6792
1236.00,3.6564
1235.00,3.6526
1234.00,3.6734
1233.00,3.7114
1232.00,3.7574
1231.00,3.8070
1230.00,3.8504
1229.00,3.8659
1228.00,3.8450
1227.00,3.8113
1226.00,3.7993
1225.00,3.8260
1224.00,3.8836
1223.00,3.9454
1222.00,3.9801
1221.00,3.9727
1220.00,3.9417
1219.00,3.9115
1218.00,3.8871
1217.00,3.8585
1216.00,3.8175
1215.00,3.7719
1214.00,3.7380
1213.00,3.7244
1212.00,3.7270
1211.00,3.7332
1210.00,3.7336
1209.00,3.7305
1208.00,3.7337
1207.00,3.7499
1206.00,3.7765
1205.00,3.7995
1204.00,3.8025
1203.00,3.7835
1202.00,3.7597
1201.00,3.7480
1200.00,3.7462
1199.00,3.7486
1198.00,3.7621
1197.00,3.7930
1196.00,3.8321
1195.00,3.8591
1194.00,3.8651
1193.00,3.8622
1192.00,3.8638
1191.00,3.8601
1190.00,3.8340
1189.00,3.8010
1188.00,3.7843
1187.00,3.7877
1186.00,3.8072
1185.00,3.8359
1184.00,3.8597
1183.00,3.8601
1182.00,3.8308
1181.00,3.7916
1180.00,3.7719
1179.00,3.7866
1178.00,3.8251
1177.00,3.8553
1176.00,3.8525
1175.00,3.8301
1174.00,3.8137
1173.00,3.8076
1172.00,3.7991
1171.00,3.7841
1170.00,3.7779
1169.00,3.7959
1168.00,3.8292
1167.00,3.8488
1166.00,3.8402
1165.00,3.8131
1164.00,3.7802
1163.00,3.7512
1162.00,3.7337
1161.00,3.7356
1160.00,3.7575
1159.00,3.7829
1158.00,3.7908
1157.00,3.7855
1156.00,3.7917
1155.00,3.8188
1154.00,3.8559
1153.00,3.8941
1152.00,3.9235
1151.00,3.9351
1150.00,3.9381
1149.00,3.9387
1148.00,3.9260
1147.00,3.8905
1146.00,3.8499
1145.00,3.8313
1144.00,3.8439
1143.00,3.8736
1142.00,3.8847
1141.00,3.8572
1140.00,3.8155
1139.00,3.7841
1138.00,3.7654
1137.00,3.7539
1136.00,3.7487
1135.00,3.7505
1134.00,3.7537
1133.00,3.7494
1132.00,3.7330
1131.00,3.7084
1130.00,3.6848
1129.00,3.6729
1128.00,3.6819
1127.00,3.7147
1126.00,3.7666
1125.00,3.8287
1124.00,3.8917
1123.00,3.9496
1122.00,4.0021
1121.00,4.0525
1120.00,4.0929
1119.00,4.1254
1118.00,4.1610
1117.00,4.1893
1116.00,4.2134
1115.00,4.2373
1114.00,4.2332
1113.00,4.2007
1112.00,4.1762
1111.00,4.1962
1110.00,4.2523
1109.00,4.2465
1108.00,4.1257
1107.00,3.9949
1106.00,3.9338
1105.00,3.9494
1104.00,3.9922
1103.00,3.9839
1102.00,3.9452
1101.00,3.9125
1100.00,3.8574
1099.00,3.7874
1098.00,3.7425
1097.00,3.7416
1096.00,3.7769
1095.00,3.8175
1094.00,3.8268
1093.00,3.7946
1092.00,3.7411
1091.00,3.6966
1090.00,3.6781
1089.00,3.6791
1088.00,3.6806
1087.00,3.6687
1086.00,3.6479
1085.00,3.6307
1084.00,3.6171
1083.00,3.6015
1082.00,3.5831
1081.00,3.5701
1080.00,3.5711
1079.00,3.5836
1078.00,3.5990
1077.00,3.6074
1076.00,3.5989
1075.00,3.5709
1074.00,3.5384
1073.00,3.5206
1072.00,3.5212
1071.00,3.5261
1070.00,3.5183
1069.00,3.4964
1068.00,3.4704
1067.00,3.4449
1066.00,3.4220
1065.00,3.4086
1064.00,3.4055
1063.00,3.4022
1062.00,3.3878
1061.00,3.3647
1060.00,3.3439
1059.00,3.3336
1058.00,3.3355
1057.00,3.3486
1056.00,3.3691
1055.00,3.3917
1054.00,3.4163
1053.00,3.4460
1052.00,3.4731
1051.00,3.4818
1050.00,3.4684
1049.00,3.4451
1048.00,3.4269
1047.00,3.4182
1046.00,3.4096
1045.00,3.3866
1044.00,3.3415
1043.00,3.2822
1042.00,3.2258
1041.00,3.1835
1040.00,3.1543
1039.00,3.1302
1038.00,3.1048
1037.00,3.0771
1036.00,3.0477
1035.00,3.0165
1034.00,2.9854
1033.00,2.9591
1032.00,2.9422
1031.00,2.9348
1030.00,2.9347
1029.00,2.9404
1028.00,2.9526
1027.00,2.9720
1026.00,2.9988
1025.00,3.0353
1024.00,3.0858
1023.00,3.1516
1022.00,3.2277
1021.00,3.3067
1020.00,3.3828
1019.00,3.4461
1018.00,3.4753
1017.00,3.4562
1016.00,3.4016
1015.00,3.3355
1014.00,3.2722
1013.00,3.2170
1012.00,3.1707
1011.00,3.1320
1010.00,3.1020
1009.00,3.0861
1008.00,3.0908
1007.00,3.1180
1006.00,3.1616
1005.00,3.2102
1004.00,3.2523
1003.00,3.2809
1002.00,3.2977
1001.00,3.3153
1000.00,3.3523
999.00,3.4208
998.00,3.5150
997.00,3.6091
996.00,3.6769
995.00,3.7220
994.00,3.7580
993.00,3.7810
992.00,3.7890
991.00,3.8006
990.00,3.8325
989.00,3.8806
988.00,3.9259
987.00,3.9552
986.00,3.9687
985.00,3.9677
984.00,3.9434
983.00,3.8944
982.00,3.8437
981.00,3.8220
980.00,3.8501
979.00,3.9323
978.00,4.0385
977.00,4.1366
976.00,4.2611
975.00,4.4422
974.00,4.6262
973.00,4.6629
972.00,4.4894
971.00,4.3517
970.00,4.3121
969.00,4.3016
968.00,4.3058
967.00,4.3235
966.00,4.2961
965.00,4.2410
964.00,4.1934
963.00,4.1903
962.00,4.2732
961.00,4.3996
960.00,4.3553
959.00,4.2652
958.00,4.2571
957.00,4.3683
956.00,4.5470
955.00,4.4163
954.00,4.3273
953.00,4.3785
952.00,4.5379
951.00,4.8655
950.00,5.1273
949.00,5.1400
948.00,5.3978
947.00,4.6992
946.00,4.5205
945.00,4.4073
944.00,4.3425
943.00,4.3427
942.00,4.3330
941.00,4.3107
940.00,4.3483
939.00,4.4548
938.00,4.4968
937.00,4.3825
936.00,4.2568
935.00,4.1830
934.00,4.1328
933.00,4.0571
932.00,4.0030
931.00,4.0387
930.00,4.1990
929.00,4.5697
928.00,4.8681
927.00,4.4741
926.00,4.3942
925.00,4.4727
924.00,4.6049
923.00,4.4949
922.00,4.3894
921.00,4.3603
920.00,4.2971
919.00,4.2532
918.00,4.3304
917.00,4.6528
916.00,4.6058
915.00,4.2691
914.00,4.1844
913.00,4.2622
912.00,4.4619
911.00,4.5995
910.00,4.4880
909.00,4.3577
908.00,4.2307
907.00,4.1307
906.00,4.1153
905.00,4.1969
904.00,4.3176
903.00,4.3656
902.00,4.3603
901.00,4.3644
900.00,4.3568
899.00,4.3181
898.00,4.2793
897.00,4.3144
896.00,4.5242
895.00,5.0454
894.00,4.6933
893.00,4.5695
892.00,4.8835
891.00,4.4994
890.00,4.1146
889.00,4.0297
888.00,4.1574
887.00,4.4775
886.00,4.7657
885.00,4.8122
884.00,4.4767
883.00,4.3601
882.00,4.4958
881.00,4.6410
880.00,4.5990
879.00,4.6341
878.00,4.4150
877.00,4.2533
876.00,4.2201
875.00,4.1748
874.00,4.0852
873.00,4.0377
872.00,4.0690
871.00,4.1736
870.00,4.2737
869.00,4.2337
868.00,4.1775
867.00,4.1952
866.00,4.2102
865.00,4.1790
864.00,4.1811
863.00,4.2131
862.00,4.1948
861.00,4.1277
860.00,4.0845
859.00,4.1286
858.00,4.2846
857.00,4.5725
856.00,4.9060
855.00,4.5507
854.00,4.2997
853.00,4.2606
852.00,4.3134
851.00,4.2656
850.00,4.1853
849.00,4.1891
848.00,4.2132
847.00,4.1647
846.00,4.1210
845.00,4.1618
844.00,4.2903
843.00,4.4380
842.00,4.4452
841.00,4.3304
840.00,4.2013
839.00,4.1101
838.00,4.0910
837.00,4.1362
836.00,4.1746
835.00,4.1480
834.00,4.1042
833.00,4.0773
832.00,4.0496
831.00,4.0057
830.00,3.9797
829.00,4.0169
828.00,4.1075
827.00,4.1290
826.00,4.0613
825.00,4.0573
824.00,4.0915
823.00,4.0372
822.00,3.9582
821.00,3.9380
820.00,3.9984
819.00,4.1312
818.00,4.3407
817.00,4.6092
816.00,4.6727
815.00,4.6156
814.00,4.5168
813.00,4.4074
812.00,4.3474
811.00,4.3221
810.00,4.3023
809.00,4.3144
808.00,4.3923
807.00,4.4041
806.00,4.2998
805.00,4.2620
804.00,4.3694
803.00,4.3989
802.00,4.2238
801.00,4.1953
800.00,4.3225
799.00,4.3511
798.00,4.2153
797.00,4.1384
796.00,4.0866
795.00,4.0471
794.00,4.0904
793.00,4.2288
792.00,4.4140
791.00,4.5343
790.00,4.5501
789.00,4.5304
788.00,4.4882
787.00,4.4711
786.00,4.5148
785.00,4.5295
784.00,4.4375
783.00,4.3800
782.00,4.4086
781.00,4.4260
780.00,4.3966
779.00,4.3982
778.00,4.4951
777.00,4.6516
776.00,4.6023
775.00,4.4787
774.00,4.4020
773.00,4.3951
772.00,4.5579
771.00,4.7791
770.00,4.7287
769.00,4.6804
768.00,4.5841
767.00,4.5339
766.00,4.6317
765.00,4.6306
764.00,4.4736
763.00,4.4114
762.00,4.3773
761.00,4.2463
760.00,4.0646
759.00,3.9551
758.00,3.9618
757.00,4.0520
756.00,4.1006
755.00,4.0796
754.00,4.1038
753.00,4.1418
752.00,4.1271
751.00,4.1360
750.00,4.2798
749.00,4.6383
748.00,4.9342
747.00,4.8941
746.00,4.6754
745.00,4.4535
744.00,4.3559
743.00,4.2501
742.00,4.1310
741.00,4.0936
740.00,4.2406
739.00,4.4570
738.00,4.3233
737.00,4.3319
736.00,4.4873
735.00,4.4177
734.00,4.2596
733.00,4.1429
732.00,4.0712
731.00,4.0575
730.00,4.0982
729.00,4.3120
728.00,4.5419
727.00,4.2221
726.00,4.1234
725.00,4.3706
724.00,4.8070
723.00,4.3574
722.00,4.3026
721.00,4.5096
720.00,4.4464
719.00,4.2077
718.00,4.0524
717.00,4.0502
716.00,4.1750
715.00,4.3129
714.00,4.3295
713.00,4.3936
712.00,4.4275
711.00,4.2646
710.00,4.1806
709.00,4.2269
708.00,4.3189
707.00,4.3527
706.00,4.2724
705.00,4.2146
704.00,4.3799
703.00,4.5569
702.00,4.3307
701.00,4.3010
700.00,4.3917
699.00,4.5269
698.00,4.7446
697.00,4.5775
696.00,4.4301
695.00,4.4560
694.00,4.5425
693.00,4.5364
692.00,4.6499
691.00,4.9291
690.00,4.6747
689.00,4.4477
688.00,4.2881
687.00,4.1528
686.00,4.0631
685.00,3.9747
684.00,3.8853
683.00,3.8472
682.00,3.9217
681.00,4.1397
680.00,4.3395
679.00,4.2744
678.00,4.1401
677.00,4.0121
676.00,3.9148
675.00,3.8583
674.00,3.8365
673.00,3.8449
672.00,3.8829
671.00,3.9422
670.00,3.9931
669.00,4.0471
668.00,4.1908
667.00,4.4305
666.00,4.4034
665.00,4.1764
664.00,4.0643
663.00,4.1134
662.00,4.3223
661.00,4.4251
660.00,4.2221
659.00,4.0224
658.00,3.8977
657.00,3.8512
656.00,3.8635
655.00,3.8954
654.00,3.9199
653.00,3.9521
652.00,3.9707
651.00,3.9050
650.00,3.8251
649.00,3.8225
648.00,3.8998
647.00,4.0182
646.00,4.1203
645.00,4.2524
644.00,4.3053
643.00,4.2064
642.00,4.1436
641.00,4.3028
640.00,4.9323
639.00,4.5606
638.00,4.2199
637.00,4.1571
636.00,4.1199
635.00,4.1271
634.00,4.0926
633.00,4.2667
632.00,4.7682
631.00,4.1072
630.00,3.8487
629.00,3.8182
628.00,3.9154
627.00,4.1588
626.00,4.4531
625.00,4.7083
624.00,4.5180
623.00,4.3537
622.00,4.3913
621.00,4.6687
620.00,4.5674
619.00,4.4751
618.00,4.8385
617.00,4.3456
616.00,4.0245
615.00,3.9605
614.00,4.1342
613.00,4.7397
612.00,4.6424
611.00,4.5820
610.00,5.1862
609.00,5.1035
608.00,4.4793
607.00,4.1823
606.00,4.0890
605.00,4.0726
604.00,4.0674
603.00,4.1126
602.00,4.1931
601.00,4.1163
600.00,4.0044
599.00,3.9836
598.00,3.9900
597.00,3.9695
596.00,3.9188
595.00,3.8620
594.00,3.8017
593.00,3.7634
592.00,3.7761
591.00,3.8857
590.00,4.0920
589.00,4.0314
588.00,3.8116
587.00,3.7093
586.00,3.7017
585.00,3.7663
584.00,3.8730
583.00,3.9431
582.00,3.9522
581.00,3.9679
580.00,4.0456
579.00,4.2255
578.00,4.2037
577.00,4.0133
576.00,3.9523
575.00,4.0589
574.00,4.4279
573.00,4.4649
572.00,4.1790
571.00,4.1597
570.00,4.2423
569.00,4.2400
568.00,4.1318
567.00,4.0209
566.00,3.9586
565.00,3.9808
564.00,4.1504
563.00,4.5287
562.00,4.8893
561.00,4.6401
560.00,4.1906
559.00,3.9621
558.00,3.9040
557.00,4.0480
556.00,4.4135
555.00,4.4415
554.00,4.4979
553.00,4.3012
552.00,3.9209
551.00,3.7450
550.00,3.6796
549.00,3.6974
548.00,3.7748
547.00,3.8891
546.00,4.0755
545.00,4.3601
544.00,4.5039
543.00,4.3569
542.00,4.2926
541.00,4.2219
540.00,4.0675
539.00,4.0745
538.00,4.1293
537.00,4.0127
536.00,3.9339
535.00,3.9637
534.00,4.0374
533.00,4.0008
532.00,3.9762
531.00,4.0645
530.00,4.1864
529.00,4.2848
528.00,4.2253
527.00,4.1264
526.00,3.9377
525.00,3.6990
524.00,3.5625
523.00,3.5346
522.00,3.6159
521.00,3.7698
520.00,3.8551
519.00,3.8581
518.00,3.9064
517.00,3.8731
516.00,3.6481
515.00,3.4858
514.00,3.4479
513.00,3.5047
512.00,3.6043
511.00,3.6505
510.00,3.5996
509.00,3.5575
508.00,3.5902
507.00,3.7664
506.00,4.0628
505.00,3.9297
504.00,3.7214
503.00,3.6895
502.00,3.7741
501.00,3.6950
500.00,3.5075
499.00,3.4609
498.00,3.5663
497.00,3.6821
496.00,3.5942
495.00,3.5095
494.00,3.4975
493.00,3.5161
492.00,3.6040
491.00,3.7722
490.00,3.9278
489.00,4.0209
488.00,3.8746
487.00,3.6731
486.00,3.6180
485.00,3.8156
484.00,3.8820
483.00,3.4357
482.00,3.1992
481.00,3.1275
480.00,3.1742
479.00,3.3870
478.00,3.7629
477.00,3.9970
476.00,4.2740
475.00,3.9085
474.00,3.4769
473.00,3.3427
472.00,3.3406
471.00,3.4158
470.00,3.5512
469.00,3.6428
468.00,3.5955
467.00,3.5056
466.00,3.3833
465.00,3.2975
464.00,3.2905
463.00,3.3230
462.00,3.3571
461.00,3.4048
460.00,3.4840
459.00,3.6539
458.00,3.9147
457.00,3.8475
456.00,3.5866
455.00,3.5410
454.00,3.8719
453.00,3.6983
452.00,3.2745
451.00,3.1689
450.00,3.2105
449.00,3.3424
448.00,3.4926
447.00,3.4729
446.00,3.3386
445.00,3.2282
444.00,3.2001
443.00,3.2120
442.00,3.2179
441.00,3.2051
440.00,3.1587
439.00,3.1191
438.00,3.1481
437.00,3.2314
436.00,3.3979
435.00,3.5158
434.00,3.7848
433.00,4.2005
432.00,3.5084
431.00,3.2390
430.00,3.3061
429.00,3.8426
428.00,3.5231
427.00,3.2149
426.00,3.1564
425.00,3.1391
424.00,3.1942
423.00,3.2413
422.00,3.3195
421.00,3.4381
420.00,3.5061
419.00,3.4451
418.00,3.3100
417.00,3.2026
416.00,3.1455
415.00,3.1219
414.00,3.1121
413.00,3.1075
412.00,3.0575
411.00,2.9963
410.00,2.9672
409.00,3.0944
408.00,3.2729
407.00,2.9923
406.00,2.8349
405.00,2.8317
404.00,2.8633
403.00,2.8645
402.00,2.9225
401.00,3.0271
400.00,2.9351
