Created as New Dataset,Sample 166 By Administrator Date Friday, November 26 2021
cm-1,A
7000.00,1.1901
6999.00,1.1890
6998.00,1.1881
6997.00,1.1870
6996.00,1.1854
6995.00,1.1836
6994.00,1.1818
6993.00,1.1802
6992.00,1.1787
6991.00,1.1773
6990.00,1.1759
6989.00,1.1744
6988.00,1.1724
6987.00,1.1698
6986.00,1.1669
6985.00,1.1641
6984.00,1.1614
6983.00,1.1587
6982.00,1.1561
6981.00,1.1542
6980.00,1.1528
6979.00,1.1515
6978.00,1.1496
6977.00,1.1470
6976.00,1.1440
6975.00,1.1412
6974.00,1.1384
6973.00,1.1356
6972.00,1.1326
6971.00,1.1297
6970.00,1.1270
6969.00,1.1244
6968.00,1.1217
6967.00,1.1187
6966.00,1.1156
6965.00,1.1126
6964.00,1.1097
6963.00,1.1068
6962.00,1.1039
6961.00,1.1008
6960.00,1.0975
6959.00,1.0940
6958.00,1.0905
6957.00,1.0871
6956.00,1.0839
6955.00,1.0805
6954.00,1.0770
6953.00,1.0734
6952.00,1.0697
6951.00,1.0659
6950.00,1.0618
6949.00,1.0574
6948.00,1.0529
6947.00,1.0484
6946.00,1.0440
6945.00,1.0395
6944.00,1.0352
6943.00,1.0312
6942.00,1.0274
6941.00,1.0238
6940.00,1.0200
6939.00,1.0159
6938.00,1.0117
6937.00,1.0074
6936.00,1.0029
6935.00,0.9982
6934.00,0.9935
6933.00,0.9891
6932.00,0.9849
6931.00,0.9807
6930.00,0.9765
6929.00,0.9724
6928.00,0.9681
6927.00,0.9636
6926.00,0.9590
6925.00,0.9544
6924.00,0.9498
6923.00,0.9451
6922.00,0.9402
6921.00,0.9353
6920.00,0.9303
6919.00,0.9254
6918.00,0.9206
6917.00,0.9157
6916.00,0.9110
6915.00,0.9064
6914.00,0.9019
6913.00,0.8974
6912.00,0.8929
6911.00,0.8884
6910.00,0.8839
6909.00,0.8795
6908.00,0.8750
6907.00,0.8706
6906.00,0.8663
6905.00,0.8621
6904.00,0.8580
6903.00,0.8538
6902.00,0.8495
6901.00,0.8451
6900.00,0.8406
6899.00,0.8361
6898.00,0.8316
6897.00,0.8273
6896.00,0.8232
6895.00,0.8192
6894.00,0.8153
6893.00,0.8115
6892.00,0.8076
6891.00,0.8036
6890.00,0.7997
6889.00,0.7959
6888.00,0.7922
6887.00,0.7886
6886.00,0.7852
6885.00,0.7819
6884.00,0.7787
6883.00,0.7754
6882.00,0.7720
6881.00,0.7687
6880.00,0.7655
6879.00,0.7625
6878.00,0.7596
6877.00,0.7568
6876.00,0.7540
6875.00,0.7512
6874.00,0.7486
6873.00,0.7460
6872.00,0.7435
6871.00,0.7411
6870.00,0.7388
6869.00,0.7367
6868.00,0.7348
6867.00,0.7331
6866.00,0.7314
6865.00,0.7298
6864.00,0.7283
6863.00,0.7268
6862.00,0.7255
6861.00,0.7241
6860.00,0.7226
6859.00,0.7213
6858.00,0.7202
6857.00,0.7194
6856.00,0.7189
6855.00,0.7185
6854.00,0.7182
6853.00,0.7180
6852.00,0.7179
6851.00,0.7178
6850.00,0.7176
6849.00,0.7174
6848.00,0.7173
6847.00,0.7175
6846.00,0.7179
6845.00,0.7186
6844.00,0.7193
6843.00,0.7200
6842.00,0.7208
6841.00,0.7217
6840.00,0.7227
6839.00,0.7238
6838.00,0.7250
6837.00,0.7265
6836.00,0.7282
6835.00,0.7299
6834.00,0.7316
6833.00,0.7335
6832.00,0.7355
6831.00,0.7377
6830.00,0.7397
6829.00,0.7418
6828.00,0.7441
6827.00,0.7465
6826.00,0.7490
6825.00,0.7516
6824.00,0.7544
6823.00,0.7573
6822.00,0.7604
6821.00,0.7636
6820.00,0.7669
6819.00,0.7702
6818.00,0.7735
6817.00,0.7768
6816.00,0.7801
6815.00,0.7835
6814.00,0.7871
6813.00,0.7907
6812.00,0.7944
6811.00,0.7983
6810.00,0.8024
6809.00,0.8065
6808.00,0.8107
6807.00,0.8148
6806.00,0.8188
6805.00,0.8228
6804.00,0.8268
6803.00,0.8306
6802.00,0.8346
6801.00,0.8388
6800.00,0.8431
6799.00,0.8475
6798.00,0.8519
6797.00,0.8564
6796.00,0.8607
6795.00,0.8650
6794.00,0.8693
6793.00,0.8738
6792.00,0.8785
6791.00,0.8833
6790.00,0.8881
6789.00,0.8928
6788.00,0.8976
6787.00,0.9024
6786.00,0.9070
6785.00,0.9116
6784.00,0.9162
6783.00,0.9208
6782.00,0.9255
6781.00,0.9303
6780.00,0.9352
6779.00,0.9401
6778.00,0.9449
6777.00,0.9496
6776.00,0.9543
6775.00,0.9590
6774.00,0.9637
6773.00,0.9682
6772.00,0.9726
6771.00,0.9770
6770.00,0.9817
6769.00,0.9866
6768.00,0.9915
6767.00,0.9963
6766.00,1.0011
6765.00,1.0058
6764.00,1.0104
6763.00,1.0147
6762.00,1.0190
6761.00,1.0233
6760.00,1.0277
6759.00,1.0321
6758.00,1.0366
6757.00,1.0411
6756.00,1.0457
6755.00,1.0501
6754.00,1.0543
6753.00,1.0582
6752.00,1.0623
6751.00,1.0666
6750.00,1.0710
6749.00,1.0753
6748.00,1.0795
6747.00,1.0836
6746.00,1.0878
6745.00,1.0918
6744.00,1.0959
6743.00,1.0999
6742.00,1.1039
6741.00,1.1078
6740.00,1.1117
6739.00,1.1154
6738.00,1.1189
6737.00,1.1222
6736.00,1.1254
6735.00,1.1285
6734.00,1.1317
6733.00,1.1350
6732.00,1.1386
6731.00,1.1422
6730.00,1.1458
6729.00,1.1494
6728.00,1.1528
6727.00,1.1560
6726.00,1.1589
6725.00,1.1615
6724.00,1.1639
6723.00,1.1662
6722.00,1.1686
6721.00,1.1713
6720.00,1.1740
6719.00,1.1766
6718.00,1.1792
6717.00,1.1817
6716.00,1.1840
6715.00,1.1862
6714.00,1.1883
6713.00,1.1908
6712.00,1.1935
6711.00,1.1961
6710.00,1.1984
6709.00,1.2007
6708.00,1.2028
6707.00,1.2048
6706.00,1.2066
6705.00,1.2082
6704.00,1.2098
6703.00,1.2118
6702.00,1.2138
6701.00,1.2158
6700.00,1.2176
6699.00,1.2192
6698.00,1.2208
6697.00,1.2224
6696.00,1.2242
6695.00,1.2260
6694.00,1.2277
6693.00,1.2292
6692.00,1.2305
6691.00,1.2317
6690.00,1.2328
6689.00,1.2337
6688.00,1.2342
6687.00,1.2347
6686.00,1.2354
6685.00,1.2361
6684.00,1.2369
6683.00,1.2375
6682.00,1.2381
6681.00,1.2387
6680.00,1.2392
6679.00,1.2398
6678.00,1.2404
6677.00,1.2411
6676.00,1.2416
6675.00,1.2420
6674.00,1.2426
6673.00,1.2432
6672.00,1.2435
6671.00,1.2431
6670.00,1.2422
6669.00,1.2413
6668.00,1.2406
6667.00,1.2400
6666.00,1.2393
6665.00,1.2388
6664.00,1.2384
6663.00,1.2381
6662.00,1.2377
6661.00,1.2373
6660.00,1.2370
6659.00,1.2366
6658.00,1.2361
6657.00,1.2354
6656.00,1.2347
6655.00,1.2339
6654.00,1.2330
6653.00,1.2321
6652.00,1.2313
6651.00,1.2307
6650.00,1.2301
6649.00,1.2293
6648.00,1.2281
6647.00,1.2266
6646.00,1.2252
6645.00,1.2239
6644.00,1.2225
6643.00,1.2209
6642.00,1.2190
6641.00,1.2171
6640.00,1.2153
6639.00,1.2135
6638.00,1.2115
6637.00,1.2094
6636.00,1.2075
6635.00,1.2058
6634.00,1.2041
6633.00,1.2023
6632.00,1.2002
6631.00,1.1980
6630.00,1.1957
6629.00,1.1935
6628.00,1.1912
6627.00,1.1888
6626.00,1.1862
6625.00,1.1834
6624.00,1.1804
6623.00,1.1776
6622.00,1.1748
6621.00,1.1721
6620.00,1.1692
6619.00,1.1664
6618.00,1.1638
6617.00,1.1611
6616.00,1.1585
6615.00,1.1557
6614.00,1.1527
6613.00,1.1497
6612.00,1.1464
6611.00,1.1429
6610.00,1.1392
6609.00,1.1354
6608.00,1.1314
6607.00,1.1273
6606.00,1.1234
6605.00,1.1197
6604.00,1.1161
6603.00,1.1125
6602.00,1.1090
6601.00,1.1055
6600.00,1.1020
6599.00,1.0983
6598.00,1.0946
6597.00,1.0908
6596.00,1.0870
6595.00,1.0829
6594.00,1.0786
6593.00,1.0740
6592.00,1.0695
6591.00,1.0650
6590.00,1.0606
6589.00,1.0563
6588.00,1.0518
6587.00,1.0473
6586.00,1.0429
6585.00,1.0384
6584.00,1.0337
6583.00,1.0289
6582.00,1.0240
6581.00,1.0191
6580.00,1.0142
6579.00,1.0094
6578.00,1.0049
6577.00,1.0006
6576.00,0.9962
6575.00,0.9915
6574.00,0.9866
6573.00,0.9816
6572.00,0.9764
6571.00,0.9710
6570.00,0.9658
6569.00,0.9609
6568.00,0.9561
6567.00,0.9513
6566.00,0.9465
6565.00,0.9416
6564.00,0.9366
6563.00,0.9315
6562.00,0.9264
6561.00,0.9215
6560.00,0.9167
6559.00,0.9119
6558.00,0.9071
6557.00,0.9023
6556.00,0.8975
6555.00,0.8926
6554.00,0.8877
6553.00,0.8828
6552.00,0.8781
6551.00,0.8734
6550.00,0.8688
6549.00,0.8643
6548.00,0.8598
6547.00,0.8553
6546.00,0.8508
6545.00,0.8463
6544.00,0.8417
6543.00,0.8373
6542.00,0.8330
6541.00,0.8288
6540.00,0.8246
6539.00,0.8204
6538.00,0.8162
6537.00,0.8122
6536.00,0.8083
6535.00,0.8044
6534.00,0.8006
6533.00,0.7970
6532.00,0.7935
6531.00,0.7901
6530.00,0.7866
6529.00,0.7832
6528.00,0.7798
6527.00,0.7765
6526.00,0.7733
6525.00,0.7703
6524.00,0.7674
6523.00,0.7648
6522.00,0.7623
6521.00,0.7599
6520.00,0.7575
6519.00,0.7552
6518.00,0.7530
6517.00,0.7509
6516.00,0.7489
6515.00,0.7469
6514.00,0.7452
6513.00,0.7438
6512.00,0.7426
6511.00,0.7414
6510.00,0.7403
6509.00,0.7392
6508.00,0.7383
6507.00,0.7374
6506.00,0.7366
6505.00,0.7361
6504.00,0.7358
6503.00,0.7356
6502.00,0.7356
6501.00,0.7357
6500.00,0.7361
6499.00,0.7365
6498.00,0.7369
6497.00,0.7373
6496.00,0.7380
6495.00,0.7388
6494.00,0.7400
6493.00,0.7413
6492.00,0.7429
6491.00,0.7446
6490.00,0.7464
6489.00,0.7483
6488.00,0.7503
6487.00,0.7522
6486.00,0.7542
6485.00,0.7562
6484.00,0.7586
6483.00,0.7611
6482.00,0.7639
6481.00,0.7667
6480.00,0.7696
6479.00,0.7727
6478.00,0.7759
6477.00,0.7792
6476.00,0.7826
6475.00,0.7861
6474.00,0.7898
6473.00,0.7935
6472.00,0.7973
6471.00,0.8011
6470.00,0.8049
6469.00,0.8088
6468.00,0.8129
6467.00,0.8170
6466.00,0.8212
6465.00,0.8256
6464.00,0.8300
6463.00,0.8344
6462.00,0.8388
6461.00,0.8433
6460.00,0.8479
6459.00,0.8525
6458.00,0.8572
6457.00,0.8620
6456.00,0.8666
6455.00,0.8712
6454.00,0.8758
6453.00,0.8806
6452.00,0.8856
6451.00,0.8906
6450.00,0.8957
6449.00,0.9008
6448.00,0.9059
6447.00,0.9109
6446.00,0.9160
6445.00,0.9211
6444.00,0.9262
6443.00,0.9313
6442.00,0.9365
6441.00,0.9419
6440.00,0.9473
6439.00,0.9525
6438.00,0.9575
6437.00,0.9625
6436.00,0.9677
6435.00,0.9728
6434.00,0.9779
6433.00,0.9829
6432.00,0.9879
6431.00,0.9930
6430.00,0.9980
6429.00,1.0030
6428.00,1.0079
6427.00,1.0129
6426.00,1.0179
6425.00,1.0232
6424.00,1.0285
6423.00,1.0335
6422.00,1.0382
6421.00,1.0425
6420.00,1.0468
6419.00,1.0513
6418.00,1.0559
6417.00,1.0606
6416.00,1.0654
6415.00,1.0701
6414.00,1.0747
6413.00,1.0792
6412.00,1.0836
6411.00,1.0879
6410.00,1.0922
6409.00,1.0966
6408.00,1.1011
6407.00,1.1053
6406.00,1.1093
6405.00,1.1131
6404.00,1.1169
6403.00,1.1209
6402.00,1.1249
6401.00,1.1289
6400.00,1.1330
6399.00,1.1371
6398.00,1.1409
6397.00,1.1443
6396.00,1.1475
6395.00,1.1510
6394.00,1.1547
6393.00,1.1584
6392.00,1.1620
6391.00,1.1654
6390.00,1.1686
6389.00,1.1715
6388.00,1.1742
6387.00,1.1768
6386.00,1.1798
6385.00,1.1830
6384.00,1.1863
6383.00,1.1895
6382.00,1.1923
6381.00,1.1949
6380.00,1.1975
6379.00,1.2002
6378.00,1.2030
6377.00,1.2057
6376.00,1.2086
6375.00,1.2115
6374.00,1.2142
6373.00,1.2163
6372.00,1.2180
6371.00,1.2196
6370.00,1.2212
6369.00,1.2228
6368.00,1.2245
6367.00,1.2263
6366.00,1.2283
6365.00,1.2304
6364.00,1.2323
6363.00,1.2342
6362.00,1.2362
6361.00,1.2381
6360.00,1.2398
6359.00,1.2413
6358.00,1.2427
6357.00,1.2443
6356.00,1.2460
6355.00,1.2475
6354.00,1.2486
6353.00,1.2496
6352.00,1.2506
6351.00,1.2517
6350.00,1.2526
6349.00,1.2533
6348.00,1.2539
6347.00,1.2549
6346.00,1.2560
6345.00,1.2568
6344.00,1.2573
6343.00,1.2574
6342.00,1.2572
6341.00,1.2570
6340.00,1.2570
6339.00,1.2572
6338.00,1.2577
6337.00,1.2581
6336.00,1.2584
6335.00,1.2585
6334.00,1.2584
6333.00,1.2582
6332.00,1.2576
6331.00,1.2571
6330.00,1.2567
6329.00,1.2566
6328.00,1.2565
6327.00,1.2563
6326.00,1.2560
6325.00,1.2555
6324.00,1.2550
6323.00,1.2545
6322.00,1.2539
6321.00,1.2532
6320.00,1.2523
6319.00,1.2514
6318.00,1.2504
6317.00,1.2492
6316.00,1.2480
6315.00,1.2469
6314.00,1.2457
6313.00,1.2446
6312.00,1.2434
6311.00,1.2420
6310.00,1.2403
6309.00,1.2384
6308.00,1.2363
6307.00,1.2343
6306.00,1.2326
6305.00,1.2310
6304.00,1.2295
6303.00,1.2281
6302.00,1.2265
6301.00,1.2246
6300.00,1.2223
6299.00,1.2200
6298.00,1.2179
6297.00,1.2158
6296.00,1.2135
6295.00,1.2111
6294.00,1.2087
6293.00,1.2062
6292.00,1.2036
6291.00,1.2010
6290.00,1.1985
6289.00,1.1960
6288.00,1.1933
6287.00,1.1903
6286.00,1.1871
6285.00,1.1839
6284.00,1.1809
6283.00,1.1780
6282.00,1.1752
6281.00,1.1725
6280.00,1.1696
6279.00,1.1664
6278.00,1.1631
6277.00,1.1595
6276.00,1.1559
6275.00,1.1522
6274.00,1.1486
6273.00,1.1450
6272.00,1.1413
6271.00,1.1375
6270.00,1.1338
6269.00,1.1303
6268.00,1.1266
6267.00,1.1227
6266.00,1.1185
6265.00,1.1143
6264.00,1.1099
6263.00,1.1054
6262.00,1.1010
6261.00,1.0969
6260.00,1.0929
6259.00,1.0887
6258.00,1.0843
6257.00,1.0797
6256.00,1.0751
6255.00,1.0704
6254.00,1.0657
6253.00,1.0611
6252.00,1.0566
6251.00,1.0520
6250.00,1.0474
6249.00,1.0427
6248.00,1.0379
6247.00,1.0332
6246.00,1.0284
6245.00,1.0235
6244.00,1.0185
6243.00,1.0135
6242.00,1.0084
6241.00,1.0035
6240.00,0.9986
6239.00,0.9938
6238.00,0.9890
6237.00,0.9842
6236.00,0.9793
6235.00,0.9743
6234.00,0.9692
6233.00,0.9639
6232.00,0.9587
6231.00,0.9535
6230.00,0.9485
6229.00,0.9436
6228.00,0.9388
6227.00,0.9340
6226.00,0.9293
6225.00,0.9246
6224.00,0.9198
6223.00,0.9150
6222.00,0.9101
6221.00,0.9052
6220.00,0.9003
6219.00,0.8955
6218.00,0.8907
6217.00,0.8860
6216.00,0.8812
6215.00,0.8763
6214.00,0.8715
6213.00,0.8669
6212.00,0.8624
6211.00,0.8579
6210.00,0.8535
6209.00,0.8491
6208.00,0.8447
6207.00,0.8402
6206.00,0.8358
6205.00,0.8313
6204.00,0.8270
6203.00,0.8228
6202.00,0.8187
6201.00,0.8146
6200.00,0.8106
6199.00,0.8066
6198.00,0.8026
6197.00,0.7987
6196.00,0.7949
6195.00,0.7912
6194.00,0.7876
6193.00,0.7840
6192.00,0.7805
6191.00,0.7769
6190.00,0.7733
6189.00,0.7698
6188.00,0.7664
6187.00,0.7630
6186.00,0.7597
6185.00,0.7566
6184.00,0.7535
6183.00,0.7505
6182.00,0.7476
6181.00,0.7447
6180.00,0.7420
6179.00,0.7392
6178.00,0.7367
6177.00,0.7342
6176.00,0.7319
6175.00,0.7296
6174.00,0.7276
6173.00,0.7257
6172.00,0.7239
6171.00,0.7222
6170.00,0.7208
6169.00,0.7195
6168.00,0.7184
6167.00,0.7174
6166.00,0.7165
6165.00,0.7157
6164.00,0.7150
6163.00,0.7143
6162.00,0.7138
6161.00,0.7136
6160.00,0.7135
6159.00,0.7137
6158.00,0.7139
6157.00,0.7144
6156.00,0.7150
6155.00,0.7157
6154.00,0.7166
6153.00,0.7176
6152.00,0.7188
6151.00,0.7201
6150.00,0.7216
6149.00,0.7231
6148.00,0.7247
6147.00,0.7266
6146.00,0.7287
6145.00,0.7310
6144.00,0.7334
6143.00,0.7360
6142.00,0.7386
6141.00,0.7414
6140.00,0.7442
6139.00,0.7472
6138.00,0.7503
6137.00,0.7537
6136.00,0.7572
6135.00,0.7608
6134.00,0.7645
6133.00,0.7683
6132.00,0.7721
6131.00,0.7762
6130.00,0.7803
6129.00,0.7847
6128.00,0.7890
6127.00,0.7934
6126.00,0.7977
6125.00,0.8020
6124.00,0.8064
6123.00,0.8109
6122.00,0.8156
6121.00,0.8206
6120.00,0.8258
6119.00,0.8309
6118.00,0.8360
6117.00,0.8410
6116.00,0.8459
6115.00,0.8508
6114.00,0.8559
6113.00,0.8611
6112.00,0.8664
6111.00,0.8719
6110.00,0.8774
6109.00,0.8830
6108.00,0.8886
6107.00,0.8941
6106.00,0.8997
6105.00,0.9053
6104.00,0.9109
6103.00,0.9165
6102.00,0.9220
6101.00,0.9276
6100.00,0.9332
6099.00,0.9390
6098.00,0.9447
6097.00,0.9504
6096.00,0.9559
6095.00,0.9614
6094.00,0.9670
6093.00,0.9725
6092.00,0.9780
6091.00,0.9835
6090.00,0.9891
6089.00,0.9948
6088.00,1.0006
6087.00,1.0063
6086.00,1.0119
6085.00,1.0176
6084.00,1.0232
6083.00,1.0285
6082.00,1.0338
6081.00,1.0391
6080.00,1.0444
6079.00,1.0498
6078.00,1.0551
6077.00,1.0605
6076.00,1.0657
6075.00,1.0709
6074.00,1.0759
6073.00,1.0808
6072.00,1.0858
6071.00,1.0907
6070.00,1.0955
6069.00,1.1003
6068.00,1.1050
6067.00,1.1097
6066.00,1.1143
6065.00,1.1190
6064.00,1.1237
6063.00,1.1285
6062.00,1.1333
6061.00,1.1381
6060.00,1.1428
6059.00,1.1473
6058.00,1.1516
6057.00,1.1557
6056.00,1.1595
6055.00,1.1632
6054.00,1.1669
6053.00,1.1708
6052.00,1.1748
6051.00,1.1790
6050.00,1.1831
6049.00,1.1873
6048.00,1.1912
6047.00,1.1950
6046.00,1.1988
6045.00,1.2025
6044.00,1.2060
6043.00,1.2094
6042.00,1.2127
6041.00,1.2160
6040.00,1.2191
6039.00,1.2222
6038.00,1.2252
6037.00,1.2281
6036.00,1.2311
6035.00,1.2340
6034.00,1.2372
6033.00,1.2404
6032.00,1.2436
6031.00,1.2466
6030.00,1.2494
6029.00,1.2520
6028.00,1.2544
6027.00,1.2566
6026.00,1.2587
6025.00,1.2609
6024.00,1.2631
6023.00,1.2653
6022.00,1.2675
6021.00,1.2698
6020.00,1.2721
6019.00,1.2744
6018.00,1.2767
6017.00,1.2787
6016.00,1.2805
6015.00,1.2819
6014.00,1.2833
6013.00,1.2849
6012.00,1.2867
6011.00,1.2886
6010.00,1.2904
6009.00,1.2921
6008.00,1.2935
6007.00,1.2946
6006.00,1.2956
6005.00,1.2967
6004.00,1.2979
6003.00,1.2991
6002.00,1.3001
6001.00,1.3012
6000.00,1.3023
5999.00,1.3035
5998.00,1.3046
5997.00,1.3055
5996.00,1.3065
5995.00,1.3074
5994.00,1.3080
5993.00,1.3083
5992.00,1.3086
5991.00,1.3090
5990.00,1.3092
5989.00,1.3093
5988.00,1.3093
5987.00,1.3094
5986.00,1.3095
5985.00,1.3096
5984.00,1.3095
5983.00,1.3095
5982.00,1.3096
5981.00,1.3094
5980.00,1.3090
5979.00,1.3085
5978.00,1.3082
5977.00,1.3080
5976.00,1.3076
5975.00,1.3069
5974.00,1.3060
5973.00,1.3050
5972.00,1.3039
5971.00,1.3026
5970.00,1.3012
5969.00,1.3000
5968.00,1.2990
5967.00,1.2981
5966.00,1.2972
5965.00,1.2965
5964.00,1.2959
5963.00,1.2952
5962.00,1.2943
5961.00,1.2932
5960.00,1.2921
5959.00,1.2907
5958.00,1.2892
5957.00,1.2876
5956.00,1.2861
5955.00,1.2845
5954.00,1.2826
5953.00,1.2806
5952.00,1.2784
5951.00,1.2762
5950.00,1.2740
5949.00,1.2718
5948.00,1.2696
5947.00,1.2676
5946.00,1.2656
5945.00,1.2634
5944.00,1.2611
5943.00,1.2586
5942.00,1.2560
5941.00,1.2536
5940.00,1.2512
5939.00,1.2488
5938.00,1.2463
5937.00,1.2438
5936.00,1.2412
5935.00,1.2383
5934.00,1.2353
5933.00,1.2322
5932.00,1.2291
5931.00,1.2259
5930.00,1.2226
5929.00,1.2193
5928.00,1.2159
5927.00,1.2124
5926.00,1.2090
5925.00,1.2054
5924.00,1.2019
5923.00,1.1982
5922.00,1.1945
5921.00,1.1907
5920.00,1.1869
5919.00,1.1829
5918.00,1.1789
5917.00,1.1747
5916.00,1.1705
5915.00,1.1663
5914.00,1.1619
5913.00,1.1574
5912.00,1.1529
5911.00,1.1484
5910.00,1.1439
5909.00,1.1394
5908.00,1.1350
5907.00,1.1305
5906.00,1.1261
5905.00,1.1216
5904.00,1.1170
5903.00,1.1122
5902.00,1.1072
5901.00,1.1020
5900.00,1.0967
5899.00,1.0915
5898.00,1.0862
5897.00,1.0811
5896.00,1.0761
5895.00,1.0711
5894.00,1.0659
5893.00,1.0605
5892.00,1.0551
5891.00,1.0496
5890.00,1.0442
5889.00,1.0388
5888.00,1.0335
5887.00,1.0280
5886.00,1.0224
5885.00,1.0168
5884.00,1.0111
5883.00,1.0054
5882.00,0.9998
5881.00,0.9942
5880.00,0.9887
5879.00,0.9830
5878.00,0.9774
5877.00,0.9717
5876.00,0.9660
5875.00,0.9602
5874.00,0.9545
5873.00,0.9488
5872.00,0.9432
5871.00,0.9376
5870.00,0.9319
5869.00,0.9262
5868.00,0.9205
5867.00,0.9147
5866.00,0.9089
5865.00,0.9033
5864.00,0.8977
5863.00,0.8921
5862.00,0.8866
5861.00,0.8812
5860.00,0.8758
5859.00,0.8704
5858.00,0.8651
5857.00,0.8598
5856.00,0.8546
5855.00,0.8494
5854.00,0.8442
5853.00,0.8391
5852.00,0.8342
5851.00,0.8292
5850.00,0.8243
5849.00,0.8194
5848.00,0.8146
5847.00,0.8099
5846.00,0.8054
5845.00,0.8010
5844.00,0.7967
5843.00,0.7926
5842.00,0.7885
5841.00,0.7844
5840.00,0.7803
5839.00,0.7764
5838.00,0.7726
5837.00,0.7691
5836.00,0.7658
5835.00,0.7627
5834.00,0.7597
5833.00,0.7567
5832.00,0.7538
5831.00,0.7509
5830.00,0.7482
5829.00,0.7457
5828.00,0.7434
5827.00,0.7413
5826.00,0.7394
5825.00,0.7377
5824.00,0.7361
5823.00,0.7346
5822.00,0.7333
5821.00,0.7321
5820.00,0.7311
5819.00,0.7302
5818.00,0.7296
5817.00,0.7291
5816.00,0.7288
5815.00,0.7286
5814.00,0.7286
5813.00,0.7288
5812.00,0.7291
5811.00,0.7296
5810.00,0.7304
5809.00,0.7314
5808.00,0.7325
5807.00,0.7339
5806.00,0.7353
5805.00,0.7370
5804.00,0.7388
5803.00,0.7407
5802.00,0.7429
5801.00,0.7451
5800.00,0.7476
5799.00,0.7501
5798.00,0.7529
5797.00,0.7558
5796.00,0.7588
5795.00,0.7620
5794.00,0.7653
5793.00,0.7687
5792.00,0.7723
5791.00,0.7759
5790.00,0.7797
5789.00,0.7837
5788.00,0.7877
5787.00,0.7919
5786.00,0.7964
5785.00,0.8011
5784.00,0.8058
5783.00,0.8106
5782.00,0.8153
5781.00,0.8202
5780.00,0.8252
5779.00,0.8303
5778.00,0.8356
5777.00,0.8409
5776.00,0.8464
5775.00,0.8519
5774.00,0.8574
5773.00,0.8629
5772.00,0.8686
5771.00,0.8744
5770.00,0.8802
5769.00,0.8861
5768.00,0.8920
5767.00,0.8979
5766.00,0.9038
5765.00,0.9098
5764.00,0.9157
5763.00,0.9217
5762.00,0.9278
5761.00,0.9340
5760.00,0.9402
5759.00,0.9465
5758.00,0.9528
5757.00,0.9592
5756.00,0.9654
5755.00,0.9716
5754.00,0.9777
5753.00,0.9837
5752.00,0.9896
5751.00,0.9956
5750.00,1.0017
5749.00,1.0079
5748.00,1.0141
5747.00,1.0204
5746.00,1.0266
5745.00,1.0326
5744.00,1.0386
5743.00,1.0445
5742.00,1.0504
5741.00,1.0563
5740.00,1.0620
5739.00,1.0677
5738.00,1.0733
5737.00,1.0790
5736.00,1.0846
5735.00,1.0901
5734.00,1.0955
5733.00,1.1010
5732.00,1.1065
5731.00,1.1119
5730.00,1.1173
5729.00,1.1227
5728.00,1.1280
5727.00,1.1332
5726.00,1.1382
5725.00,1.1432
5724.00,1.1480
5723.00,1.1529
5722.00,1.1577
5721.00,1.1624
5720.00,1.1670
5719.00,1.1716
5718.00,1.1762
5717.00,1.1809
5716.00,1.1855
5715.00,1.1901
5714.00,1.1946
5713.00,1.1990
5712.00,1.2032
5711.00,1.2072
5710.00,1.2111
5709.00,1.2151
5708.00,1.2190
5707.00,1.2229
5706.00,1.2268
5705.00,1.2308
5704.00,1.2346
5703.00,1.2383
5702.00,1.2420
5701.00,1.2456
5700.00,1.2491
5699.00,1.2524
5698.00,1.2556
5697.00,1.2588
5696.00,1.2620
5695.00,1.2652
5694.00,1.2684
5693.00,1.2717
5692.00,1.2751
5691.00,1.2785
5690.00,1.2817
5689.00,1.2848
5688.00,1.2876
5687.00,1.2903
5686.00,1.2928
5685.00,1.2953
5684.00,1.2979
5683.00,1.3005
5682.00,1.3032
5681.00,1.3057
5680.00,1.3081
5679.00,1.3103
5678.00,1.3125
5677.00,1.3147
5676.00,1.3169
5675.00,1.3188
5674.00,1.3206
5673.00,1.3225
5672.00,1.3244
5671.00,1.3263
5670.00,1.3281
5669.00,1.3298
5668.00,1.3316
5667.00,1.3332
5666.00,1.3347
5665.00,1.3360
5664.00,1.3374
5663.00,1.3388
5662.00,1.3400
5661.00,1.3410
5660.00,1.3418
5659.00,1.3426
5658.00,1.3435
5657.00,1.3446
5656.00,1.3457
5655.00,1.3468
5654.00,1.3479
5653.00,1.3489
5652.00,1.3496
5651.00,1.3502
5650.00,1.3505
5649.00,1.3509
5648.00,1.3515
5647.00,1.3523
5646.00,1.3530
5645.00,1.3535
5644.00,1.3537
5643.00,1.3537
5642.00,1.3534
5641.00,1.3531
5640.00,1.3527
5639.00,1.3524
5638.00,1.3519
5637.00,1.3513
5636.00,1.3506
5635.00,1.3501
5634.00,1.3497
5633.00,1.3494
5632.00,1.3492
5631.00,1.3489
5630.00,1.3482
5629.00,1.3473
5628.00,1.3463
5627.00,1.3454
5626.00,1.3446
5625.00,1.3439
5624.00,1.3433
5623.00,1.3424
5622.00,1.3412
5621.00,1.3396
5620.00,1.3380
5619.00,1.3363
5618.00,1.3347
5617.00,1.3331
5616.00,1.3316
5615.00,1.3302
5614.00,1.3288
5613.00,1.3273
5612.00,1.3258
5611.00,1.3244
5610.00,1.3229
5609.00,1.3212
5608.00,1.3192
5607.00,1.3171
5606.00,1.3151
5605.00,1.3130
5604.00,1.3107
5603.00,1.3083
5602.00,1.3058
5601.00,1.3031
5600.00,1.3002
5599.00,1.2972
5598.00,1.2942
5597.00,1.2914
5596.00,1.2888
5595.00,1.2862
5594.00,1.2835
5593.00,1.2807
5592.00,1.2776
5591.00,1.2744
5590.00,1.2711
5589.00,1.2678
5588.00,1.2647
5587.00,1.2617
5586.00,1.2586
5585.00,1.2553
5584.00,1.2516
5583.00,1.2479
5582.00,1.2440
5581.00,1.2402
5580.00,1.2363
5579.00,1.2324
5578.00,1.2286
5577.00,1.2248
5576.00,1.2209
5575.00,1.2169
5574.00,1.2126
5573.00,1.2082
5572.00,1.2036
5571.00,1.1989
5570.00,1.1942
5569.00,1.1895
5568.00,1.1848
5567.00,1.1802
5566.00,1.1755
5565.00,1.1708
5564.00,1.1662
5563.00,1.1617
5562.00,1.1570
5561.00,1.1520
5560.00,1.1468
5559.00,1.1415
5558.00,1.1360
5557.00,1.1306
5556.00,1.1252
5555.00,1.1199
5554.00,1.1145
5553.00,1.1090
5552.00,1.1033
5551.00,1.0976
5550.00,1.0917
5549.00,1.0858
5548.00,1.0801
5547.00,1.0743
5546.00,1.0686
5545.00,1.0627
5544.00,1.0569
5543.00,1.0509
5542.00,1.0449
5541.00,1.0388
5540.00,1.0325
5539.00,1.0263
5538.00,1.0200
5537.00,1.0138
5536.00,1.0074
5535.00,1.0011
5534.00,0.9948
5533.00,0.9886
5532.00,0.9822
5531.00,0.9758
5530.00,0.9694
5529.00,0.9630
5528.00,0.9566
5527.00,0.9502
5526.00,0.9438
5525.00,0.9374
5524.00,0.9310
5523.00,0.9246
5522.00,0.9183
5521.00,0.9120
5520.00,0.9056
5519.00,0.8992
5518.00,0.8929
5517.00,0.8865
5516.00,0.8803
5515.00,0.8742
5514.00,0.8681
5513.00,0.8621
5512.00,0.8560
5511.00,0.8501
5510.00,0.8442
5509.00,0.8383
5508.00,0.8325
5507.00,0.8267
5506.00,0.8210
5505.00,0.8154
5504.00,0.8098
5503.00,0.8044
5502.00,0.7992
5501.00,0.7940
5500.00,0.7890
5499.00,0.7840
5498.00,0.7791
5497.00,0.7743
5496.00,0.7697
5495.00,0.7652
5494.00,0.7608
5493.00,0.7565
5492.00,0.7524
5491.00,0.7484
5490.00,0.7445
5489.00,0.7408
5488.00,0.7373
5487.00,0.7339
5486.00,0.7307
5485.00,0.7276
5484.00,0.7248
5483.00,0.7222
5482.00,0.7198
5481.00,0.7176
5480.00,0.7156
5479.00,0.7138
5478.00,0.7122
5477.00,0.7107
5476.00,0.7094
5475.00,0.7082
5474.00,0.7073
5473.00,0.7066
5472.00,0.7060
5471.00,0.7057
5470.00,0.7056
5469.00,0.7058
5468.00,0.7063
5467.00,0.7070
5466.00,0.7079
5465.00,0.7090
5464.00,0.7102
5463.00,0.7116
5462.00,0.7131
5461.00,0.7149
5460.00,0.7168
5459.00,0.7189
5458.00,0.7212
5457.00,0.7237
5456.00,0.7265
5455.00,0.7296
5454.00,0.7329
5453.00,0.7364
5452.00,0.7400
5451.00,0.7437
5450.00,0.7475
5449.00,0.7515
5448.00,0.7557
5447.00,0.7601
5446.00,0.7646
5445.00,0.7693
5444.00,0.7741
5443.00,0.7790
5442.00,0.7840
5441.00,0.7892
5440.00,0.7945
5439.00,0.7999
5438.00,0.8055
5437.00,0.8112
5436.00,0.8170
5435.00,0.8230
5434.00,0.8290
5433.00,0.8352
5432.00,0.8414
5431.00,0.8476
5430.00,0.8538
5429.00,0.8601
5428.00,0.8666
5427.00,0.8732
5426.00,0.8798
5425.00,0.8863
5424.00,0.8929
5423.00,0.8996
5422.00,0.9063
5421.00,0.9130
5420.00,0.9197
5419.00,0.9264
5418.00,0.9331
5417.00,0.9399
5416.00,0.9467
5415.00,0.9536
5414.00,0.9605
5413.00,0.9673
5412.00,0.9742
5411.00,0.9808
5410.00,0.9874
5409.00,0.9940
5408.00,1.0006
5407.00,1.0072
5406.00,1.0139
5405.00,1.0206
5404.00,1.0272
5403.00,1.0338
5402.00,1.0404
5401.00,1.0470
5400.00,1.0536
5399.00,1.0602
5398.00,1.0666
5397.00,1.0729
5396.00,1.0792
5395.00,1.0854
5394.00,1.0917
5393.00,1.0981
5392.00,1.1044
5391.00,1.1107
5390.00,1.1168
5389.00,1.1227
5388.00,1.1285
5387.00,1.1344
5386.00,1.1403
5385.00,1.1461
5384.00,1.1519
5383.00,1.1577
5382.00,1.1634
5381.00,1.1692
5380.00,1.1748
5379.00,1.1802
5378.00,1.1855
5377.00,1.1907
5376.00,1.1959
5375.00,1.2009
5374.00,1.2059
5373.00,1.2109
5372.00,1.2158
5371.00,1.2208
5370.00,1.2258
5369.00,1.2307
5368.00,1.2356
5367.00,1.2404
5366.00,1.2451
5365.00,1.2496
5364.00,1.2542
5363.00,1.2588
5362.00,1.2634
5361.00,1.2678
5360.00,1.2719
5359.00,1.2759
5358.00,1.2797
5357.00,1.2835
5356.00,1.2872
5355.00,1.2909
5354.00,1.2947
5353.00,1.2984
5352.00,1.3020
5351.00,1.3055
5350.00,1.3090
5349.00,1.3125
5348.00,1.3158
5347.00,1.3190
5346.00,1.3221
5345.00,1.3253
5344.00,1.3286
5343.00,1.3319
5342.00,1.3351
5341.00,1.3381
5340.00,1.3410
5339.00,1.3436
5338.00,1.3462
5337.00,1.3486
5336.00,1.3510
5335.00,1.3533
5334.00,1.3557
5333.00,1.3581
5332.00,1.3605
5331.00,1.3630
5330.00,1.3654
5329.00,1.3675
5328.00,1.3695
5327.00,1.3712
5326.00,1.3729
5325.00,1.3744
5324.00,1.3759
5323.00,1.3775
5322.00,1.3792
5321.00,1.3810
5320.00,1.3828
5319.00,1.3843
5318.00,1.3858
5317.00,1.3872
5316.00,1.3885
5315.00,1.3897
5314.00,1.3909
5313.00,1.3919
5312.00,1.3928
5311.00,1.3937
5310.00,1.3948
5309.00,1.3960
5308.00,1.3973
5307.00,1.3984
5306.00,1.3992
5305.00,1.3997
5304.00,1.3999
5303.00,1.4000
5302.00,1.4001
5301.00,1.4005
5300.00,1.4011
5299.00,1.4016
5298.00,1.4020
5297.00,1.4022
5296.00,1.4022
5295.00,1.4021
5294.00,1.4019
5293.00,1.4016
5292.00,1.4013
5291.00,1.4009
5290.00,1.4005
5289.00,1.4001
5288.00,1.3998
5287.00,1.3994
5286.00,1.3989
5285.00,1.3982
5284.00,1.3975
5283.00,1.3968
5282.00,1.3959
5281.00,1.3950
5280.00,1.3940
5279.00,1.3930
5278.00,1.3919
5277.00,1.3908
5276.00,1.3896
5275.00,1.3885
5274.00,1.3874
5273.00,1.3862
5272.00,1.3849
5271.00,1.3834
5270.00,1.3818
5269.00,1.3801
5268.00,1.3783
5267.00,1.3765
5266.00,1.3746
5265.00,1.3727
5264.00,1.3707
5263.00,1.3685
5262.00,1.3662
5261.00,1.3637
5260.00,1.3612
5259.00,1.3588
5258.00,1.3565
5257.00,1.3543
5256.00,1.3522
5255.00,1.3499
5254.00,1.3474
5253.00,1.3447
5252.00,1.3418
5251.00,1.3389
5250.00,1.3359
5249.00,1.3329
5248.00,1.3298
5247.00,1.3267
5246.00,1.3234
5245.00,1.3201
5244.00,1.3167
5243.00,1.3132
5242.00,1.3096
5241.00,1.3059
5240.00,1.3022
5239.00,1.2983
5238.00,1.2946
5237.00,1.2908
5236.00,1.2871
5235.00,1.2833
5234.00,1.2795
5233.00,1.2755
5232.00,1.2713
5231.00,1.2670
5230.00,1.2626
5229.00,1.2581
5228.00,1.2535
5227.00,1.2488
5226.00,1.2440
5225.00,1.2392
5224.00,1.2343
5223.00,1.2293
5222.00,1.2242
5221.00,1.2192
5220.00,1.2141
5219.00,1.2090
5218.00,1.2038
5217.00,1.1985
5216.00,1.1931
5215.00,1.1876
5214.00,1.1819
5213.00,1.1764
5212.00,1.1708
5211.00,1.1652
5210.00,1.1595
5209.00,1.1538
5208.00,1.1478
5207.00,1.1417
5206.00,1.1354
5205.00,1.1291
5204.00,1.1228
5203.00,1.1164
5202.00,1.1101
5201.00,1.1038
5200.00,1.0975
5199.00,1.0911
5198.00,1.0846
5197.00,1.0781
5196.00,1.0714
5195.00,1.0647
5194.00,1.0579
5193.00,1.0511
5192.00,1.0443
5191.00,1.0374
5190.00,1.0304
5189.00,1.0233
5188.00,1.0162
5187.00,1.0091
5186.00,1.0020
5185.00,0.9949
5184.00,0.9878
5183.00,0.9806
5182.00,0.9734
5181.00,0.9662
5180.00,0.9591
5179.00,0.9521
5178.00,0.9451
5177.00,0.9381
5176.00,0.9310
5175.00,0.9239
5174.00,0.9168
5173.00,0.9097
5172.00,0.9028
5171.00,0.8958
5170.00,0.8889
5169.00,0.8820
5168.00,0.8751
5167.00,0.8683
5166.00,0.8616
5165.00,0.8551
5164.00,0.8486
5163.00,0.8422
5162.00,0.8359
5161.00,0.8297
5160.00,0.8235
5159.00,0.8175
5158.00,0.8116
5157.00,0.8058
5156.00,0.8000
5155.00,0.7944
5154.00,0.7889
5153.00,0.7835
5152.00,0.7783
5151.00,0.7732
5150.00,0.7684
5149.00,0.7637
5148.00,0.7593
5147.00,0.7550
5146.00,0.7509
5145.00,0.7470
5144.00,0.7433
5143.00,0.7397
5142.00,0.7363
5141.00,0.7331
5140.00,0.7302
5139.00,0.7274
5138.00,0.7249
5137.00,0.7227
5136.00,0.7207
5135.00,0.7189
5134.00,0.7174
5133.00,0.7161
5132.00,0.7150
5131.00,0.7142
5130.00,0.7136
5129.00,0.7133
5128.00,0.7132
5127.00,0.7134
5126.00,0.7139
5125.00,0.7146
5124.00,0.7156
5123.00,0.7168
5122.00,0.7183
5121.00,0.7200
5120.00,0.7219
5119.00,0.7241
5118.00,0.7265
5117.00,0.7292
5116.00,0.7320
5115.00,0.7351
5114.00,0.7384
5113.00,0.7420
5112.00,0.7458
5111.00,0.7497
5110.00,0.7539
5109.00,0.7583
5108.00,0.7629
5107.00,0.7677
5106.00,0.7727
5105.00,0.7779
5104.00,0.7832
5103.00,0.7886
5102.00,0.7942
5101.00,0.8000
5100.00,0.8060
5099.00,0.8121
5098.00,0.8182
5097.00,0.8245
5096.00,0.8309
5095.00,0.8372
5094.00,0.8437
5093.00,0.8503
5092.00,0.8571
5091.00,0.8640
5090.00,0.8711
5089.00,0.8782
5088.00,0.8854
5087.00,0.8925
5086.00,0.8998
5085.00,0.9071
5084.00,0.9145
5083.00,0.9219
5082.00,0.9293
5081.00,0.9367
5080.00,0.9442
5079.00,0.9516
5078.00,0.9590
5077.00,0.9665
5076.00,0.9740
5075.00,0.9815
5074.00,0.9890
5073.00,0.9966
5072.00,1.0041
5071.00,1.0116
5070.00,1.0191
5069.00,1.0266
5068.00,1.0340
5067.00,1.0415
5066.00,1.0489
5065.00,1.0563
5064.00,1.0637
5063.00,1.0711
5062.00,1.0784
5061.00,1.0857
5060.00,1.0929
5059.00,1.1001
5058.00,1.1072
5057.00,1.1143
5056.00,1.1213
5055.00,1.1282
5054.00,1.1350
5053.00,1.1417
5052.00,1.1482
5051.00,1.1548
5050.00,1.1613
5049.00,1.1679
5048.00,1.1744
5047.00,1.1809
5046.00,1.1873
5045.00,1.1937
5044.00,1.2000
5043.00,1.2063
5042.00,1.2124
5041.00,1.2185
5040.00,1.2245
5039.00,1.2304
5038.00,1.2362
5037.00,1.2419
5036.00,1.2476
5035.00,1.2532
5034.00,1.2588
5033.00,1.2643
5032.00,1.2696
5031.00,1.2749
5030.00,1.2801
5029.00,1.2853
5028.00,1.2904
5027.00,1.2954
5026.00,1.3002
5025.00,1.3049
5024.00,1.3095
5023.00,1.3143
5022.00,1.3190
5021.00,1.3237
5020.00,1.3282
5019.00,1.3325
5018.00,1.3366
5017.00,1.3407
5016.00,1.3448
5015.00,1.3490
5014.00,1.3531
5013.00,1.3571
5012.00,1.3610
5011.00,1.3647
5010.00,1.3684
5009.00,1.3721
5008.00,1.3758
5007.00,1.3795
5006.00,1.3831
5005.00,1.3866
5004.00,1.3900
5003.00,1.3932
5002.00,1.3964
5001.00,1.3994
5000.00,1.4025
4999.00,1.4056
4998.00,1.4086
4997.00,1.4113
4996.00,1.4140
4995.00,1.4165
4994.00,1.4191
4993.00,1.4217
4992.00,1.4243
4991.00,1.4269
4990.00,1.4294
4989.00,1.4317
4988.00,1.4339
4987.00,1.4361
4986.00,1.4383
4985.00,1.4404
4984.00,1.4423
4983.00,1.4440
4982.00,1.4456
4981.00,1.4471
4980.00,1.4487
4979.00,1.4504
4978.00,1.4522
4977.00,1.4539
4976.00,1.4555
4975.00,1.4569
4974.00,1.4583
4973.00,1.4595
4972.00,1.4605
4971.00,1.4615
4970.00,1.4624
4969.00,1.4634
4968.00,1.4643
4967.00,1.4651
4966.00,1.4659
4965.00,1.4665
4964.00,1.4671
4963.00,1.4675
4962.00,1.4678
4961.00,1.4682
4960.00,1.4687
4959.00,1.4691
4958.00,1.4696
4957.00,1.4700
4956.00,1.4703
4955.00,1.4703
4954.00,1.4702
4953.00,1.4700
4952.00,1.4700
4951.00,1.4700
4950.00,1.4699
4949.00,1.4697
4948.00,1.4694
4947.00,1.4689
4946.00,1.4684
4945.00,1.4677
4944.00,1.4670
4943.00,1.4661
4942.00,1.4652
4941.00,1.4642
4940.00,1.4633
4939.00,1.4625
4938.00,1.4616
4937.00,1.4606
4936.00,1.4595
4935.00,1.4584
4934.00,1.4572
4933.00,1.4560
4932.00,1.4548
4931.00,1.4535
4930.00,1.4521
4929.00,1.4506
4928.00,1.4490
4927.00,1.4474
4926.00,1.4456
4925.00,1.4437
4924.00,1.4418
4923.00,1.4399
4922.00,1.4379
4921.00,1.4358
4920.00,1.4337
4919.00,1.4313
4918.00,1.4288
4917.00,1.4261
4916.00,1.4233
4915.00,1.4206
4914.00,1.4179
4913.00,1.4153
4912.00,1.4127
4911.00,1.4101
4910.00,1.4074
4909.00,1.4045
4908.00,1.4015
4907.00,1.3984
4906.00,1.3951
4905.00,1.3916
4904.00,1.3881
4903.00,1.3845
4902.00,1.3809
4901.00,1.3773
4900.00,1.3736
4899.00,1.3698
4898.00,1.3660
4897.00,1.3623
4896.00,1.3586
4895.00,1.3549
4894.00,1.3509
4893.00,1.3467
4892.00,1.3423
4891.00,1.3377
4890.00,1.3331
4889.00,1.3286
4888.00,1.3241
4887.00,1.3195
4886.00,1.3149
4885.00,1.3101
4884.00,1.3052
4883.00,1.3002
4882.00,1.2952
4881.00,1.2901
4880.00,1.2849
4879.00,1.2795
4878.00,1.2740
4877.00,1.2685
4876.00,1.2629
4875.00,1.2572
4874.00,1.2515
4873.00,1.2457
4872.00,1.2398
4871.00,1.2336
4870.00,1.2273
4869.00,1.2210
4868.00,1.2148
4867.00,1.2085
4866.00,1.2022
4865.00,1.1959
4864.00,1.1894
4863.00,1.1829
4862.00,1.1762
4861.00,1.1694
4860.00,1.1624
4859.00,1.1554
4858.00,1.1483
4857.00,1.1412
4856.00,1.1340
4855.00,1.1268
4854.00,1.1193
4853.00,1.1118
4852.00,1.1043
4851.00,1.0967
4850.00,1.0892
4849.00,1.0817
4848.00,1.0741
4847.00,1.0665
4846.00,1.0587
4845.00,1.0509
4844.00,1.0430
4843.00,1.0351
4842.00,1.0271
4841.00,1.0191
4840.00,1.0111
4839.00,1.0030
4838.00,0.9949
4837.00,0.9869
4836.00,0.9788
4835.00,0.9707
4834.00,0.9626
4833.00,0.9545
4832.00,0.9464
4831.00,0.9384
4830.00,0.9305
4829.00,0.9225
4828.00,0.9145
4827.00,0.9065
4826.00,0.8986
4825.00,0.8908
4824.00,0.8830
4823.00,0.8753
4822.00,0.8677
4821.00,0.8602
4820.00,0.8528
4819.00,0.8455
4818.00,0.8382
4817.00,0.8310
4816.00,0.8238
4815.00,0.8168
4814.00,0.8100
4813.00,0.8033
4812.00,0.7968
4811.00,0.7904
4810.00,0.7843
4809.00,0.7783
4808.00,0.7724
4807.00,0.7667
4806.00,0.7612
4805.00,0.7560
4804.00,0.7509
4803.00,0.7461
4802.00,0.7415
4801.00,0.7371
4800.00,0.7329
4799.00,0.7290
4798.00,0.7253
4797.00,0.7220
4796.00,0.7190
4795.00,0.7162
4794.00,0.7137
4793.00,0.7114
4792.00,0.7095
4791.00,0.7078
4790.00,0.7065
4789.00,0.7055
4788.00,0.7048
4787.00,0.7044
4786.00,0.7043
4785.00,0.7046
4784.00,0.7051
4783.00,0.7059
4782.00,0.7070
4781.00,0.7083
4780.00,0.7100
4779.00,0.7120
4778.00,0.7143
4777.00,0.7170
4776.00,0.7199
4775.00,0.7231
4774.00,0.7266
4773.00,0.7303
4772.00,0.7343
4771.00,0.7386
4770.00,0.7431
4769.00,0.7478
4768.00,0.7528
4767.00,0.7580
4766.00,0.7635
4765.00,0.7692
4764.00,0.7751
4763.00,0.7812
4762.00,0.7874
4761.00,0.7939
4760.00,0.8005
4759.00,0.8073
4758.00,0.8143
4757.00,0.8215
4756.00,0.8288
4755.00,0.8363
4754.00,0.8439
4753.00,0.8515
4752.00,0.8593
4751.00,0.8672
4750.00,0.8752
4749.00,0.8834
4748.00,0.8915
4747.00,0.8998
4746.00,0.9080
4745.00,0.9164
4744.00,0.9249
4743.00,0.9335
4742.00,0.9421
4741.00,0.9507
4740.00,0.9593
4739.00,0.9680
4738.00,0.9766
4737.00,0.9854
4736.00,0.9940
4735.00,1.0027
4734.00,1.0113
4733.00,1.0199
4732.00,1.0285
4731.00,1.0372
4730.00,1.0459
4729.00,1.0545
4728.00,1.0630
4727.00,1.0714
4726.00,1.0798
4725.00,1.0882
4724.00,1.0966
4723.00,1.1049
4722.00,1.1131
4721.00,1.1213
4720.00,1.1294
4719.00,1.1374
4718.00,1.1454
4717.00,1.1533
4716.00,1.1611
4715.00,1.1689
4714.00,1.1767
4713.00,1.1845
4712.00,1.1921
4711.00,1.1996
4710.00,1.2070
4709.00,1.2144
4708.00,1.2217
4707.00,1.2290
4706.00,1.2361
4705.00,1.2431
4704.00,1.2499
4703.00,1.2566
4702.00,1.2633
4701.00,1.2700
4700.00,1.2765
4699.00,1.2829
4698.00,1.2892
4697.00,1.2955
4696.00,1.3019
4695.00,1.3083
4694.00,1.3147
4693.00,1.3210
4692.00,1.3272
4691.00,1.3333
4690.00,1.3393
4689.00,1.3452
4688.00,1.3509
4687.00,1.3564
4686.00,1.3618
4685.00,1.3671
4684.00,1.3724
4683.00,1.3776
4682.00,1.3825
4681.00,1.3872
4680.00,1.3918
4679.00,1.3964
4678.00,1.4010
4677.00,1.4057
4676.00,1.4104
4675.00,1.4151
4674.00,1.4197
4673.00,1.4240
4672.00,1.4281
4671.00,1.4321
4670.00,1.4360
4669.00,1.4399
4668.00,1.4438
4667.00,1.4477
4666.00,1.4515
4665.00,1.4552
4664.00,1.4589
4663.00,1.4626
4662.00,1.4661
4661.00,1.4695
4660.00,1.4728
4659.00,1.4760
4658.00,1.4791
4657.00,1.4821
4656.00,1.4850
4655.00,1.4878
4654.00,1.4907
4653.00,1.4935
4652.00,1.4964
4651.00,1.4992
4650.00,1.5019
4649.00,1.5045
4648.00,1.5069
4647.00,1.5093
4646.00,1.5116
4645.00,1.5138
4644.00,1.5159
4643.00,1.5181
4642.00,1.5203
4641.00,1.5226
4640.00,1.5247
4639.00,1.5267
4638.00,1.5285
4637.00,1.5302
4636.00,1.5318
4635.00,1.5334
4634.00,1.5350
4633.00,1.5364
4632.00,1.5377
4631.00,1.5390
4630.00,1.5403
4629.00,1.5416
4628.00,1.5429
4627.00,1.5443
4626.00,1.5456
4625.00,1.5468
4624.00,1.5478
4623.00,1.5487
4622.00,1.5495
4621.00,1.5502
4620.00,1.5510
4619.00,1.5516
4618.00,1.5522
4617.00,1.5527
4616.00,1.5532
4615.00,1.5537
4614.00,1.5541
4613.00,1.5543
4612.00,1.5544
4611.00,1.5543
4610.00,1.5543
4609.00,1.5542
4608.00,1.5542
4607.00,1.5540
4606.00,1.5538
4605.00,1.5535
4604.00,1.5531
4603.00,1.5526
4602.00,1.5521
4601.00,1.5516
4600.00,1.5510
4599.00,1.5502
4598.00,1.5493
4597.00,1.5483
4596.00,1.5473
4595.00,1.5463
4594.00,1.5453
4593.00,1.5442
4592.00,1.5429
4591.00,1.5416
4590.00,1.5402
4589.00,1.5389
4588.00,1.5376
4587.00,1.5363
4586.00,1.5348
4585.00,1.5332
4584.00,1.5315
4583.00,1.5298
4582.00,1.5279
4581.00,1.5260
4580.00,1.5239
4579.00,1.5217
4578.00,1.5194
4577.00,1.5171
4576.00,1.5149
4575.00,1.5127
4574.00,1.5104
4573.00,1.5078
4572.00,1.5051
4571.00,1.5023
4570.00,1.4994
4569.00,1.4965
4568.00,1.4935
4567.00,1.4904
4566.00,1.4874
4565.00,1.4844
4564.00,1.4813
4563.00,1.4782
4562.00,1.4749
4561.00,1.4715
4560.00,1.4681
4559.00,1.4645
4558.00,1.4608
4557.00,1.4569
4556.00,1.4528
4555.00,1.4487
4554.00,1.4446
4553.00,1.4405
4552.00,1.4363
4551.00,1.4320
4550.00,1.4276
4549.00,1.4232
4548.00,1.4187
4547.00,1.4142
4546.00,1.4097
4545.00,1.4050
4544.00,1.4001
4543.00,1.3950
4542.00,1.3898
4541.00,1.3845
4540.00,1.3793
4539.00,1.3740
4538.00,1.3686
4537.00,1.3631
4536.00,1.3574
4535.00,1.3517
4534.00,1.3458
4533.00,1.3400
4532.00,1.3340
4531.00,1.3280
4530.00,1.3218
4529.00,1.3157
4528.00,1.3094
4527.00,1.3029
4526.00,1.2963
4525.00,1.2895
4524.00,1.2826
4523.00,1.2756
4522.00,1.2686
4521.00,1.2616
4520.00,1.2544
4519.00,1.2472
4518.00,1.2398
4517.00,1.2322
4516.00,1.2245
4515.00,1.2167
4514.00,1.2088
4513.00,1.2009
4512.00,1.1930
4511.00,1.1851
4510.00,1.1771
4509.00,1.1690
4508.00,1.1608
4507.00,1.1524
4506.00,1.1439
4505.00,1.1353
4504.00,1.1267
4503.00,1.1181
4502.00,1.1095
4501.00,1.1007
4500.00,1.0918
4499.00,1.0829
4498.00,1.0739
4497.00,1.0649
4496.00,1.0559
4495.00,1.0469
4494.00,1.0377
4493.00,1.0285
4492.00,1.0193
4491.00,1.0101
4490.00,1.0009
4489.00,0.9917
4488.00,0.9825
4487.00,0.9733
4486.00,0.9641
4485.00,0.9549
4484.00,0.9458
4483.00,0.9368
4482.00,0.9279
4481.00,0.9191
4480.00,0.9104
4479.00,0.9017
4478.00,0.8930
4477.00,0.8843
4476.00,0.8757
4475.00,0.8673
4474.00,0.8590
4473.00,0.8509
4472.00,0.8430
4471.00,0.8351
4470.00,0.8274
4469.00,0.8199
4468.00,0.8126
4467.00,0.8055
4466.00,0.7986
4465.00,0.7920
4464.00,0.7855
4463.00,0.7793
4462.00,0.7734
4461.00,0.7677
4460.00,0.7623
4459.00,0.7572
4458.00,0.7524
4457.00,0.7479
4456.00,0.7437
4455.00,0.7398
4454.00,0.7363
4453.00,0.7332
4452.00,0.7303
4451.00,0.7278
4450.00,0.7257
4449.00,0.7240
4448.00,0.7227
4447.00,0.7217
4446.00,0.7211
4445.00,0.7209
4444.00,0.7212
4443.00,0.7218
4442.00,0.7228
4441.00,0.7242
4440.00,0.7260
4439.00,0.7282
4438.00,0.7308
4437.00,0.7338
4436.00,0.7372
4435.00,0.7409
4434.00,0.7450
4433.00,0.7493
4432.00,0.7540
4431.00,0.7590
4430.00,0.7644
4429.00,0.7702
4428.00,0.7762
4427.00,0.7826
4426.00,0.7892
4425.00,0.7960
4424.00,0.8030
4423.00,0.8104
4422.00,0.8180
4421.00,0.8258
4420.00,0.8338
4419.00,0.8420
4418.00,0.8505
4417.00,0.8591
4416.00,0.8679
4415.00,0.8768
4414.00,0.8858
4413.00,0.8950
4412.00,0.9043
4411.00,0.9136
4410.00,0.9231
4409.00,0.9326
4408.00,0.9423
4407.00,0.9520
4406.00,0.9618
4405.00,0.9717
4404.00,0.9815
4403.00,0.9914
4402.00,1.0014
4401.00,1.0114
4400.00,1.0214
4399.00,1.0315
4398.00,1.0415
4397.00,1.0515
4396.00,1.0613
4395.00,1.0711
4394.00,1.0809
4393.00,1.0907
4392.00,1.1005
4391.00,1.1103
4390.00,1.1200
4389.00,1.1297
4388.00,1.1393
4387.00,1.1488
4386.00,1.1581
4385.00,1.1673
4384.00,1.1764
4383.00,1.1855
4382.00,1.1945
4381.00,1.2034
4380.00,1.2123
4379.00,1.2210
4378.00,1.2295
4377.00,1.2380
4376.00,1.2464
4375.00,1.2546
4374.00,1.2627
4373.00,1.2707
4372.00,1.2786
4371.00,1.2864
4370.00,1.2942
4369.00,1.3018
4368.00,1.3092
4367.00,1.3163
4366.00,1.3234
4365.00,1.3304
4364.00,1.3374
4363.00,1.3443
4362.00,1.3511
4361.00,1.3578
4360.00,1.3643
4359.00,1.3707
4358.00,1.3770
4357.00,1.3834
4356.00,1.3899
4355.00,1.3964
4354.00,1.4029
4353.00,1.4092
4352.00,1.4153
4351.00,1.4212
4350.00,1.4270
4349.00,1.4328
4348.00,1.4385
4347.00,1.4443
4346.00,1.4500
4345.00,1.4556
4344.00,1.4612
4343.00,1.4664
4342.00,1.4715
4341.00,1.4764
4340.00,1.4813
4339.00,1.4862
4338.00,1.4912
4337.00,1.4961
4336.00,1.5009
4335.00,1.5056
4334.00,1.5104
4333.00,1.5151
4332.00,1.5198
4331.00,1.5246
4330.00,1.5292
4329.00,1.5336
4328.00,1.5378
4327.00,1.5418
4326.00,1.5458
4325.00,1.5497
4324.00,1.5537
4323.00,1.5577
4322.00,1.5616
4321.00,1.5654
4320.00,1.5692
4319.00,1.5730
4318.00,1.5767
4317.00,1.5802
4316.00,1.5835
4315.00,1.5866
4314.00,1.5894
4313.00,1.5922
4312.00,1.5950
4311.00,1.5980
4310.00,1.6011
4309.00,1.6041
4308.00,1.6071
4307.00,1.6098
4306.00,1.6122
4305.00,1.6146
4304.00,1.6171
4303.00,1.6195
4302.00,1.6220
4301.00,1.6242
4300.00,1.6261
4299.00,1.6279
4298.00,1.6297
4297.00,1.6316
4296.00,1.6335
4295.00,1.6353
4294.00,1.6370
4293.00,1.6387
4292.00,1.6404
4291.00,1.6421
4290.00,1.6438
4289.00,1.6454
4288.00,1.6468
4287.00,1.6483
4286.00,1.6497
4285.00,1.6510
4284.00,1.6521
4283.00,1.6530
4282.00,1.6539
4281.00,1.6547
4280.00,1.6555
4279.00,1.6562
4278.00,1.6567
4277.00,1.6571
4276.00,1.6576
4275.00,1.6581
4274.00,1.6584
4273.00,1.6585
4272.00,1.6586
4271.00,1.6588
4270.00,1.6590
4269.00,1.6591
4268.00,1.6591
4267.00,1.6590
4266.00,1.6589
4265.00,1.6588
4264.00,1.6588
4263.00,1.6588
4262.00,1.6585
4261.00,1.6580
4260.00,1.6573
4259.00,1.6564
4258.00,1.6555
4257.00,1.6545
4256.00,1.6535
4255.00,1.6524
4254.00,1.6514
4253.00,1.6505
4252.00,1.6497
4251.00,1.6487
4250.00,1.6475
4249.00,1.6462
4248.00,1.6448
4247.00,1.6433
4246.00,1.6418
4245.00,1.6401
4244.00,1.6383
4243.00,1.6366
4242.00,1.6349
4241.00,1.6332
4240.00,1.6314
4239.00,1.6294
4238.00,1.6272
4237.00,1.6250
4236.00,1.6226
4235.00,1.6202
4234.00,1.6178
4233.00,1.6154
4232.00,1.6129
4231.00,1.6102
4230.00,1.6073
4229.00,1.6042
4228.00,1.6012
4227.00,1.5983
4226.00,1.5954
4225.00,1.5924
4224.00,1.5894
4223.00,1.5863
4222.00,1.5831
4221.00,1.5800
4220.00,1.5767
4219.00,1.5733
4218.00,1.5698
4217.00,1.5662
4216.00,1.5625
4215.00,1.5588
4214.00,1.5548
4213.00,1.5506
4212.00,1.5463
4211.00,1.5420
4210.00,1.5378
4209.00,1.5335
4208.00,1.5290
4207.00,1.5243
4206.00,1.5196
4205.00,1.5148
4204.00,1.5101
4203.00,1.5052
4202.00,1.5001
4201.00,1.4948
4200.00,1.4893
4199.00,1.4839
4198.00,1.4784
4197.00,1.4730
4196.00,1.4674
4195.00,1.4616
4194.00,1.4556
4193.00,1.4496
4192.00,1.4436
4191.00,1.4375
4190.00,1.4313
4189.00,1.4250
4188.00,1.4185
4187.00,1.4119
4186.00,1.4053
4185.00,1.3986
4184.00,1.3918
4183.00,1.3849
4182.00,1.3778
4181.00,1.3706
4180.00,1.3633
4179.00,1.3559
4178.00,1.3484
4177.00,1.3409
4176.00,1.3333
4175.00,1.3255
4174.00,1.3176
4173.00,1.3095
4172.00,1.3012
4171.00,1.2928
4170.00,1.2843
4169.00,1.2757
4168.00,1.2669
4167.00,1.2581
4166.00,1.2492
4165.00,1.2402
4164.00,1.2312
4163.00,1.2221
4162.00,1.2129
4161.00,1.2038
4160.00,1.1946
4159.00,1.1853
4158.00,1.1758
4157.00,1.1662
4156.00,1.1565
4155.00,1.1467
4154.00,1.1369
4153.00,1.1270
4152.00,1.1171
4151.00,1.1071
4150.00,1.0971
4149.00,1.0871
4148.00,1.0770
4147.00,1.0670
4146.00,1.0569
4145.00,1.0467
4144.00,1.0366
4143.00,1.0264
4142.00,1.0162
4141.00,1.0060
4140.00,0.9959
4139.00,0.9859
4138.00,0.9759
4137.00,0.9659
4136.00,0.9560
4135.00,0.9462
4134.00,0.9364
4133.00,0.9268
4132.00,0.9173
4131.00,0.9080
4130.00,0.8989
4129.00,0.8899
4128.00,0.8811
4127.00,0.8724
4126.00,0.8639
4125.00,0.8557
4124.00,0.8476
4123.00,0.8397
4122.00,0.8320
4121.00,0.8245
4120.00,0.8174
4119.00,0.8106
4118.00,0.8040
4117.00,0.7977
4116.00,0.7917
4115.00,0.7860
4114.00,0.7807
4113.00,0.7759
4112.00,0.7714
4111.00,0.7674
4110.00,0.7638
4109.00,0.7605
4108.00,0.7577
4107.00,0.7553
4106.00,0.7534
4105.00,0.7520
4104.00,0.7510
4103.00,0.7505
4102.00,0.7504
4101.00,0.7508
4100.00,0.7517
4099.00,0.7530
4098.00,0.7548
4097.00,0.7571
4096.00,0.7598
4095.00,0.7630
4094.00,0.7667
4093.00,0.7709
4092.00,0.7755
4091.00,0.7805
4090.00,0.7860
4089.00,0.7918
4088.00,0.7981
4087.00,0.8047
4086.00,0.8116
4085.00,0.8188
4084.00,0.8262
4083.00,0.8340
4082.00,0.8421
4081.00,0.8504
4080.00,0.8590
4079.00,0.8678
4078.00,0.8769
4077.00,0.8862
4076.00,0.8956
4075.00,0.9053
4074.00,0.9151
4073.00,0.9251
4072.00,0.9353
4071.00,0.9456
4070.00,0.9561
4069.00,0.9666
4068.00,0.9773
4067.00,0.9880
4066.00,0.9989
4065.00,1.0099
4064.00,1.0210
4063.00,1.0321
4062.00,1.0433
4061.00,1.0545
4060.00,1.0659
4059.00,1.0773
4058.00,1.0887
4057.00,1.1001
4056.00,1.1115
4055.00,1.1228
4054.00,1.1341
4053.00,1.1454
4052.00,1.1566
4051.00,1.1677
4050.00,1.1788
4049.00,1.1896
4048.00,1.2003
4047.00,1.2109
4046.00,1.2214
4045.00,1.2318
4044.00,1.2421
4043.00,1.2523
4042.00,1.2624
4041.00,1.2725
4040.00,1.2825
4039.00,1.2924
4038.00,1.3022
4037.00,1.3118
4036.00,1.3213
4035.00,1.3305
4034.00,1.3397
4033.00,1.3487
4032.00,1.3576
4031.00,1.3666
4030.00,1.3754
4029.00,1.3843
4028.00,1.3931
4027.00,1.4017
4026.00,1.4102
4025.00,1.4186
4024.00,1.4270
4023.00,1.4352
4022.00,1.4432
4021.00,1.4511
4020.00,1.4589
4019.00,1.4666
4018.00,1.4742
4017.00,1.4817
4016.00,1.4891
4015.00,1.4963
4014.00,1.5033
4013.00,1.5102
4012.00,1.5170
4011.00,1.5237
4010.00,1.5301
4009.00,1.5365
4008.00,1.5428
4007.00,1.5491
4006.00,1.5553
4005.00,1.5613
4004.00,1.5673
4003.00,1.5731
4002.00,1.5790
4001.00,1.5848
4000.00,1.5906
3999.00,1.5963
3998.00,1.6019
3997.00,1.6074
3996.00,1.6128
3995.00,1.6181
3994.00,1.6233
3993.00,1.6283
3992.00,1.6331
3991.00,1.6380
3990.00,1.6429
3989.00,1.6477
3988.00,1.6523
3987.00,1.6566
3986.00,1.6609
3985.00,1.6651
3984.00,1.6693
3983.00,1.6735
3982.00,1.6777
3981.00,1.6819
3980.00,1.6861
3979.00,1.6903
3978.00,1.6943
3977.00,1.6981
3976.00,1.7017
3975.00,1.7050
3974.00,1.7083
3973.00,1.7114
3972.00,1.7144
3971.00,1.7175
3970.00,1.7205
3969.00,1.7237
3968.00,1.7268
3967.00,1.7299
3966.00,1.7329
3965.00,1.7358
3964.00,1.7385
3963.00,1.7411
3962.00,1.7435
3961.00,1.7459
3960.00,1.7483
3959.00,1.7506
3958.00,1.7529
3957.00,1.7551
3956.00,1.7573
3955.00,1.7595
3954.00,1.7615
3953.00,1.7635
3952.00,1.7655
3951.00,1.7676
3950.00,1.7697
3949.00,1.7716
3948.00,1.7732
3947.00,1.7746
3946.00,1.7758
3945.00,1.7769
3944.00,1.7780
3943.00,1.7790
3942.00,1.7799
3941.00,1.7807
3940.00,1.7813
3939.00,1.7819
3938.00,1.7827
3937.00,1.7836
3936.00,1.7845
3935.00,1.7853
3934.00,1.7859
3933.00,1.7866
3932.00,1.7871
3931.00,1.7875
3930.00,1.7876
3929.00,1.7875
3928.00,1.7873
3927.00,1.7871
3926.00,1.7870
3925.00,1.7870
3924.00,1.7874
3923.00,1.7878
3922.00,1.7880
3921.00,1.7877
3920.00,1.7869
3919.00,1.7859
3918.00,1.7850
3917.00,1.7842
3916.00,1.7836
3915.00,1.7830
3914.00,1.7822
3913.00,1.7812
3912.00,1.7802
3911.00,1.7794
3910.00,1.7787
3909.00,1.7780
3908.00,1.7770
3907.00,1.7759
3906.00,1.7749
3905.00,1.7737
3904.00,1.7723
3903.00,1.7708
3902.00,1.7689
3901.00,1.7668
3900.00,1.7643
3899.00,1.7618
3898.00,1.7594
3897.00,1.7570
3896.00,1.7547
3895.00,1.7526
3894.00,1.7505
3893.00,1.7484
3892.00,1.7460
3891.00,1.7433
3890.00,1.7408
3889.00,1.7382
3888.00,1.7355
3887.00,1.7324
3886.00,1.7293
3885.00,1.7263
3884.00,1.7235
3883.00,1.7203
3882.00,1.7167
3881.00,1.7130
3880.00,1.7094
3879.00,1.7063
3878.00,1.7032
3877.00,1.6997
3876.00,1.6958
3875.00,1.6918
3874.00,1.6882
3873.00,1.6848
3872.00,1.6810
3871.00,1.6765
3870.00,1.6714
3869.00,1.6665
3868.00,1.6617
3867.00,1.6568
3866.00,1.6515
3865.00,1.6462
3864.00,1.6412
3863.00,1.6363
3862.00,1.6314
3861.00,1.6263
3860.00,1.6213
3859.00,1.6166
3858.00,1.6122
3857.00,1.6077
3856.00,1.6027
3855.00,1.5967
3854.00,1.5892
3853.00,1.5809
3852.00,1.5725
3851.00,1.5646
3850.00,1.5573
3849.00,1.5509
3848.00,1.5453
3847.00,1.5400
3846.00,1.5345
3845.00,1.5284
3844.00,1.5217
3843.00,1.5146
3842.00,1.5071
3841.00,1.4992
3840.00,1.4907
3839.00,1.4819
3838.00,1.4729
3837.00,1.4638
3836.00,1.4548
3835.00,1.4460
3834.00,1.4372
3833.00,1.4284
3832.00,1.4196
3831.00,1.4110
3830.00,1.4025
3829.00,1.3937
3828.00,1.3844
3827.00,1.3748
3826.00,1.3652
3825.00,1.3560
3824.00,1.3467
3823.00,1.3367
3822.00,1.3257
3821.00,1.3142
3820.00,1.3029
3819.00,1.2919
3818.00,1.2806
3817.00,1.2686
3816.00,1.2565
3815.00,1.2449
3814.00,1.2338
3813.00,1.2226
3812.00,1.2113
3811.00,1.2004
3810.00,1.1896
3809.00,1.1785
3808.00,1.1666
3807.00,1.1539
3806.00,1.1413
3805.00,1.1292
3804.00,1.1170
3803.00,1.1041
3802.00,1.0907
3801.00,1.0773
3800.00,1.0647
3799.00,1.0524
3798.00,1.0400
3797.00,1.0276
3796.00,1.0156
3795.00,1.0042
3794.00,0.9929
3793.00,0.9816
3792.00,0.9702
3791.00,0.9589
3790.00,0.9479
3789.00,0.9371
3788.00,0.9264
3787.00,0.9157
3786.00,0.9051
3785.00,0.8946
3784.00,0.8845
3783.00,0.8749
3782.00,0.8657
3781.00,0.8565
3780.00,0.8475
3779.00,0.8386
3778.00,0.8303
3777.00,0.8225
3776.00,0.8153
3775.00,0.8087
3774.00,0.8029
3773.00,0.7979
3772.00,0.7933
3771.00,0.7888
3770.00,0.7846
3769.00,0.7808
3768.00,0.7776
3767.00,0.7749
3766.00,0.7728
3765.00,0.7714
3764.00,0.7709
3763.00,0.7712
3762.00,0.7721
3761.00,0.7735
3760.00,0.7754
3759.00,0.7780
3758.00,0.7810
3757.00,0.7846
3756.00,0.7889
3755.00,0.7937
3754.00,0.7989
3753.00,0.8046
3752.00,0.8107
3751.00,0.8174
3750.00,0.8248
3749.00,0.8330
3748.00,0.8418
3747.00,0.8507
3746.00,0.8596
3745.00,0.8696
3744.00,0.8812
3743.00,0.8937
3742.00,0.9055
3741.00,0.9165
3740.00,0.9275
3739.00,0.9391
3738.00,0.9512
3737.00,0.9637
3736.00,0.9767
3735.00,0.9899
3734.00,1.0029
3733.00,1.0157
3732.00,1.0287
3731.00,1.0421
3730.00,1.0555
3729.00,1.0684
3728.00,1.0809
3727.00,1.0934
3726.00,1.1061
3725.00,1.1190
3724.00,1.1317
3723.00,1.1443
3722.00,1.1570
3721.00,1.1702
3720.00,1.1836
3719.00,1.1971
3718.00,1.2106
3717.00,1.2243
3716.00,1.2381
3715.00,1.2516
3714.00,1.2646
3713.00,1.2775
3712.00,1.2910
3711.00,1.3051
3710.00,1.3194
3709.00,1.3334
3708.00,1.3468
3707.00,1.3596
3706.00,1.3718
3705.00,1.3834
3704.00,1.3944
3703.00,1.4050
3702.00,1.4156
3701.00,1.4264
3700.00,1.4377
3699.00,1.4489
3698.00,1.4595
3697.00,1.4700
3696.00,1.4805
3695.00,1.4911
3694.00,1.5015
3693.00,1.5116
3692.00,1.5214
3691.00,1.5308
3690.00,1.5399
3689.00,1.5495
3688.00,1.5599
3687.00,1.5704
3686.00,1.5806
3685.00,1.5903
3684.00,1.5998
3683.00,1.6093
3682.00,1.6183
3681.00,1.6271
3680.00,1.6356
3679.00,1.6437
3678.00,1.6512
3677.00,1.6581
3676.00,1.6651
3675.00,1.6729
3674.00,1.6812
3673.00,1.6890
3672.00,1.6960
3671.00,1.7027
3670.00,1.7097
3669.00,1.7173
3668.00,1.7247
3667.00,1.7315
3666.00,1.7379
3665.00,1.7442
3664.00,1.7506
3663.00,1.7568
3662.00,1.7626
3661.00,1.7682
3660.00,1.7739
3659.00,1.7795
3658.00,1.7846
3657.00,1.7895
3656.00,1.7944
3655.00,1.7995
3654.00,1.8045
3653.00,1.8094
3652.00,1.8143
3651.00,1.8186
3650.00,1.8223
3649.00,1.8258
3648.00,1.8297
3647.00,1.8341
3646.00,1.8386
3645.00,1.8433
3644.00,1.8481
3643.00,1.8527
3642.00,1.8569
3641.00,1.8606
3640.00,1.8642
3639.00,1.8675
3638.00,1.8709
3637.00,1.8745
3636.00,1.8782
3635.00,1.8816
3634.00,1.8848
3633.00,1.8880
3632.00,1.8911
3631.00,1.8933
3630.00,1.8945
3629.00,1.8956
3628.00,1.8972
3627.00,1.8992
3626.00,1.9010
3625.00,1.9026
3624.00,1.9044
3623.00,1.9063
3622.00,1.9080
3621.00,1.9097
3620.00,1.9116
3619.00,1.9134
3618.00,1.9151
3617.00,1.9166
3616.00,1.9183
3615.00,1.9201
3614.00,1.9222
3613.00,1.9250
3612.00,1.9281
3611.00,1.9308
3610.00,1.9327
3609.00,1.9341
3608.00,1.9354
3607.00,1.9365
3606.00,1.9376
3605.00,1.9389
3604.00,1.9403
3603.00,1.9414
3602.00,1.9418
3601.00,1.9419
3600.00,1.9421
3599.00,1.9423
3598.00,1.9424
3597.00,1.9427
3596.00,1.9432
3595.00,1.9436
3594.00,1.9440
3593.00,1.9446
3592.00,1.9454
3591.00,1.9461
3590.00,1.9465
3589.00,1.9466
3588.00,1.9466
3587.00,1.9463
3586.00,1.9461
3585.00,1.9459
3584.00,1.9458
3583.00,1.9455
3582.00,1.9447
3581.00,1.9437
3580.00,1.9427
3579.00,1.9416
3578.00,1.9405
3577.00,1.9394
3576.00,1.9384
3575.00,1.9373
3574.00,1.9361
3573.00,1.9351
3572.00,1.9343
3571.00,1.9335
3570.00,1.9322
3569.00,1.9301
3568.00,1.9272
3567.00,1.9238
3566.00,1.9205
3565.00,1.9176
3564.00,1.9152
3563.00,1.9133
3562.00,1.9119
3561.00,1.9107
3560.00,1.9091
3559.00,1.9068
3558.00,1.9041
3557.00,1.9015
3556.00,1.8993
3555.00,1.8971
3554.00,1.8947
3553.00,1.8925
3552.00,1.8905
3551.00,1.8889
3550.00,1.8872
3549.00,1.8856
3548.00,1.8842
3547.00,1.8828
3546.00,1.8812
3545.00,1.8792
3544.00,1.8768
3543.00,1.8739
3542.00,1.8706
3541.00,1.8672
3540.00,1.8637
3539.00,1.8602
3538.00,1.8566
3537.00,1.8533
3536.00,1.8499
3535.00,1.8460
3534.00,1.8418
3533.00,1.8376
3532.00,1.8334
3531.00,1.8292
3530.00,1.8248
3529.00,1.8203
3528.00,1.8158
3527.00,1.8114
3526.00,1.8069
3525.00,1.8022
3524.00,1.7973
3523.00,1.7921
3522.00,1.7867
3521.00,1.7812
3520.00,1.7758
3519.00,1.7702
3518.00,1.7645
3517.00,1.7586
3516.00,1.7527
3515.00,1.7466
3514.00,1.7404
3513.00,1.7342
3512.00,1.7279
3511.00,1.7216
3510.00,1.7150
3509.00,1.7083
3508.00,1.7015
3507.00,1.6946
3506.00,1.6875
3505.00,1.6802
3504.00,1.6727
3503.00,1.6649
3502.00,1.6569
3501.00,1.6488
3500.00,1.6407
3499.00,1.6324
3498.00,1.6239
3497.00,1.6153
3496.00,1.6065
3495.00,1.5976
3494.00,1.5886
3493.00,1.5794
3492.00,1.5700
3491.00,1.5603
3490.00,1.5504
3489.00,1.5405
3488.00,1.5304
3487.00,1.5204
3486.00,1.5102
3485.00,1.5000
3484.00,1.4895
3483.00,1.4789
3482.00,1.4680
3481.00,1.4570
3480.00,1.4457
3479.00,1.4341
3478.00,1.4223
3477.00,1.4103
3476.00,1.3983
3475.00,1.3863
3474.00,1.3742
3473.00,1.3621
3472.00,1.3498
3471.00,1.3373
3470.00,1.3246
3469.00,1.3118
3468.00,1.2989
3467.00,1.2860
3466.00,1.2729
3465.00,1.2599
3464.00,1.2468
3463.00,1.2337
3462.00,1.2207
3461.00,1.2076
3460.00,1.1947
3459.00,1.1818
3458.00,1.1690
3457.00,1.1562
3456.00,1.1437
3455.00,1.1312
3454.00,1.1190
3453.00,1.1071
3452.00,1.0953
3451.00,1.0839
3450.00,1.0727
3449.00,1.0619
3448.00,1.0513
3447.00,1.0411
3446.00,1.0313
3445.00,1.0220
3444.00,1.0131
3443.00,1.0046
3442.00,0.9967
3441.00,0.9894
3440.00,0.9827
3439.00,0.9766
3438.00,0.9711
3437.00,0.9664
3436.00,0.9624
3435.00,0.9591
3434.00,0.9566
3433.00,0.9550
3432.00,0.9541
3431.00,0.9541
3430.00,0.9550
3429.00,0.9568
3428.00,0.9594
3427.00,0.9629
3426.00,0.9674
3425.00,0.9726
3424.00,0.9787
3423.00,0.9856
3422.00,0.9931
3421.00,1.0012
3420.00,1.0099
3419.00,1.0192
3418.00,1.0289
3417.00,1.0390
3416.00,1.0493
3415.00,1.0598
3414.00,1.0704
3413.00,1.0808
3412.00,1.0911
3411.00,1.1011
3410.00,1.1106
3409.00,1.1197
3408.00,1.1283
3407.00,1.1363
3406.00,1.1437
3405.00,1.1506
3404.00,1.1570
3403.00,1.1629
3402.00,1.1685
3401.00,1.1739
3400.00,1.1793
3399.00,1.1848
3398.00,1.1907
3397.00,1.1970
3396.00,1.2038
3395.00,1.2110
3394.00,1.2188
3393.00,1.2272
3392.00,1.2362
3391.00,1.2458
3390.00,1.2559
3389.00,1.2665
3388.00,1.2774
3387.00,1.2887
3386.00,1.3002
3385.00,1.3120
3384.00,1.3241
3383.00,1.3364
3382.00,1.3488
3381.00,1.3614
3380.00,1.3740
3379.00,1.3868
3378.00,1.3995
3377.00,1.4123
3376.00,1.4251
3375.00,1.4378
3374.00,1.4505
3373.00,1.4630
3372.00,1.4754
3371.00,1.4877
3370.00,1.4999
3369.00,1.5120
3368.00,1.5238
3367.00,1.5354
3366.00,1.5468
3365.00,1.5583
3364.00,1.5697
3363.00,1.5810
3362.00,1.5920
3361.00,1.6029
3360.00,1.6136
3359.00,1.6242
3358.00,1.6346
3357.00,1.6448
3356.00,1.6547
3355.00,1.6644
3354.00,1.6741
3353.00,1.6838
3352.00,1.6934
3351.00,1.7027
3350.00,1.7117
3349.00,1.7206
3348.00,1.7294
3347.00,1.7383
3346.00,1.7471
3345.00,1.7556
3344.00,1.7639
3343.00,1.7720
3342.00,1.7798
3341.00,1.7876
3340.00,1.7953
3339.00,1.8029
3338.00,1.8103
3337.00,1.8173
3336.00,1.8242
3335.00,1.8310
3334.00,1.8378
3333.00,1.8446
3332.00,1.8514
3331.00,1.8580
3330.00,1.8642
3329.00,1.8702
3328.00,1.8761
3327.00,1.8821
3326.00,1.8880
3325.00,1.8940
3324.00,1.8996
3323.00,1.9046
3322.00,1.9094
3321.00,1.9142
3320.00,1.9192
3319.00,1.9242
3318.00,1.9290
3317.00,1.9336
3316.00,1.9382
3315.00,1.9428
3314.00,1.9475
3313.00,1.9523
3312.00,1.9571
3311.00,1.9621
3310.00,1.9672
3309.00,1.9726
3308.00,1.9782
3307.00,1.9836
3306.00,1.9888
3305.00,1.9934
3304.00,1.9972
3303.00,2.0002
3302.00,2.0029
3301.00,2.0058
3300.00,2.0093
3299.00,2.0132
3298.00,2.0172
3297.00,2.0214
3296.00,2.0257
3295.00,2.0297
3294.00,2.0333
3293.00,2.0364
3292.00,2.0393
3291.00,2.0418
3290.00,2.0441
3289.00,2.0466
3288.00,2.0495
3287.00,2.0529
3286.00,2.0563
3285.00,2.0593
3284.00,2.0619
3283.00,2.0642
3282.00,2.0664
3281.00,2.0688
3280.00,2.0712
3279.00,2.0737
3278.00,2.0763
3277.00,2.0789
3276.00,2.0811
3275.00,2.0825
3274.00,2.0836
3273.00,2.0851
3272.00,2.0874
3271.00,2.0900
3270.00,2.0920
3269.00,2.0933
3268.00,2.0940
3267.00,2.0946
3266.00,2.0954
3265.00,2.0965
3264.00,2.0977
3263.00,2.0986
3262.00,2.0996
3261.00,2.1006
3260.00,2.1018
3259.00,2.1027
3258.00,2.1033
3257.00,2.1037
3256.00,2.1038
3255.00,2.1037
3254.00,2.1035
3253.00,2.1033
3252.00,2.1032
3251.00,2.1030
3250.00,2.1028
3249.00,2.1029
3248.00,2.1033
3247.00,2.1037
3246.00,2.1036
3245.00,2.1029
3244.00,2.1021
3243.00,2.1014
3242.00,2.1010
3241.00,2.1007
3240.00,2.0999
3239.00,2.0986
3238.00,2.0968
3237.00,2.0953
3236.00,2.0940
3235.00,2.0927
3234.00,2.0914
3233.00,2.0902
3232.00,2.0893
3231.00,2.0884
3230.00,2.0872
3229.00,2.0856
3228.00,2.0837
3227.00,2.0817
3226.00,2.0796
3225.00,2.0774
3224.00,2.0752
3223.00,2.0730
3222.00,2.0708
3221.00,2.0686
3220.00,2.0664
3219.00,2.0642
3218.00,2.0621
3217.00,2.0598
3216.00,2.0570
3215.00,2.0536
3214.00,2.0497
3213.00,2.0459
3212.00,2.0427
3211.00,2.0397
3210.00,2.0368
3209.00,2.0337
3208.00,2.0304
3207.00,2.0269
3206.00,2.0232
3205.00,2.0195
3204.00,2.0157
3203.00,2.0117
3202.00,2.0076
3201.00,2.0034
3200.00,1.9993
3199.00,1.9951
3198.00,1.9908
3197.00,1.9862
3196.00,1.9814
3195.00,1.9762
3194.00,1.9709
3193.00,1.9656
3192.00,1.9603
3191.00,1.9548
3190.00,1.9492
3189.00,1.9436
3188.00,1.9380
3187.00,1.9321
3186.00,1.9259
3185.00,1.9195
3184.00,1.9131
3183.00,1.9068
3182.00,1.9005
3181.00,1.8941
3180.00,1.8875
3179.00,1.8806
3178.00,1.8734
3177.00,1.8661
3176.00,1.8588
3175.00,1.8514
3174.00,1.8439
3173.00,1.8361
3172.00,1.8279
3171.00,1.8194
3170.00,1.8107
3169.00,1.8020
3168.00,1.7932
3167.00,1.7844
3166.00,1.7755
3165.00,1.7665
3164.00,1.7574
3163.00,1.7479
3162.00,1.7380
3161.00,1.7279
3160.00,1.7175
3159.00,1.7069
3158.00,1.6962
3157.00,1.6853
3156.00,1.6743
3155.00,1.6630
3154.00,1.6515
3153.00,1.6398
3152.00,1.6279
3151.00,1.6157
3150.00,1.6033
3149.00,1.5907
3148.00,1.5780
3147.00,1.5650
3146.00,1.5518
3145.00,1.5384
3144.00,1.5247
3143.00,1.5109
3142.00,1.4968
3141.00,1.4824
3140.00,1.4678
3139.00,1.4529
3138.00,1.4378
3137.00,1.4224
3136.00,1.4070
3135.00,1.3913
3134.00,1.3755
3133.00,1.3596
3132.00,1.3436
3131.00,1.3275
3130.00,1.3113
3129.00,1.2951
3128.00,1.2788
3127.00,1.2624
3126.00,1.2461
3125.00,1.2299
3124.00,1.2137
3123.00,1.1976
3122.00,1.1816
3121.00,1.1657
3120.00,1.1502
3119.00,1.1349
3118.00,1.1200
3117.00,1.1054
3116.00,1.0912
3115.00,1.0774
3114.00,1.0641
3113.00,1.0514
3112.00,1.0394
3111.00,1.0279
3110.00,1.0172
3109.00,1.0072
3108.00,0.9980
3107.00,0.9897
3106.00,0.9823
3105.00,0.9758
3104.00,0.9704
3103.00,0.9659
3102.00,0.9624
3101.00,0.9600
3100.00,0.9588
3099.00,0.9588
3098.00,0.9599
3097.00,0.9622
3096.00,0.9657
3095.00,0.9705
3094.00,0.9765
3093.00,0.9838
3092.00,0.9921
3091.00,1.0015
3090.00,1.0118
3089.00,1.0231
3088.00,1.0354
3087.00,1.0485
3086.00,1.0623
3085.00,1.0769
3084.00,1.0921
3083.00,1.1079
3082.00,1.1242
3081.00,1.1411
3080.00,1.1584
3079.00,1.1761
3078.00,1.1941
3077.00,1.2125
3076.00,1.2313
3075.00,1.2503
3074.00,1.2695
3073.00,1.2888
3072.00,1.3081
3071.00,1.3274
3070.00,1.3466
3069.00,1.3658
3068.00,1.3849
3067.00,1.4038
3066.00,1.4226
3065.00,1.4413
3064.00,1.4599
3063.00,1.4783
3062.00,1.4964
3061.00,1.5142
3060.00,1.5317
3059.00,1.5489
3058.00,1.5659
3057.00,1.5828
3056.00,1.5995
3055.00,1.6159
3054.00,1.6321
3053.00,1.6479
3052.00,1.6634
3051.00,1.6786
3050.00,1.6935
3049.00,1.7081
3048.00,1.7226
3047.00,1.7368
3046.00,1.7508
3045.00,1.7647
3044.00,1.7786
3043.00,1.7927
3042.00,1.8066
3041.00,1.8204
3040.00,1.8340
3039.00,1.8473
3038.00,1.8603
3037.00,1.8731
3036.00,1.8855
3035.00,1.8977
3034.00,1.9097
3033.00,1.9214
3032.00,1.9331
3031.00,1.9444
3030.00,1.9555
3029.00,1.9665
3028.00,1.9774
3027.00,1.9881
3026.00,1.9986
3025.00,2.0088
3024.00,2.0185
3023.00,2.0279
3022.00,2.0373
3021.00,2.0468
3020.00,2.0566
3019.00,2.0661
3018.00,2.0750
3017.00,2.0835
3016.00,2.0920
3015.00,2.1005
3014.00,2.1090
3013.00,2.1174
3012.00,2.1252
3011.00,2.1326
3010.00,2.1401
3009.00,2.1479
3008.00,2.1563
3007.00,2.1648
3006.00,2.1729
3005.00,2.1805
3004.00,2.1877
3003.00,2.1945
3002.00,2.2011
3001.00,2.2077
3000.00,2.2141
2999.00,2.2203
2998.00,2.2262
2997.00,2.2321
2996.00,2.2379
2995.00,2.2433
2994.00,2.2483
2993.00,2.2533
2992.00,2.2580
2991.00,2.2624
2990.00,2.2666
2989.00,2.2708
2988.00,2.2751
2987.00,2.2793
2986.00,2.2832
2985.00,2.2871
2984.00,2.2909
2983.00,2.2945
2982.00,2.2979
2981.00,2.3013
2980.00,2.3052
2979.00,2.3095
2978.00,2.3143
2977.00,2.3193
2976.00,2.3245
2975.00,2.3301
2974.00,2.3371
2973.00,2.3462
2972.00,2.3577
2971.00,2.3717
2970.00,2.3884
2969.00,2.4081
2968.00,2.4308
2967.00,2.4565
2966.00,2.4850
2965.00,2.5164
2964.00,2.5498
2963.00,2.5841
2962.00,2.6187
2961.00,2.6541
2960.00,2.6899
2959.00,2.7253
2958.00,2.7588
2957.00,2.7896
2956.00,2.8178
2955.00,2.8438
2954.00,2.8693
2953.00,2.8956
2952.00,2.9228
2951.00,2.9505
2950.00,2.9785
2949.00,3.0073
2948.00,3.0367
2947.00,3.0659
2946.00,3.0953
2945.00,3.1264
2944.00,3.1586
2943.00,3.1890
2942.00,3.2140
2941.00,3.2314
2940.00,3.2421
2939.00,3.2501
2938.00,3.2602
2937.00,3.2723
2936.00,3.2793
2935.00,3.2738
2934.00,3.2549
2933.00,3.2257
2932.00,3.1882
2931.00,3.1444
2930.00,3.0986
2929.00,3.0537
2928.00,3.0089
2927.00,2.9629
2926.00,2.9164
2925.00,2.8706
2924.00,2.8249
2923.00,2.7787
2922.00,2.7331
2921.00,2.6897
2920.00,2.6488
2919.00,2.6103
2918.00,2.5754
2917.00,2.5456
2916.00,2.5214
2915.00,2.5017
2914.00,2.4856
2913.00,2.4727
2912.00,2.4625
2911.00,2.4542
2910.00,2.4476
2909.00,2.4429
2908.00,2.4400
2907.00,2.4384
2906.00,2.4372
2905.00,2.4359
2904.00,2.4342
2903.00,2.4322
2902.00,2.4304
2901.00,2.4295
2900.00,2.4292
2899.00,2.4285
2898.00,2.4272
2897.00,2.4259
2896.00,2.4255
2895.00,2.4260
2894.00,2.4269
2893.00,2.4281
2892.00,2.4295
2891.00,2.4310
2890.00,2.4321
2889.00,2.4326
2888.00,2.4331
2887.00,2.4338
2886.00,2.4351
2885.00,2.4374
2884.00,2.4405
2883.00,2.4446
2882.00,2.4493
2881.00,2.4542
2880.00,2.4591
2879.00,2.4639
2878.00,2.4692
2877.00,2.4756
2876.00,2.4837
2875.00,2.4941
2874.00,2.5074
2873.00,2.5238
2872.00,2.5430
2871.00,2.5644
2870.00,2.5877
2869.00,2.6130
2868.00,2.6395
2867.00,2.6655
2866.00,2.6896
2865.00,2.7104
2864.00,2.7262
2863.00,2.7350
2862.00,2.7359
2861.00,2.7290
2860.00,2.7148
2859.00,2.6941
2858.00,2.6681
2857.00,2.6389
2856.00,2.6083
2855.00,2.5775
2854.00,2.5475
2853.00,2.5194
2852.00,2.4940
2851.00,2.4720
2850.00,2.4536
2849.00,2.4387
2848.00,2.4264
2847.00,2.4159
2846.00,2.4073
2845.00,2.4005
2844.00,2.3952
2843.00,2.3905
2842.00,2.3864
2841.00,2.3833
2840.00,2.3811
2839.00,2.3790
2838.00,2.3763
2837.00,2.3730
2836.00,2.3696
2835.00,2.3663
2834.00,2.3637
2833.00,2.3616
2832.00,2.3599
2831.00,2.3581
2830.00,2.3561
2829.00,2.3544
2828.00,2.3532
2827.00,2.3520
2826.00,2.3503
2825.00,2.3475
2824.00,2.3439
2823.00,2.3401
2822.00,2.3365
2821.00,2.3330
2820.00,2.3292
2819.00,2.3244
2818.00,2.3189
2817.00,2.3132
2816.00,2.3076
2815.00,2.3018
2814.00,2.2957
2813.00,2.2897
2812.00,2.2842
2811.00,2.2790
2810.00,2.2735
2809.00,2.2673
2808.00,2.2604
2807.00,2.2536
2806.00,2.2470
2805.00,2.2407
2804.00,2.2341
2803.00,2.2270
2802.00,2.2199
2801.00,2.2131
2800.00,2.2064
2799.00,2.1996
2798.00,2.1926
2797.00,2.1853
2796.00,2.1781
2795.00,2.1708
2794.00,2.1633
2793.00,2.1555
2792.00,2.1474
2791.00,2.1388
2790.00,2.1298
2789.00,2.1205
2788.00,2.1109
2787.00,2.1013
2786.00,2.0917
2785.00,2.0821
2784.00,2.0720
2783.00,2.0612
2782.00,2.0501
2781.00,2.0389
2780.00,2.0278
2779.00,2.0167
2778.00,2.0055
2777.00,1.9943
2776.00,1.9828
2775.00,1.9708
2774.00,1.9583
2773.00,1.9456
2772.00,1.9327
2771.00,1.9194
2770.00,1.9059
2769.00,1.8922
2768.00,1.8785
2767.00,1.8646
2766.00,1.8506
2765.00,1.8364
2764.00,1.8219
2763.00,1.8072
2762.00,1.7922
2761.00,1.7767
2760.00,1.7608
2759.00,1.7445
2758.00,1.7277
2757.00,1.7105
2756.00,1.6927
2755.00,1.6744
2754.00,1.6554
2753.00,1.6360
2752.00,1.6161
2751.00,1.5959
2750.00,1.5752
2749.00,1.5543
2748.00,1.5332
2747.00,1.5119
2746.00,1.4905
2745.00,1.4690
2744.00,1.4473
2743.00,1.4256
2742.00,1.4039
2741.00,1.3822
2740.00,1.3607
2739.00,1.3393
2738.00,1.3181
2737.00,1.2973
2736.00,1.2767
2735.00,1.2566
2734.00,1.2368
2733.00,1.2176
2732.00,1.1988
2731.00,1.1806
2730.00,1.1628
2729.00,1.1456
2728.00,1.1291
2727.00,1.1135
2726.00,1.0989
2725.00,1.0855
2724.00,1.0732
2723.00,1.0624
2722.00,1.0530
2721.00,1.0454
2720.00,1.0395
2719.00,1.0354
2718.00,1.0331
2717.00,1.0325
2716.00,1.0336
2715.00,1.0364
2714.00,1.0407
2713.00,1.0465
2712.00,1.0539
2711.00,1.0629
2710.00,1.0733
2709.00,1.0851
2708.00,1.0983
2707.00,1.1127
2706.00,1.1283
2705.00,1.1449
2704.00,1.1626
2703.00,1.1811
2702.00,1.2004
2701.00,1.2204
2700.00,1.2410
2699.00,1.2622
2698.00,1.2837
2697.00,1.3056
2696.00,1.3278
2695.00,1.3502
2694.00,1.3727
2693.00,1.3954
2692.00,1.4182
2691.00,1.4411
2690.00,1.4639
2689.00,1.4868
2688.00,1.5098
2687.00,1.5327
2686.00,1.5557
2685.00,1.5785
2684.00,1.6010
2683.00,1.6230
2682.00,1.6444
2681.00,1.6650
2680.00,1.6847
2679.00,1.7036
2678.00,1.7214
2677.00,1.7381
2676.00,1.7537
2675.00,1.7684
2674.00,1.7824
2673.00,1.7957
2672.00,1.8085
2671.00,1.8208
2670.00,1.8324
2669.00,1.8435
2668.00,1.8540
2667.00,1.8642
2666.00,1.8743
2665.00,1.8849
2664.00,1.8960
2663.00,1.9075
2662.00,1.9193
2661.00,1.9315
2660.00,1.9441
2659.00,1.9571
2658.00,1.9702
2657.00,1.9832
2656.00,1.9961
2655.00,2.0088
2654.00,2.0212
2653.00,2.0332
2652.00,2.0447
2651.00,2.0557
2650.00,2.0662
2649.00,2.0763
2648.00,2.0859
2647.00,2.0952
2646.00,2.1046
2645.00,2.1144
2644.00,2.1243
2643.00,2.1339
2642.00,2.1431
2641.00,2.1522
2640.00,2.1612
2639.00,2.1700
2638.00,2.1788
2637.00,2.1878
2636.00,2.1972
2635.00,2.2063
2634.00,2.2147
2633.00,2.2226
2632.00,2.2304
2631.00,2.2384
2630.00,2.2467
2629.00,2.2550
2628.00,2.2633
2627.00,2.2714
2626.00,2.2790
2625.00,2.2859
2624.00,2.2925
2623.00,2.2990
2622.00,2.3057
2621.00,2.3126
2620.00,2.3194
2619.00,2.3259
2618.00,2.3319
2617.00,2.3378
2616.00,2.3434
2615.00,2.3488
2614.00,2.3540
2613.00,2.3596
2612.00,2.3654
2611.00,2.3710
2610.00,2.3763
2609.00,2.3814
2608.00,2.3864
2607.00,2.3912
2606.00,2.3956
2605.00,2.4000
2604.00,2.4050
2603.00,2.4101
2602.00,2.4147
2601.00,2.4185
2600.00,2.4218
2599.00,2.4253
2598.00,2.4290
2597.00,2.4328
2596.00,2.4364
2595.00,2.4403
2594.00,2.4443
2593.00,2.4482
2592.00,2.4516
2591.00,2.4542
2590.00,2.4564
2589.00,2.4586
2588.00,2.4613
2587.00,2.4646
2586.00,2.4687
2585.00,2.4729
2584.00,2.4766
2583.00,2.4793
2582.00,2.4815
2581.00,2.4840
2580.00,2.4869
2579.00,2.4897
2578.00,2.4919
2577.00,2.4932
2576.00,2.4941
2575.00,2.4953
2574.00,2.4975
2573.00,2.5007
2572.00,2.5041
2571.00,2.5066
2570.00,2.5082
2569.00,2.5093
2568.00,2.5105
2567.00,2.5122
2566.00,2.5141
2565.00,2.5160
2564.00,2.5175
2563.00,2.5184
2562.00,2.5187
2561.00,2.5187
2560.00,2.5191
2559.00,2.5199
2558.00,2.5208
2557.00,2.5214
2556.00,2.5219
2555.00,2.5231
2554.00,2.5251
2553.00,2.5269
2552.00,2.5276
2551.00,2.5270
2550.00,2.5265
2549.00,2.5268
2548.00,2.5277
2547.00,2.5281
2546.00,2.5277
2545.00,2.5271
2544.00,2.5270
2543.00,2.5270
2542.00,2.5265
2541.00,2.5253
2540.00,2.5239
2539.00,2.5231
2538.00,2.5231
2537.00,2.5233
2536.00,2.5230
2535.00,2.5223
2534.00,2.5221
2533.00,2.5226
2532.00,2.5230
2531.00,2.5225
2530.00,2.5212
2529.00,2.5197
2528.00,2.5183
2527.00,2.5168
2526.00,2.5150
2525.00,2.5132
2524.00,2.5111
2523.00,2.5084
2522.00,2.5054
2521.00,2.5025
2520.00,2.5002
2519.00,2.4981
2518.00,2.4959
2517.00,2.4935
2516.00,2.4908
2515.00,2.4878
2514.00,2.4850
2513.00,2.4829
2512.00,2.4811
2511.00,2.4790
2510.00,2.4763
2509.00,2.4734
2508.00,2.4707
2507.00,2.4678
2506.00,2.4644
2505.00,2.4604
2504.00,2.4562
2503.00,2.4518
2502.00,2.4476
2501.00,2.4439
2500.00,2.4407
2499.00,2.4375
2498.00,2.4337
2497.00,2.4294
2496.00,2.4248
2495.00,2.4201
2494.00,2.4155
2493.00,2.4109
2492.00,2.4064
2491.00,2.4021
2490.00,2.3978
2489.00,2.3931
2488.00,2.3877
2487.00,2.3819
2486.00,2.3760
2485.00,2.3702
2484.00,2.3643
2483.00,2.3581
2482.00,2.3516
2481.00,2.3452
2480.00,2.3390
2479.00,2.3329
2478.00,2.3267
2477.00,2.3202
2476.00,2.3133
2475.00,2.3060
2474.00,2.2985
2473.00,2.2908
2472.00,2.2830
2471.00,2.2750
2470.00,2.2670
2469.00,2.2596
2468.00,2.2527
2467.00,2.2459
2466.00,2.2385
2465.00,2.2303
2464.00,2.2217
2463.00,2.2129
2462.00,2.2041
2461.00,2.1950
2460.00,2.1856
2459.00,2.1760
2458.00,2.1662
2457.00,2.1564
2456.00,2.1463
2455.00,2.1358
2454.00,2.1248
2453.00,2.1135
2452.00,2.1022
2451.00,2.0908
2450.00,2.0792
2449.00,2.0675
2448.00,2.0555
2447.00,2.0433
2446.00,2.0308
2445.00,2.0178
2444.00,2.0046
2443.00,1.9912
2442.00,1.9775
2441.00,1.9633
2440.00,1.9485
2439.00,1.9333
2438.00,1.9178
2437.00,1.9022
2436.00,1.8865
2435.00,1.8703
2434.00,1.8537
2433.00,1.8366
2432.00,1.8192
2431.00,1.8018
2430.00,1.7843
2429.00,1.7666
2428.00,1.7486
2427.00,1.7302
2426.00,1.7116
2425.00,1.6926
2424.00,1.6734
2423.00,1.6538
2422.00,1.6339
2421.00,1.6137
2420.00,1.5931
2419.00,1.5722
2418.00,1.5509
2417.00,1.5294
2416.00,1.5075
2415.00,1.4854
2414.00,1.4631
2413.00,1.4408
2412.00,1.4186
2411.00,1.3966
2410.00,1.3748
2409.00,1.3532
2408.00,1.3320
2407.00,1.3113
2406.00,1.2911
2405.00,1.2716
2404.00,1.2528
2403.00,1.2349
2402.00,1.2180
2401.00,1.2023
2400.00,1.1879
2399.00,1.1749
2398.00,1.1633
2397.00,1.1534
2396.00,1.1451
2395.00,1.1386
2394.00,1.1339
2393.00,1.1310
2392.00,1.1300
2391.00,1.1309
2390.00,1.1338
2389.00,1.1386
2388.00,1.1454
2387.00,1.1540
2386.00,1.1643
2385.00,1.1763
2384.00,1.1898
2383.00,1.2050
2382.00,1.2215
2381.00,1.2395
2380.00,1.2586
2379.00,1.2787
2378.00,1.2996
2377.00,1.3206
2376.00,1.3413
2375.00,1.3612
2374.00,1.3798
2373.00,1.3969
2372.00,1.4126
2371.00,1.4274
2370.00,1.4418
2369.00,1.4565
2368.00,1.4722
2367.00,1.4889
2366.00,1.5064
2365.00,1.5243
2364.00,1.5423
2363.00,1.5602
2362.00,1.5775
2361.00,1.5944
2360.00,1.6110
2359.00,1.6270
2358.00,1.6427
2357.00,1.6586
2356.00,1.6750
2355.00,1.6919
2354.00,1.7090
2353.00,1.7262
2352.00,1.7441
2351.00,1.7620
2350.00,1.7801
2349.00,1.7987
2348.00,1.8186
2347.00,1.8383
2346.00,1.8552
2345.00,1.8698
2344.00,1.8837
2343.00,1.8975
2342.00,1.9097
2341.00,1.9201
2340.00,1.9315
2339.00,1.9462
2338.00,1.9657
2337.00,1.9878
2336.00,2.0102
2335.00,2.0318
2334.00,2.0524
2333.00,2.0726
2332.00,2.0923
2331.00,2.1118
2330.00,2.1312
2329.00,2.1515
2328.00,2.1720
2327.00,2.1920
2326.00,2.2094
2325.00,2.2253
2324.00,2.2395
2323.00,2.2538
2322.00,2.2678
2321.00,2.2819
2320.00,2.2962
2319.00,2.3103
2318.00,2.3246
2317.00,2.3387
2316.00,2.3525
2315.00,2.3654
2314.00,2.3777
2313.00,2.3901
2312.00,2.4026
2311.00,2.4155
2310.00,2.4282
2309.00,2.4410
2308.00,2.4526
2307.00,2.4632
2306.00,2.4723
2305.00,2.4809
2304.00,2.4890
2303.00,2.4968
2302.00,2.5037
2301.00,2.5099
2300.00,2.5157
2299.00,2.5215
2298.00,2.5269
2297.00,2.5319
2296.00,2.5358
2295.00,2.5388
2294.00,2.5410
2293.00,2.5438
2292.00,2.5477
2291.00,2.5530
2290.00,2.5588
2289.00,2.5642
2288.00,2.5690
2287.00,2.5734
2286.00,2.5779
2285.00,2.5829
2284.00,2.5885
2283.00,2.5949
2282.00,2.6023
2281.00,2.6099
2280.00,2.6161
2279.00,2.6197
2278.00,2.6212
2277.00,2.6224
2276.00,2.6246
2275.00,2.6280
2274.00,2.6325
2273.00,2.6374
2272.00,2.6421
2271.00,2.6457
2270.00,2.6481
2269.00,2.6500
2268.00,2.6524
2267.00,2.6558
2266.00,2.6600
2265.00,2.6644
2264.00,2.6688
2263.00,2.6730
2262.00,2.6773
2261.00,2.6821
2260.00,2.6870
2259.00,2.6909
2258.00,2.6928
2257.00,2.6933
2256.00,2.6940
2255.00,2.6963
2254.00,2.7003
2253.00,2.7049
2252.00,2.7091
2251.00,2.7127
2250.00,2.7163
2249.00,2.7202
2248.00,2.7243
2247.00,2.7277
2246.00,2.7301
2245.00,2.7315
2244.00,2.7328
2243.00,2.7346
2242.00,2.7371
2241.00,2.7399
2240.00,2.7423
2239.00,2.7437
2238.00,2.7443
2237.00,2.7442
2236.00,2.7440
2235.00,2.7438
2234.00,2.7442
2233.00,2.7456
2232.00,2.7482
2231.00,2.7515
2230.00,2.7544
2229.00,2.7559
2228.00,2.7560
2227.00,2.7556
2226.00,2.7556
2225.00,2.7565
2224.00,2.7575
2223.00,2.7582
2222.00,2.7586
2221.00,2.7590
2220.00,2.7597
2219.00,2.7608
2218.00,2.7617
2217.00,2.7617
2216.00,2.7610
2215.00,2.7601
2214.00,2.7596
2213.00,2.7588
2212.00,2.7573
2211.00,2.7554
2210.00,2.7541
2209.00,2.7539
2208.00,2.7547
2207.00,2.7560
2206.00,2.7578
2205.00,2.7589
2204.00,2.7585
2203.00,2.7564
2202.00,2.7541
2201.00,2.7525
2200.00,2.7512
2199.00,2.7496
2198.00,2.7478
2197.00,2.7467
2196.00,2.7458
2195.00,2.7442
2194.00,2.7412
2193.00,2.7376
2192.00,2.7348
2191.00,2.7337
2190.00,2.7343
2189.00,2.7352
2188.00,2.7346
2187.00,2.7319
2186.00,2.7280
2185.00,2.7246
2184.00,2.7219
2183.00,2.7196
2182.00,2.7172
2181.00,2.7149
2180.00,2.7134
2179.00,2.7124
2178.00,2.7113
2177.00,2.7093
2176.00,2.7061
2175.00,2.7019
2174.00,2.6973
2173.00,2.6925
2172.00,2.6879
2171.00,2.6838
2170.00,2.6805
2169.00,2.6778
2168.00,2.6753
2167.00,2.6722
2166.00,2.6686
2165.00,2.6647
2164.00,2.6603
2163.00,2.6557
2162.00,2.6508
2161.00,2.6456
2160.00,2.6403
2159.00,2.6353
2158.00,2.6311
2157.00,2.6274
2156.00,2.6231
2155.00,2.6174
2154.00,2.6105
2153.00,2.6036
2152.00,2.5976
2151.00,2.5926
2150.00,2.5882
2149.00,2.5836
2148.00,2.5778
2147.00,2.5707
2146.00,2.5630
2145.00,2.5555
2144.00,2.5484
2143.00,2.5412
2142.00,2.5334
2141.00,2.5255
2140.00,2.5177
2139.00,2.5103
2138.00,2.5030
2137.00,2.4957
2136.00,2.4884
2135.00,2.4812
2134.00,2.4739
2133.00,2.4659
2132.00,2.4573
2131.00,2.4482
2130.00,2.4387
2129.00,2.4289
2128.00,2.4188
2127.00,2.4087
2126.00,2.3991
2125.00,2.3900
2124.00,2.3806
2123.00,2.3704
2122.00,2.3594
2121.00,2.3478
2120.00,2.3361
2119.00,2.3241
2118.00,2.3119
2117.00,2.2997
2116.00,2.2874
2115.00,2.2751
2114.00,2.2624
2113.00,2.2490
2112.00,2.2349
2111.00,2.2204
2110.00,2.2057
2109.00,2.1910
2108.00,2.1761
2107.00,2.1608
2106.00,2.1452
2105.00,2.1291
2104.00,2.1127
2103.00,2.0960
2102.00,2.0790
2101.00,2.0618
2100.00,2.0444
2099.00,2.0266
2098.00,2.0085
2097.00,1.9901
2096.00,1.9715
2095.00,1.9524
2094.00,1.9327
2093.00,1.9124
2092.00,1.8915
2091.00,1.8700
2090.00,1.8480
2089.00,1.8255
2088.00,1.8028
2087.00,1.7796
2086.00,1.7557
2085.00,1.7311
2084.00,1.7058
2083.00,1.6801
2082.00,1.6541
2081.00,1.6282
2080.00,1.6024
2079.00,1.5767
2078.00,1.5514
2077.00,1.5267
2076.00,1.5029
2075.00,1.4802
2074.00,1.4587
2073.00,1.4387
2072.00,1.4203
2071.00,1.4038
2070.00,1.3892
2069.00,1.3767
2068.00,1.3663
2067.00,1.3577
2066.00,1.3508
2065.00,1.3455
2064.00,1.3418
2063.00,1.3392
2062.00,1.3374
2061.00,1.3359
2060.00,1.3349
2059.00,1.3346
2058.00,1.3353
2057.00,1.3373
2056.00,1.3412
2055.00,1.3471
2054.00,1.3552
2053.00,1.3657
2052.00,1.3786
2051.00,1.3938
2050.00,1.4111
2049.00,1.4304
2048.00,1.4514
2047.00,1.4739
2046.00,1.4976
2045.00,1.5223
2044.00,1.5480
2043.00,1.5743
2042.00,1.6012
2041.00,1.6286
2040.00,1.6566
2039.00,1.6847
2038.00,1.7128
2037.00,1.7404
2036.00,1.7676
2035.00,1.7945
2034.00,1.8211
2033.00,1.8474
2032.00,1.8731
2031.00,1.8983
2030.00,1.9228
2029.00,1.9467
2028.00,1.9702
2027.00,1.9933
2026.00,2.0161
2025.00,2.0387
2024.00,2.0609
2023.00,2.0826
2022.00,2.1035
2021.00,2.1237
2020.00,2.1431
2019.00,2.1616
2018.00,2.1793
2017.00,2.1969
2016.00,2.2148
2015.00,2.2329
2014.00,2.2506
2013.00,2.2676
2012.00,2.2839
2011.00,2.3001
2010.00,2.3162
2009.00,2.3321
2008.00,2.3474
2007.00,2.3619
2006.00,2.3759
2005.00,2.3899
2004.00,2.4039
2003.00,2.4173
2002.00,2.4300
2001.00,2.4423
2000.00,2.4545
1999.00,2.4666
1998.00,2.4788
1997.00,2.4915
1996.00,2.5045
1995.00,2.5170
1994.00,2.5281
1993.00,2.5383
1992.00,2.5486
1991.00,2.5601
1990.00,2.5723
1989.00,2.5842
1988.00,2.5952
1987.00,2.6059
1986.00,2.6167
1985.00,2.6275
1984.00,2.6376
1983.00,2.6467
1982.00,2.6549
1981.00,2.6629
1980.00,2.6709
1979.00,2.6793
1978.00,2.6883
1977.00,2.6974
1976.00,2.7059
1975.00,2.7130
1974.00,2.7189
1973.00,2.7248
1972.00,2.7317
1971.00,2.7394
1970.00,2.7473
1969.00,2.7548
1968.00,2.7623
1967.00,2.7698
1966.00,2.7772
1965.00,2.7840
1964.00,2.7900
1963.00,2.7954
1962.00,2.8007
1961.00,2.8062
1960.00,2.8122
1959.00,2.8185
1958.00,2.8252
1957.00,2.8323
1956.00,2.8394
1955.00,2.8458
1954.00,2.8505
1953.00,2.8534
1952.00,2.8558
1951.00,2.8598
1950.00,2.8663
1949.00,2.8744
1948.00,2.8818
1947.00,2.8874
1946.00,2.8913
1945.00,2.8943
1944.00,2.8966
1943.00,2.8993
1942.00,2.9035
1941.00,2.9090
1940.00,2.9140
1939.00,2.9169
1938.00,2.9181
1937.00,2.9197
1936.00,2.9233
1935.00,2.9287
1934.00,2.9343
1933.00,2.9393
1932.00,2.9433
1931.00,2.9466
1930.00,2.9494
1929.00,2.9520
1928.00,2.9549
1927.00,2.9581
1926.00,2.9607
1925.00,2.9622
1924.00,2.9632
1923.00,2.9648
1922.00,2.9678
1921.00,2.9713
1920.00,2.9740
1919.00,2.9751
1918.00,2.9755
1917.00,2.9764
1916.00,2.9784
1915.00,2.9811
1914.00,2.9836
1913.00,2.9854
1912.00,2.9868
1911.00,2.9888
1910.00,2.9918
1909.00,2.9958
1908.00,3.0002
1907.00,3.0043
1906.00,3.0075
1905.00,3.0088
1904.00,3.0081
1903.00,3.0058
1902.00,3.0034
1901.00,3.0023
1900.00,3.0035
1899.00,3.0065
1898.00,3.0090
1897.00,3.0096
1896.00,3.0093
1895.00,3.0097
1894.00,3.0116
1893.00,3.0136
1892.00,3.0146
1891.00,3.0145
1890.00,3.0135
1889.00,3.0127
1888.00,3.0138
1887.00,3.0171
1886.00,3.0206
1885.00,3.0213
1884.00,3.0188
1883.00,3.0160
1882.00,3.0149
1881.00,3.0141
1880.00,3.0116
1879.00,3.0070
1878.00,3.0020
1877.00,2.9986
1876.00,2.9971
1875.00,2.9965
1874.00,2.9951
1873.00,2.9929
1872.00,2.9909
1871.00,2.9894
1870.00,2.9865
1869.00,2.9810
1868.00,2.9753
1867.00,2.9721
1866.00,2.9715
1865.00,2.9712
1864.00,2.9703
1863.00,2.9691
1862.00,2.9671
1861.00,2.9627
1860.00,2.9566
1859.00,2.9518
1858.00,2.9498
1857.00,2.9490
1856.00,2.9473
1855.00,2.9443
1854.00,2.9405
1853.00,2.9359
1852.00,2.9308
1851.00,2.9257
1850.00,2.9196
1849.00,2.9121
1848.00,2.9051
1847.00,2.9020
1846.00,2.9018
1845.00,2.8991
1844.00,2.8908
1843.00,2.8802
1842.00,2.8713
1841.00,2.8651
1840.00,2.8597
1839.00,2.8539
1838.00,2.8478
1837.00,2.8418
1836.00,2.8360
1835.00,2.8305
1834.00,2.8255
1833.00,2.8198
1832.00,2.8116
1831.00,2.8000
1830.00,2.7871
1829.00,2.7756
1828.00,2.7660
1827.00,2.7568
1826.00,2.7460
1825.00,2.7336
1824.00,2.7215
1823.00,2.7116
1822.00,2.7033
1821.00,2.6946
1820.00,2.6840
1819.00,2.6717
1818.00,2.6585
1817.00,2.6448
1816.00,2.6312
1815.00,2.6181
1814.00,2.6052
1813.00,2.5922
1812.00,2.5793
1811.00,2.5675
1810.00,2.5569
1809.00,2.5466
1808.00,2.5363
1807.00,2.5268
1806.00,2.5180
1805.00,2.5083
1804.00,2.4957
1803.00,2.4800
1802.00,2.4613
1801.00,2.4405
1800.00,2.4182
1799.00,2.3942
1798.00,2.3680
1797.00,2.3397
1796.00,2.3116
1795.00,2.2847
1794.00,2.2557
1793.00,2.2197
1792.00,2.1768
1791.00,2.1324
1790.00,2.0907
1789.00,2.0519
1788.00,2.0137
1787.00,1.9742
1786.00,1.9324
1785.00,1.8895
1784.00,1.8483
1783.00,1.8106
1782.00,1.7765
1781.00,1.7469
1780.00,1.7240
1779.00,1.7101
1778.00,1.7055
1777.00,1.7102
1776.00,1.7259
1775.00,1.7535
1774.00,1.7902
1773.00,1.8317
1772.00,1.8767
1771.00,1.9250
1770.00,1.9737
1769.00,2.0202
1768.00,2.0626
1767.00,2.0989
1766.00,2.1287
1765.00,2.1543
1764.00,2.1786
1763.00,2.2034
1762.00,2.2308
1761.00,2.2637
1760.00,2.3021
1759.00,2.3438
1758.00,2.3873
1757.00,2.4332
1756.00,2.4828
1755.00,2.5345
1754.00,2.5853
1753.00,2.6330
1752.00,2.6753
1751.00,2.7111
1750.00,2.7422
1749.00,2.7725
1748.00,2.8044
1747.00,2.8373
1746.00,2.8703
1745.00,2.9047
1744.00,2.9426
1743.00,2.9838
1742.00,3.0266
1741.00,3.0699
1740.00,3.1115
1739.00,3.1482
1738.00,3.1813
1737.00,3.2184
1736.00,3.2626
1735.00,3.3070
1734.00,3.3451
1733.00,3.3775
1732.00,3.4033
1731.00,3.4238
1730.00,3.4467
1729.00,3.4834
1728.00,3.5427
1727.00,3.6292
1726.00,3.7494
1725.00,3.9187
1724.00,4.1562
1723.00,4.4560
1722.00,4.7386
1721.00,4.9042
1720.00,4.9573
1719.00,4.8470
1718.00,4.6668
1717.00,4.6514
1716.00,4.8593
1715.00,4.8201
1714.00,4.6299
1713.00,4.6087
1712.00,4.6546
1711.00,4.7983
1710.00,5.2766
1709.00,5.1495
1708.00,4.7043
1707.00,4.5394
1706.00,4.4178
1705.00,4.3635
1704.00,4.4049
1703.00,4.4354
1702.00,4.2538
1701.00,4.0145
1700.00,3.8108
1699.00,3.6562
1698.00,3.5504
1697.00,3.4765
1696.00,3.4157
1695.00,3.3596
1694.00,3.3093
1693.00,3.2688
1692.00,3.2386
1691.00,3.2115
1690.00,3.1798
1689.00,3.1465
1688.00,3.1215
1687.00,3.1075
1686.00,3.0924
1685.00,3.0584
1684.00,3.0067
1683.00,2.9538
1682.00,2.9075
1681.00,2.8688
1680.00,2.8384
1679.00,2.8166
1678.00,2.8007
1677.00,2.7842
1676.00,2.7597
1675.00,2.7264
1674.00,2.6900
1673.00,2.6546
1672.00,2.6212
1671.00,2.5860
1670.00,2.5446
1669.00,2.4971
1668.00,2.4471
1667.00,2.3970
1666.00,2.3473
1665.00,2.2957
1664.00,2.2379
1663.00,2.1732
1662.00,2.1071
1661.00,2.0458
1660.00,1.9927
1659.00,1.9486
1658.00,1.9146
1657.00,1.8949
1656.00,1.8943
1655.00,1.9086
1654.00,1.9233
1653.00,1.9336
1652.00,1.9413
1651.00,1.9413
1650.00,1.9416
1649.00,1.9541
1648.00,1.9784
1647.00,2.0087
1646.00,2.0417
1645.00,2.0737
1644.00,2.1015
1643.00,2.1279
1642.00,2.1572
1641.00,2.1900
1640.00,2.2246
1639.00,2.2610
1638.00,2.2991
1637.00,2.3357
1636.00,2.3665
1635.00,2.3907
1634.00,2.4092
1633.00,2.4239
1632.00,2.4388
1631.00,2.4553
1630.00,2.4725
1629.00,2.4897
1628.00,2.5085
1627.00,2.5301
1626.00,2.5540
1625.00,2.5782
1624.00,2.6005
1623.00,2.6216
1622.00,2.6440
1621.00,2.6691
1620.00,2.6985
1619.00,2.7318
1618.00,2.7644
1617.00,2.7890
1616.00,2.8024
1615.00,2.8074
1614.00,2.8109
1613.00,2.8186
1612.00,2.8291
1611.00,2.8383
1610.00,2.8458
1609.00,2.8545
1608.00,2.8651
1607.00,2.8763
1606.00,2.8877
1605.00,2.9004
1604.00,2.9140
1603.00,2.9270
1602.00,2.9388
1601.00,2.9502
1600.00,2.9619
1599.00,2.9742
1598.00,2.9877
1597.00,3.0030
1596.00,3.0190
1595.00,3.0328
1594.00,3.0430
1593.00,3.0500
1592.00,3.0548
1591.00,3.0590
1590.00,3.0643
1589.00,3.0712
1588.00,3.0775
1587.00,3.0822
1586.00,3.0875
1585.00,3.0963
1584.00,3.1080
1583.00,3.1196
1582.00,3.1285
1581.00,3.1348
1580.00,3.1412
1579.00,3.1521
1578.00,3.1688
1577.00,3.1863
1576.00,3.1973
1575.00,3.1992
1574.00,3.1965
1573.00,3.1965
1572.00,3.2001
1571.00,3.2022
1570.00,3.2011
1569.00,3.2028
1568.00,3.2092
1567.00,3.2161
1566.00,3.2209
1565.00,3.2259
1564.00,3.2357
1563.00,3.2548
1562.00,3.2824
1561.00,3.3060
1560.00,3.3055
1559.00,3.2839
1558.00,3.2699
1557.00,3.2715
1556.00,3.2784
1555.00,3.2830
1554.00,3.2824
1553.00,3.2783
1552.00,3.2739
1551.00,3.2726
1550.00,3.2771
1549.00,3.2868
1548.00,3.2959
1547.00,3.2989
1546.00,3.2974
1545.00,3.2981
1544.00,3.3044
1543.00,3.3130
1542.00,3.3181
1541.00,3.3174
1540.00,3.3152
1539.00,3.3176
1538.00,3.3227
1537.00,3.3257
1536.00,3.3264
1535.00,3.3238
1534.00,3.3180
1533.00,3.3138
1532.00,3.3143
1531.00,3.3177
1530.00,3.3232
1529.00,3.3307
1528.00,3.3373
1527.00,3.3388
1526.00,3.3360
1525.00,3.3342
1524.00,3.3365
1523.00,3.3408
1522.00,3.3438
1521.00,3.3465
1520.00,3.3500
1519.00,3.3517
1518.00,3.3517
1517.00,3.3519
1516.00,3.3522
1515.00,3.3512
1514.00,3.3484
1513.00,3.3427
1512.00,3.3332
1511.00,3.3235
1510.00,3.3204
1509.00,3.3250
1508.00,3.3291
1507.00,3.3267
1506.00,3.3235
1505.00,3.3217
1504.00,3.3162
1503.00,3.3082
1502.00,3.3023
1501.00,3.3010
1500.00,3.3048
1499.00,3.3117
1498.00,3.3167
1497.00,3.3141
1496.00,3.3036
1495.00,3.2940
1494.00,3.2947
1493.00,3.3025
1492.00,3.3013
1491.00,3.2807
1490.00,3.2518
1489.00,3.2340
1488.00,3.2335
1487.00,3.2445
1486.00,3.2593
1485.00,3.2710
1484.00,3.2728
1483.00,3.2634
1482.00,3.2504
1481.00,3.2434
1480.00,3.2430
1479.00,3.2414
1478.00,3.2327
1477.00,3.2196
1476.00,3.2079
1475.00,3.1994
1474.00,3.1911
1473.00,3.1813
1472.00,3.1720
1471.00,3.1641
1470.00,3.1568
1469.00,3.1514
1468.00,3.1498
1467.00,3.1518
1466.00,3.1555
1465.00,3.1590
1464.00,3.1601
1463.00,3.1561
1462.00,3.1472
1461.00,3.1374
1460.00,3.1305
1459.00,3.1266
1458.00,3.1228
1457.00,3.1204
1456.00,3.1258
1455.00,3.1428
1454.00,3.1769
1453.00,3.2331
1452.00,3.3060
1451.00,3.3793
1450.00,3.4367
1449.00,3.4725
1448.00,3.4878
1447.00,3.4839
1446.00,3.4634
1445.00,3.4295
1444.00,3.3862
1443.00,3.3409
1442.00,3.3021
1441.00,3.2733
1440.00,3.2512
1439.00,3.2302
1438.00,3.2080
1437.00,3.1879
1436.00,3.1756
1435.00,3.1724
1434.00,3.1765
1433.00,3.1875
1432.00,3.2035
1431.00,3.2205
1430.00,3.2366
1429.00,3.2518
1428.00,3.2637
1427.00,3.2683
1426.00,3.2666
1425.00,3.2656
1424.00,3.2718
1423.00,3.2863
1422.00,3.3042
1421.00,3.3174
1420.00,3.3171
1419.00,3.3025
1418.00,3.2832
1417.00,3.2665
1416.00,3.2499
1415.00,3.2280
1414.00,3.2001
1413.00,3.1714
1412.00,3.1471
1411.00,3.1284
1410.00,3.1131
1409.00,3.0971
1408.00,3.0760
1407.00,3.0481
1406.00,3.0160
1405.00,2.9842
1404.00,2.9557
1403.00,2.9310
1402.00,2.9095
1401.00,2.8899
1400.00,2.8696
1399.00,2.8469
1398.00,2.8224
1397.00,2.7967
1396.00,2.7693
1395.00,2.7400
1394.00,2.7102
1393.00,2.6811
1392.00,2.6526
1391.00,2.6237
1390.00,2.5937
1389.00,2.5612
1388.00,2.5256
1387.00,2.4887
1386.00,2.4533
1385.00,2.4200
1384.00,2.3873
1383.00,2.3540
1382.00,2.3203
1381.00,2.2869
1380.00,2.2541
1379.00,2.2215
1378.00,2.1886
1377.00,2.1548
1376.00,2.1198
1375.00,2.0850
1374.00,2.0539
1373.00,2.0297
1372.00,2.0132
1371.00,2.0034
1370.00,1.9999
1369.00,2.0036
1368.00,2.0163
1367.00,2.0383
1366.00,2.0680
1365.00,2.1024
1364.00,2.1395
1363.00,2.1790
1362.00,2.2219
1361.00,2.2679
1360.00,2.3167
1359.00,2.3684
1358.00,2.4240
1357.00,2.4839
1356.00,2.5483
1355.00,2.6174
1354.00,2.6908
1353.00,2.7671
1352.00,2.8441
1351.00,2.9207
1350.00,2.9943
1349.00,3.0570
1348.00,3.0954
1347.00,3.1013
1346.00,3.0827
1345.00,3.0576
1344.00,3.0407
1343.00,3.0392
1342.00,3.0551
1341.00,3.0857
1340.00,3.1206
1339.00,3.1380
1338.00,3.1161
1337.00,3.0533
1336.00,2.9700
1335.00,2.8887
1334.00,2.8231
1333.00,2.7790
1332.00,2.7571
1331.00,2.7551
1330.00,2.7691
1329.00,2.7950
1328.00,2.8295
1327.00,2.8704
1326.00,2.9154
1325.00,2.9613
1324.00,3.0064
1323.00,3.0512
1322.00,3.0984
1321.00,3.1508
1320.00,3.2090
1319.00,3.2695
1318.00,3.3252
1317.00,3.3707
1316.00,3.4092
1315.00,3.4486
1314.00,3.4916
1313.00,3.5285
1312.00,3.5410
1311.00,3.5151
1310.00,3.4487
1309.00,3.3516
1308.00,3.2410
1307.00,3.1328
1306.00,3.0362
1305.00,2.9553
1304.00,2.8924
1303.00,2.8497
1302.00,2.8271
1301.00,2.8213
1300.00,2.8269
1299.00,2.8403
1298.00,2.8598
1297.00,2.8839
1296.00,2.9100
1295.00,2.9362
1294.00,2.9637
1293.00,2.9948
1292.00,3.0295
1291.00,3.0644
1290.00,3.0952
1289.00,3.1194
1288.00,3.1384
1287.00,3.1565
1286.00,3.1777
1285.00,3.2025
1284.00,3.2285
1283.00,3.2535
1282.00,3.2766
1281.00,3.2965
1280.00,3.3122
1279.00,3.3267
1278.00,3.3467
1277.00,3.3750
1276.00,3.4055
1275.00,3.4272
1274.00,3.4333
1273.00,3.4265
1272.00,3.4168
1271.00,3.4158
1270.00,3.4306
1269.00,3.4569
1268.00,3.4786
1267.00,3.4828
1266.00,3.4753
1265.00,3.4715
1264.00,3.4778
1263.00,3.4870
1262.00,3.4891
1261.00,3.4818
1260.00,3.4716
1259.00,3.4665
1258.00,3.4709
1257.00,3.4826
1256.00,3.4962
1255.00,3.5097
1254.00,3.5272
1253.00,3.5539
1252.00,3.5884
1251.00,3.6207
1250.00,3.6403
1249.00,3.6443
1248.00,3.6368
1247.00,3.6260
1246.00,3.6212
1245.00,3.6301
1244.00,3.6552
1243.00,3.6889
1242.00,3.7135
1241.00,3.7142
1240.00,3.6988
1239.00,3.6875
1238.00,3.6865
1237.00,3.6883
1236.00,3.6869
1235.00,3.6915
1234.00,3.7182
1233.00,3.7640
1232.00,3.8013
1231.00,3.8121
1230.00,3.8182
1229.00,3.8485
1228.00,3.8994
1227.00,3.9379
1226.00,3.9506
1225.00,3.9619
1224.00,3.9988
1223.00,4.0638
1222.00,4.1247
1221.00,4.1249
1220.00,4.0619
1219.00,3.9825
1218.00,3.9095
1217.00,3.8497
1216.00,3.8011
1215.00,3.7610
1214.00,3.7338
1213.00,3.7252
1212.00,3.7304
1211.00,3.7383
1210.00,3.7486
1209.00,3.7696
1208.00,3.7986
1207.00,3.8197
1206.00,3.8298
1205.00,3.8458
1204.00,3.8781
1203.00,3.9161
1202.00,3.9502
1201.00,3.9804
1200.00,3.9784
1199.00,3.9237
1198.00,3.8466
1197.00,3.7866
1196.00,3.7652
1195.00,3.7743
1194.00,3.7849
1193.00,3.7783
1192.00,3.7648
1191.00,3.7646
1190.00,3.7840
1189.00,3.8083
1188.00,3.8225
1187.00,3.8273
1186.00,3.8302
1185.00,3.8375
1184.00,3.8551
1183.00,3.8808
1182.00,3.8943
1181.00,3.8757
1180.00,3.8345
1179.00,3.8085
1178.00,3.8313
1177.00,3.9091
1176.00,4.0099
1175.00,4.0662
1174.00,4.0424
1173.00,3.9755
1172.00,3.9050
1171.00,3.8479
1170.00,3.8135
1169.00,3.8076
1168.00,3.8358
1167.00,3.8920
1166.00,3.9390
1165.00,3.9375
1164.00,3.9044
1163.00,3.8808
1162.00,3.8781
1161.00,3.8840
1160.00,3.8915
1159.00,3.9105
1158.00,3.9425
1157.00,3.9635
1156.00,3.9614
1155.00,3.9586
1154.00,3.9653
1153.00,3.9625
1152.00,3.9356
1151.00,3.9012
1150.00,3.8824
1149.00,3.8832
1148.00,3.8968
1147.00,3.9281
1146.00,3.9887
1145.00,4.0617
1144.00,4.0793
1143.00,4.0146
1142.00,3.9404
1141.00,3.9020
1140.00,3.8943
1139.00,3.8925
1138.00,3.8722
1137.00,3.8289
1136.00,3.7908
1135.00,3.7902
1134.00,3.8255
1133.00,3.8605
1132.00,3.8596
1131.00,3.8300
1130.00,3.7970
1129.00,3.7642
1128.00,3.7271
1127.00,3.6925
1126.00,3.6768
1125.00,3.6938
1124.00,3.7513
1123.00,3.8562
1122.00,4.0119
1121.00,4.2034
1120.00,4.3585
1119.00,4.3968
1118.00,4.3937
1117.00,4.3878
1116.00,4.3739
1115.00,4.3481
1114.00,4.2758
1113.00,4.1633
1112.00,4.0580
1111.00,3.9856
1110.00,3.9582
1109.00,3.9652
1108.00,3.9826
1107.00,4.0102
1106.00,4.0765
1105.00,4.1864
1104.00,4.2880
1103.00,4.3365
1102.00,4.3149
1101.00,4.2490
1100.00,4.1718
1099.00,4.0887
1098.00,4.0125
1097.00,3.9522
1096.00,3.9144
1095.00,3.9150
1094.00,3.9610
1093.00,4.0265
1092.00,4.0500
1091.00,3.9925
1090.00,3.8933
1089.00,3.8084
1088.00,3.7636
1087.00,3.7690
1086.00,3.8235
1085.00,3.9031
1084.00,3.9610
1083.00,3.9698
1082.00,3.9475
1081.00,3.9278
1080.00,3.9317
1079.00,3.9437
1078.00,3.9090
1077.00,3.8260
1076.00,3.7415
1075.00,3.6913
1074.00,3.6983
1073.00,3.7562
1072.00,3.8181
1071.00,3.8281
1070.00,3.7883
1069.00,3.7314
1068.00,3.6717
1067.00,3.6198
1066.00,3.5909
1065.00,3.5868
1064.00,3.5908
1063.00,3.5907
1062.00,3.5968
1061.00,3.6248
1060.00,3.6691
1059.00,3.6940
1058.00,3.6707
1057.00,3.6301
1056.00,3.6114
1055.00,3.6259
1054.00,3.6618
1053.00,3.6887
1052.00,3.6801
1051.00,3.6449
1050.00,3.6093
1049.00,3.5877
1048.00,3.5791
1047.00,3.5781
1046.00,3.5783
1045.00,3.5719
1044.00,3.5495
1043.00,3.5116
1042.00,3.4753
1041.00,3.4528
1040.00,3.4376
1039.00,3.4121
1038.00,3.3686
1037.00,3.3172
1036.00,3.2719
1035.00,3.2385
1034.00,3.2138
1033.00,3.1890
1032.00,3.1585
1031.00,3.1273
1030.00,3.1053
1029.00,3.0952
1028.00,3.0906
1027.00,3.0859
1026.00,3.0846
1025.00,3.0947
1024.00,3.1198
1023.00,3.1587
1022.00,3.2093
1021.00,3.2699
1020.00,3.3360
1019.00,3.3996
1018.00,3.4535
1017.00,3.4902
1016.00,3.4940
1015.00,3.4517
1014.00,3.3778
1013.00,3.3000
1012.00,3.2340
1011.00,3.1807
1010.00,3.1370
1009.00,3.1011
1008.00,3.0717
1007.00,3.0475
1006.00,3.0291
1005.00,3.0197
1004.00,3.0229
1003.00,3.0404
1002.00,3.0718
1001.00,3.1146
1000.00,3.1638
999.00,3.2138
998.00,3.2644
997.00,3.3216
996.00,3.3926
995.00,3.4767
994.00,3.5601
993.00,3.6159
992.00,3.6250
991.00,3.6057
990.00,3.5942
989.00,3.6065
988.00,3.6336
987.00,3.6550
986.00,3.6625
985.00,3.6698
984.00,3.6978
983.00,3.7609
982.00,3.8589
981.00,3.9732
980.00,4.0836
979.00,4.1805
978.00,4.2507
977.00,4.2919
976.00,4.2846
975.00,4.2493
974.00,4.2635
973.00,4.3571
972.00,4.4926
971.00,4.6002
970.00,4.6920
969.00,4.8711
968.00,5.3619
967.00,5.1788
966.00,4.9240
965.00,4.8026
964.00,4.6332
963.00,4.6608
962.00,5.0420
961.00,4.7509
960.00,4.3595
959.00,4.1623
958.00,4.1026
957.00,4.1773
956.00,4.4276
955.00,4.9800
954.00,4.7715
953.00,4.5185
952.00,4.4010
951.00,4.4775
950.00,4.8084
949.00,4.4083
948.00,4.1617
947.00,4.1336
946.00,4.2844
945.00,4.4670
944.00,4.4366
943.00,4.4564
942.00,4.4004
941.00,4.2710
940.00,4.2080
939.00,4.2205
938.00,4.2489
937.00,4.2306
936.00,4.1824
935.00,4.1526
934.00,4.1763
933.00,4.2236
932.00,4.2570
931.00,4.3113
930.00,4.3590
929.00,4.2779
928.00,4.1399
927.00,4.0647
926.00,4.0876
925.00,4.2066
924.00,4.3546
923.00,4.3653
922.00,4.2217
921.00,4.0995
920.00,4.0709
919.00,4.1341
918.00,4.2455
917.00,4.4024
916.00,4.9232
915.00,4.7923
914.00,4.4368
913.00,4.3207
912.00,4.2358
911.00,4.2348
910.00,4.3275
909.00,4.2726
908.00,4.1540
907.00,4.1699
906.00,4.3550
905.00,4.7997
904.00,4.8019
903.00,4.4688
902.00,4.3161
901.00,4.2583
900.00,4.2837
899.00,4.3616
898.00,4.4051
897.00,4.3479
896.00,4.1945
895.00,4.0634
894.00,4.0324
893.00,4.1141
892.00,4.2864
891.00,4.4370
890.00,4.4443
889.00,4.4390
888.00,4.5417
887.00,4.8867
886.00,5.0410
885.00,4.6311
884.00,4.6030
883.00,4.9723
882.00,4.7918
881.00,4.5215
880.00,4.4823
879.00,4.4761
878.00,4.3920
877.00,4.2778
876.00,4.1856
875.00,4.1295
874.00,4.1488
873.00,4.2954
872.00,4.6572
871.00,4.6333
870.00,4.2566
869.00,4.1483
868.00,4.1816
867.00,4.2461
866.00,4.2508
865.00,4.2276
864.00,4.2439
863.00,4.3453
862.00,4.5168
861.00,4.6741
860.00,4.8681
859.00,5.5180
858.00,5.1525
857.00,5.3284
856.00,4.7565
855.00,4.4267
854.00,4.3212
853.00,4.4124
852.00,4.7403
851.00,4.2963
850.00,4.0977
849.00,4.0754
848.00,4.1446
847.00,4.2370
846.00,4.3116
845.00,4.3829
844.00,4.5539
843.00,4.7554
842.00,4.3999
841.00,4.1809
840.00,4.0778
839.00,4.0769
838.00,4.1747
837.00,4.3904
836.00,4.9289
835.00,4.5205
834.00,4.1720
833.00,4.0470
832.00,4.0371
831.00,4.1036
830.00,4.1904
829.00,4.1618
828.00,4.1128
827.00,4.2040
826.00,4.5944
825.00,4.8307
824.00,4.2473
823.00,4.0073
822.00,3.8909
821.00,3.8692
820.00,3.9246
819.00,4.0104
818.00,4.0829
817.00,4.1669
816.00,4.3072
815.00,4.3567
814.00,4.2920
813.00,4.3743
812.00,4.6041
811.00,4.6171
810.00,4.4796
809.00,4.4779
808.00,4.6987
807.00,4.6535
806.00,4.5011
805.00,4.7149
804.00,4.6854
803.00,4.3891
802.00,4.2989
801.00,4.3120
800.00,4.4236
799.00,4.5149
798.00,4.4045
797.00,4.2907
796.00,4.2193
795.00,4.2701
794.00,4.4760
793.00,4.6712
792.00,4.4842
791.00,4.2530
790.00,4.1225
789.00,4.1239
788.00,4.2742
787.00,4.5128
786.00,4.4480
785.00,4.3486
784.00,4.3451
783.00,4.3363
782.00,4.3028
781.00,4.2894
780.00,4.2960
779.00,4.3408
778.00,4.4197
777.00,4.4844
776.00,4.5225
775.00,4.6270
774.00,4.7215
773.00,4.5881
772.00,4.4317
771.00,4.3405
770.00,4.3187
769.00,4.3335
768.00,4.3166
767.00,4.3008
766.00,4.3640
765.00,4.4720
764.00,4.5710
763.00,4.7224
762.00,4.6438
761.00,4.5081
760.00,4.4064
759.00,4.2624
758.00,4.1465
757.00,4.0700
756.00,4.0031
755.00,3.9678
754.00,3.9918
753.00,4.0599
752.00,4.0972
751.00,4.0787
750.00,4.0616
749.00,4.0968
748.00,4.2570
747.00,4.5675
746.00,4.4364
745.00,4.3177
744.00,4.2105
743.00,4.0881
742.00,4.0856
741.00,4.2276
740.00,4.4612
739.00,4.5520
738.00,4.5767
737.00,4.3418
736.00,4.1089
735.00,4.0275
734.00,4.0379
733.00,4.0500
732.00,4.0193
731.00,4.0064
730.00,4.0672
729.00,4.1731
728.00,4.2521
727.00,4.2118
726.00,4.0723
725.00,3.9894
724.00,3.9660
723.00,3.9766
722.00,4.0173
721.00,4.0700
720.00,4.1128
719.00,4.1713
718.00,4.2832
717.00,4.3439
716.00,4.2485
715.00,4.2086
714.00,4.2828
713.00,4.4135
712.00,4.4005
711.00,4.3044
710.00,4.2674
709.00,4.2887
708.00,4.3467
707.00,4.3541
706.00,4.2179
705.00,4.0457
704.00,3.9443
703.00,3.9280
702.00,3.9853
701.00,4.0891
700.00,4.1531
699.00,4.1038
698.00,4.0071
697.00,3.9427
696.00,3.9609
695.00,4.0898
694.00,4.3556
693.00,4.7437
692.00,4.5308
691.00,4.3415
690.00,4.3129
689.00,4.3842
688.00,4.4095
687.00,4.3525
686.00,4.3268
685.00,4.3270
684.00,4.2171
683.00,4.0700
682.00,4.0213
681.00,4.0830
680.00,4.1911
679.00,4.2141
678.00,4.1599
677.00,4.1296
676.00,4.1578
675.00,4.2731
674.00,4.5017
673.00,4.3751
672.00,4.1433
671.00,4.0435
670.00,3.9925
669.00,3.9395
668.00,3.8858
667.00,3.8561
666.00,3.8919
665.00,4.0354
664.00,4.2308
663.00,4.1258
662.00,4.0294
661.00,4.0576
660.00,4.0587
659.00,3.9511
658.00,3.8973
657.00,3.9620
656.00,4.0702
655.00,4.0339
654.00,3.8923
653.00,3.8012
652.00,3.7993
651.00,3.8716
650.00,3.9978
649.00,4.1344
648.00,4.1540
647.00,4.0859
646.00,4.0858
645.00,4.1721
644.00,4.2608
643.00,4.2946
642.00,4.2268
641.00,4.1098
640.00,4.0400
639.00,4.0302
638.00,4.0472
637.00,4.0396
636.00,4.0495
635.00,4.1447
634.00,4.3327
633.00,4.5649
632.00,4.7094
631.00,4.7213
630.00,4.5232
629.00,4.4238
628.00,4.4048
627.00,4.2776
626.00,4.0643
625.00,3.8857
624.00,3.7657
623.00,3.7140
622.00,3.7345
621.00,3.8058
620.00,3.8867
619.00,3.9576
618.00,3.9998
617.00,3.9849
616.00,3.9524
615.00,3.9859
614.00,4.1696
613.00,4.6241
612.00,4.6310
611.00,4.8797
610.00,4.5423
609.00,4.2306
608.00,4.2767
607.00,4.5137
606.00,4.4131
605.00,4.2031
604.00,4.1124
603.00,4.1922
602.00,4.6945
601.00,4.5140
600.00,4.2333
599.00,4.1244
598.00,4.0351
597.00,3.9585
596.00,3.8807
595.00,3.8367
594.00,3.8614
593.00,4.0473
592.00,4.5515
591.00,4.1889
590.00,4.0852
589.00,4.1856
588.00,4.4300
587.00,4.5882
586.00,4.2971
585.00,4.1196
584.00,4.0778
583.00,4.1047
582.00,4.0683
581.00,3.9102
580.00,3.7681
579.00,3.7445
578.00,3.8757
577.00,4.1832
576.00,4.4097
575.00,4.1045
574.00,3.8697
573.00,3.7547
572.00,3.7494
571.00,3.8558
570.00,4.0951
569.00,4.0656
568.00,3.9078
567.00,4.0100
566.00,5.1894
565.00,4.1927
564.00,4.0874
563.00,4.0890
562.00,3.9404
561.00,3.7476
560.00,3.6319
559.00,3.6063
558.00,3.6544
557.00,3.7376
556.00,3.8152
555.00,3.8700
554.00,3.8677
553.00,3.8364
552.00,3.8757
551.00,4.0558
550.00,4.5489
549.00,4.3915
548.00,4.0231
547.00,3.9279
546.00,3.9783
545.00,4.0446
544.00,4.0107
543.00,4.0699
542.00,4.2005
541.00,3.9819
540.00,3.8338
539.00,3.8468
538.00,3.9966
537.00,4.2082
536.00,4.2544
535.00,4.0425
534.00,3.8928
533.00,3.8492
532.00,3.8448
531.00,3.8533
530.00,3.8780
529.00,3.8024
528.00,3.6595
527.00,3.5655
526.00,3.5298
525.00,3.5605
524.00,3.6422
523.00,3.7127
522.00,3.6932
521.00,3.5955
520.00,3.5063
519.00,3.4762
518.00,3.5062
517.00,3.5784
516.00,3.6604
515.00,3.6940
514.00,3.6528
513.00,3.5471
512.00,3.4409
511.00,3.4156
510.00,3.5005
509.00,3.6759
508.00,3.8407
507.00,3.8263
506.00,3.6854
505.00,3.5834
504.00,3.5906
503.00,3.7244
502.00,3.8521
501.00,3.7866
500.00,3.7135
499.00,3.6432
498.00,3.5619
497.00,3.4677
496.00,3.3952
495.00,3.3998
494.00,3.5456
493.00,4.0246
492.00,3.9856
491.00,3.6555
490.00,3.5384
489.00,3.4770
488.00,3.4076
487.00,3.3061
486.00,3.2069
485.00,3.1597
484.00,3.1785
483.00,3.2549
482.00,3.3686
481.00,3.4733
480.00,3.5717
479.00,3.7471
478.00,3.9357
477.00,3.9729
476.00,3.9632
475.00,3.7984
474.00,3.6130
473.00,3.5104
472.00,3.4977
471.00,3.4262
470.00,3.3194
469.00,3.2800
468.00,3.2532
467.00,3.1851
466.00,3.1301
465.00,3.1621
464.00,3.3060
463.00,3.4928
462.00,3.4992
461.00,3.4102
460.00,3.3522
459.00,3.3351
458.00,3.3459
457.00,3.3790
456.00,3.4317
455.00,3.4616
454.00,3.4258
453.00,3.3506
452.00,3.2897
451.00,3.2847
450.00,3.3714
449.00,3.5673
448.00,3.7926
447.00,4.0291
446.00,4.3142
445.00,3.8540
444.00,3.7400
443.00,3.6801
442.00,3.6692
441.00,3.7097
440.00,3.4203
439.00,3.1705
438.00,3.0485
437.00,3.0323
436.00,3.1293
435.00,3.3733
434.00,3.8440
433.00,4.8742
432.00,4.1983
431.00,3.9336
430.00,4.0254
429.00,3.9334
428.00,3.5737
427.00,3.3623
426.00,3.2302
425.00,3.1885
424.00,3.2374
423.00,3.3264
422.00,3.5159
421.00,3.5455
420.00,3.2931
419.00,3.3063
418.00,3.2559
417.00,3.0292
416.00,2.9200
415.00,2.9378
414.00,3.0587
413.00,3.0666
412.00,2.9354
411.00,2.8806
410.00,2.9367
409.00,3.1181
408.00,3.3838
407.00,3.4092
406.00,3.2378
405.00,3.2464
404.00,3.3242
403.00,3.0059
402.00,2.8458
401.00,2.8142
400.00,2.8192
