Created as New Dataset,Sample 167 By Administrator Date Friday, November 26 2021
cm-1,A
7000.00,1.1687
6999.00,1.1704
6998.00,1.1725
6997.00,1.1750
6996.00,1.1776
6995.00,1.1796
6994.00,1.1810
6993.00,1.1822
6992.00,1.1836
6991.00,1.1853
6990.00,1.1871
6989.00,1.1887
6988.00,1.1903
6987.00,1.1918
6986.00,1.1930
6985.00,1.1941
6984.00,1.1954
6983.00,1.1968
6982.00,1.1980
6981.00,1.1989
6980.00,1.1997
6979.00,1.2007
6978.00,1.2019
6977.00,1.2030
6976.00,1.2038
6975.00,1.2043
6974.00,1.2046
6973.00,1.2051
6972.00,1.2059
6971.00,1.2067
6970.00,1.2072
6969.00,1.2075
6968.00,1.2076
6967.00,1.2081
6966.00,1.2086
6965.00,1.2090
6964.00,1.2090
6963.00,1.2087
6962.00,1.2083
6961.00,1.2079
6960.00,1.2079
6959.00,1.2081
6958.00,1.2084
6957.00,1.2084
6956.00,1.2082
6955.00,1.2080
6954.00,1.2076
6953.00,1.2069
6952.00,1.2059
6951.00,1.2049
6950.00,1.2040
6949.00,1.2032
6948.00,1.2025
6947.00,1.2020
6946.00,1.2017
6945.00,1.2014
6944.00,1.2007
6943.00,1.1998
6942.00,1.1987
6941.00,1.1977
6940.00,1.1965
6939.00,1.1950
6938.00,1.1932
6937.00,1.1916
6936.00,1.1901
6935.00,1.1888
6934.00,1.1874
6933.00,1.1860
6932.00,1.1845
6931.00,1.1831
6930.00,1.1815
6929.00,1.1795
6928.00,1.1772
6927.00,1.1749
6926.00,1.1727
6925.00,1.1706
6924.00,1.1687
6923.00,1.1667
6922.00,1.1648
6921.00,1.1629
6920.00,1.1612
6919.00,1.1593
6918.00,1.1573
6917.00,1.1549
6916.00,1.1523
6915.00,1.1494
6914.00,1.1464
6913.00,1.1435
6912.00,1.1407
6911.00,1.1380
6910.00,1.1354
6909.00,1.1328
6908.00,1.1303
6907.00,1.1276
6906.00,1.1245
6905.00,1.1212
6904.00,1.1178
6903.00,1.1145
6902.00,1.1111
6901.00,1.1077
6900.00,1.1044
6899.00,1.1014
6898.00,1.0984
6897.00,1.0954
6896.00,1.0922
6895.00,1.0888
6894.00,1.0851
6893.00,1.0812
6892.00,1.0774
6891.00,1.0738
6890.00,1.0700
6889.00,1.0660
6888.00,1.0618
6887.00,1.0577
6886.00,1.0536
6885.00,1.0495
6884.00,1.0452
6883.00,1.0410
6882.00,1.0368
6881.00,1.0329
6880.00,1.0290
6879.00,1.0251
6878.00,1.0210
6877.00,1.0164
6876.00,1.0115
6875.00,1.0067
6874.00,1.0020
6873.00,0.9975
6872.00,0.9931
6871.00,0.9885
6870.00,0.9841
6869.00,0.9796
6868.00,0.9750
6867.00,0.9704
6866.00,0.9656
6865.00,0.9610
6864.00,0.9564
6863.00,0.9518
6862.00,0.9471
6861.00,0.9422
6860.00,0.9373
6859.00,0.9322
6858.00,0.9271
6857.00,0.9221
6856.00,0.9172
6855.00,0.9125
6854.00,0.9079
6853.00,0.9033
6852.00,0.8986
6851.00,0.8938
6850.00,0.8890
6849.00,0.8845
6848.00,0.8800
6847.00,0.8755
6846.00,0.8708
6845.00,0.8661
6844.00,0.8614
6843.00,0.8567
6842.00,0.8520
6841.00,0.8474
6840.00,0.8428
6839.00,0.8382
6838.00,0.8336
6837.00,0.8292
6836.00,0.8248
6835.00,0.8204
6834.00,0.8161
6833.00,0.8121
6832.00,0.8082
6831.00,0.8042
6830.00,0.8002
6829.00,0.7961
6828.00,0.7921
6827.00,0.7882
6826.00,0.7843
6825.00,0.7805
6824.00,0.7767
6823.00,0.7730
6822.00,0.7693
6821.00,0.7657
6820.00,0.7621
6819.00,0.7586
6818.00,0.7553
6817.00,0.7521
6816.00,0.7491
6815.00,0.7461
6814.00,0.7431
6813.00,0.7403
6812.00,0.7374
6811.00,0.7345
6810.00,0.7316
6809.00,0.7289
6808.00,0.7264
6807.00,0.7240
6806.00,0.7218
6805.00,0.7198
6804.00,0.7178
6803.00,0.7160
6802.00,0.7142
6801.00,0.7125
6800.00,0.7110
6799.00,0.7096
6798.00,0.7083
6797.00,0.7074
6796.00,0.7066
6795.00,0.7059
6794.00,0.7053
6793.00,0.7048
6792.00,0.7044
6791.00,0.7043
6790.00,0.7043
6789.00,0.7044
6788.00,0.7046
6787.00,0.7049
6786.00,0.7055
6785.00,0.7064
6784.00,0.7074
6783.00,0.7084
6782.00,0.7096
6781.00,0.7108
6780.00,0.7122
6779.00,0.7136
6778.00,0.7151
6777.00,0.7169
6776.00,0.7189
6775.00,0.7212
6774.00,0.7236
6773.00,0.7262
6772.00,0.7288
6771.00,0.7313
6770.00,0.7338
6769.00,0.7364
6768.00,0.7392
6767.00,0.7420
6766.00,0.7450
6765.00,0.7482
6764.00,0.7514
6763.00,0.7547
6762.00,0.7580
6761.00,0.7613
6760.00,0.7648
6759.00,0.7684
6758.00,0.7721
6757.00,0.7759
6756.00,0.7798
6755.00,0.7836
6754.00,0.7876
6753.00,0.7916
6752.00,0.7956
6751.00,0.7997
6750.00,0.8038
6749.00,0.8081
6748.00,0.8125
6747.00,0.8171
6746.00,0.8215
6745.00,0.8260
6744.00,0.8306
6743.00,0.8353
6742.00,0.8401
6741.00,0.8449
6740.00,0.8496
6739.00,0.8542
6738.00,0.8587
6737.00,0.8634
6736.00,0.8681
6735.00,0.8729
6734.00,0.8777
6733.00,0.8825
6732.00,0.8875
6731.00,0.8926
6730.00,0.8976
6729.00,0.9024
6728.00,0.9071
6727.00,0.9119
6726.00,0.9167
6725.00,0.9217
6724.00,0.9267
6723.00,0.9316
6722.00,0.9367
6721.00,0.9418
6720.00,0.9468
6719.00,0.9516
6718.00,0.9561
6717.00,0.9607
6716.00,0.9652
6715.00,0.9697
6714.00,0.9743
6713.00,0.9790
6712.00,0.9838
6711.00,0.9887
6710.00,0.9934
6709.00,0.9982
6708.00,1.0027
6707.00,1.0072
6706.00,1.0116
6705.00,1.0162
6704.00,1.0209
6703.00,1.0257
6702.00,1.0305
6701.00,1.0351
6700.00,1.0397
6699.00,1.0441
6698.00,1.0484
6697.00,1.0526
6696.00,1.0569
6695.00,1.0611
6694.00,1.0653
6693.00,1.0695
6692.00,1.0735
6691.00,1.0773
6690.00,1.0810
6689.00,1.0848
6688.00,1.0887
6687.00,1.0927
6686.00,1.0967
6685.00,1.1007
6684.00,1.1047
6683.00,1.1087
6682.00,1.1126
6681.00,1.1165
6680.00,1.1202
6679.00,1.1237
6678.00,1.1273
6677.00,1.1307
6676.00,1.1340
6675.00,1.1371
6674.00,1.1402
6673.00,1.1435
6672.00,1.1470
6671.00,1.1506
6670.00,1.1541
6669.00,1.1575
6668.00,1.1607
6667.00,1.1638
6666.00,1.1667
6665.00,1.1696
6664.00,1.1724
6663.00,1.1750
6662.00,1.1775
6661.00,1.1800
6660.00,1.1825
6659.00,1.1850
6658.00,1.1877
6657.00,1.1904
6656.00,1.1932
6655.00,1.1960
6654.00,1.1986
6653.00,1.2008
6652.00,1.2026
6651.00,1.2041
6650.00,1.2057
6649.00,1.2077
6648.00,1.2100
6647.00,1.2121
6646.00,1.2141
6645.00,1.2159
6644.00,1.2177
6643.00,1.2195
6642.00,1.2210
6641.00,1.2226
6640.00,1.2245
6639.00,1.2264
6638.00,1.2280
6637.00,1.2289
6636.00,1.2296
6635.00,1.2305
6634.00,1.2316
6633.00,1.2327
6632.00,1.2339
6631.00,1.2352
6630.00,1.2367
6629.00,1.2383
6628.00,1.2395
6627.00,1.2404
6626.00,1.2411
6625.00,1.2419
6624.00,1.2425
6623.00,1.2429
6622.00,1.2431
6621.00,1.2433
6620.00,1.2437
6619.00,1.2442
6618.00,1.2444
6617.00,1.2445
6616.00,1.2447
6615.00,1.2452
6614.00,1.2457
6613.00,1.2463
6612.00,1.2468
6611.00,1.2471
6610.00,1.2469
6609.00,1.2464
6608.00,1.2457
6607.00,1.2451
6606.00,1.2448
6605.00,1.2446
6604.00,1.2446
6603.00,1.2448
6602.00,1.2447
6601.00,1.2441
6600.00,1.2428
6599.00,1.2413
6598.00,1.2399
6597.00,1.2388
6596.00,1.2377
6595.00,1.2366
6594.00,1.2357
6593.00,1.2348
6592.00,1.2340
6591.00,1.2331
6590.00,1.2320
6589.00,1.2308
6588.00,1.2296
6587.00,1.2285
6586.00,1.2276
6585.00,1.2267
6584.00,1.2256
6583.00,1.2240
6582.00,1.2220
6581.00,1.2201
6580.00,1.2182
6579.00,1.2164
6578.00,1.2145
6577.00,1.2126
6576.00,1.2107
6575.00,1.2089
6574.00,1.2067
6573.00,1.2041
6572.00,1.2013
6571.00,1.1985
6570.00,1.1961
6569.00,1.1937
6568.00,1.1912
6567.00,1.1887
6566.00,1.1861
6565.00,1.1835
6564.00,1.1809
6563.00,1.1783
6562.00,1.1756
6561.00,1.1728
6560.00,1.1698
6559.00,1.1668
6558.00,1.1637
6557.00,1.1606
6556.00,1.1572
6555.00,1.1539
6554.00,1.1505
6553.00,1.1472
6552.00,1.1437
6551.00,1.1403
6550.00,1.1369
6549.00,1.1334
6548.00,1.1298
6547.00,1.1259
6546.00,1.1219
6545.00,1.1179
6544.00,1.1137
6543.00,1.1094
6542.00,1.1055
6541.00,1.1018
6540.00,1.0982
6539.00,1.0943
6538.00,1.0901
6537.00,1.0858
6536.00,1.0816
6535.00,1.0774
6534.00,1.0730
6533.00,1.0686
6532.00,1.0643
6531.00,1.0602
6530.00,1.0561
6529.00,1.0518
6528.00,1.0471
6527.00,1.0421
6526.00,1.0369
6525.00,1.0318
6524.00,1.0267
6523.00,1.0216
6522.00,1.0164
6521.00,1.0114
6520.00,1.0064
6519.00,1.0015
6518.00,0.9965
6517.00,0.9913
6516.00,0.9860
6515.00,0.9807
6514.00,0.9753
6513.00,0.9699
6512.00,0.9644
6511.00,0.9590
6510.00,0.9536
6509.00,0.9483
6508.00,0.9430
6507.00,0.9378
6506.00,0.9325
6505.00,0.9272
6504.00,0.9217
6503.00,0.9161
6502.00,0.9106
6501.00,0.9052
6500.00,0.9000
6499.00,0.8949
6498.00,0.8899
6497.00,0.8847
6496.00,0.8795
6495.00,0.8742
6494.00,0.8688
6493.00,0.8633
6492.00,0.8579
6491.00,0.8525
6490.00,0.8472
6489.00,0.8420
6488.00,0.8369
6487.00,0.8319
6486.00,0.8271
6485.00,0.8223
6484.00,0.8176
6483.00,0.8130
6482.00,0.8084
6481.00,0.8039
6480.00,0.7995
6479.00,0.7951
6478.00,0.7909
6477.00,0.7868
6476.00,0.7828
6475.00,0.7788
6474.00,0.7749
6473.00,0.7712
6472.00,0.7675
6471.00,0.7640
6470.00,0.7607
6469.00,0.7575
6468.00,0.7543
6467.00,0.7512
6466.00,0.7481
6465.00,0.7452
6464.00,0.7426
6463.00,0.7402
6462.00,0.7380
6461.00,0.7359
6460.00,0.7339
6459.00,0.7321
6458.00,0.7304
6457.00,0.7288
6456.00,0.7274
6455.00,0.7261
6454.00,0.7251
6453.00,0.7242
6452.00,0.7236
6451.00,0.7231
6450.00,0.7228
6449.00,0.7227
6448.00,0.7228
6447.00,0.7230
6446.00,0.7232
6445.00,0.7236
6444.00,0.7240
6443.00,0.7246
6442.00,0.7255
6441.00,0.7266
6440.00,0.7279
6439.00,0.7293
6438.00,0.7308
6437.00,0.7325
6436.00,0.7343
6435.00,0.7362
6434.00,0.7383
6433.00,0.7406
6432.00,0.7430
6431.00,0.7456
6430.00,0.7483
6429.00,0.7513
6428.00,0.7543
6427.00,0.7573
6426.00,0.7604
6425.00,0.7635
6424.00,0.7668
6423.00,0.7702
6422.00,0.7737
6421.00,0.7774
6420.00,0.7812
6419.00,0.7852
6418.00,0.7891
6417.00,0.7932
6416.00,0.7973
6415.00,0.8013
6414.00,0.8054
6413.00,0.8096
6412.00,0.8140
6411.00,0.8185
6410.00,0.8231
6409.00,0.8277
6408.00,0.8323
6407.00,0.8370
6406.00,0.8417
6405.00,0.8465
6404.00,0.8513
6403.00,0.8561
6402.00,0.8611
6401.00,0.8661
6400.00,0.8712
6399.00,0.8762
6398.00,0.8811
6397.00,0.8861
6396.00,0.8911
6395.00,0.8960
6394.00,0.9012
6393.00,0.9065
6392.00,0.9118
6391.00,0.9171
6390.00,0.9223
6389.00,0.9276
6388.00,0.9328
6387.00,0.9378
6386.00,0.9426
6385.00,0.9474
6384.00,0.9523
6383.00,0.9573
6382.00,0.9623
6381.00,0.9674
6380.00,0.9724
6379.00,0.9775
6378.00,0.9826
6377.00,0.9878
6376.00,0.9929
6375.00,0.9980
6374.00,1.0030
6373.00,1.0083
6372.00,1.0135
6371.00,1.0187
6370.00,1.0236
6369.00,1.0285
6368.00,1.0334
6367.00,1.0382
6366.00,1.0428
6365.00,1.0475
6364.00,1.0523
6363.00,1.0571
6362.00,1.0617
6361.00,1.0663
6360.00,1.0707
6359.00,1.0752
6358.00,1.0797
6357.00,1.0841
6356.00,1.0886
6355.00,1.0933
6354.00,1.0979
6353.00,1.1024
6352.00,1.1066
6351.00,1.1106
6350.00,1.1145
6349.00,1.1183
6348.00,1.1219
6347.00,1.1256
6346.00,1.1294
6345.00,1.1336
6344.00,1.1377
6343.00,1.1417
6342.00,1.1455
6341.00,1.1493
6340.00,1.1530
6339.00,1.1564
6338.00,1.1597
6337.00,1.1628
6336.00,1.1660
6335.00,1.1692
6334.00,1.1724
6333.00,1.1756
6332.00,1.1789
6331.00,1.1822
6330.00,1.1853
6329.00,1.1882
6328.00,1.1910
6327.00,1.1935
6326.00,1.1962
6325.00,1.1989
6324.00,1.2018
6323.00,1.2046
6322.00,1.2072
6321.00,1.2101
6320.00,1.2130
6319.00,1.2159
6318.00,1.2183
6317.00,1.2205
6316.00,1.2226
6315.00,1.2246
6314.00,1.2264
6313.00,1.2282
6312.00,1.2300
6311.00,1.2322
6310.00,1.2346
6309.00,1.2368
6308.00,1.2387
6307.00,1.2403
6306.00,1.2416
6305.00,1.2429
6304.00,1.2441
6303.00,1.2453
6302.00,1.2464
6301.00,1.2473
6300.00,1.2483
6299.00,1.2493
6298.00,1.2504
6297.00,1.2516
6296.00,1.2528
6295.00,1.2539
6294.00,1.2548
6293.00,1.2557
6292.00,1.2566
6291.00,1.2572
6290.00,1.2577
6289.00,1.2579
6288.00,1.2582
6287.00,1.2587
6286.00,1.2591
6285.00,1.2596
6284.00,1.2600
6283.00,1.2604
6282.00,1.2607
6281.00,1.2611
6280.00,1.2612
6279.00,1.2610
6278.00,1.2607
6277.00,1.2606
6276.00,1.2606
6275.00,1.2606
6274.00,1.2605
6273.00,1.2602
6272.00,1.2597
6271.00,1.2591
6270.00,1.2584
6269.00,1.2578
6268.00,1.2573
6267.00,1.2568
6266.00,1.2562
6265.00,1.2557
6264.00,1.2553
6263.00,1.2546
6262.00,1.2535
6261.00,1.2522
6260.00,1.2510
6259.00,1.2499
6258.00,1.2486
6257.00,1.2470
6256.00,1.2452
6255.00,1.2434
6254.00,1.2419
6253.00,1.2405
6252.00,1.2391
6251.00,1.2376
6250.00,1.2360
6249.00,1.2342
6248.00,1.2322
6247.00,1.2301
6246.00,1.2279
6245.00,1.2259
6244.00,1.2242
6243.00,1.2224
6242.00,1.2203
6241.00,1.2179
6240.00,1.2151
6239.00,1.2121
6238.00,1.2092
6237.00,1.2063
6236.00,1.2036
6235.00,1.2010
6234.00,1.1985
6233.00,1.1957
6232.00,1.1926
6231.00,1.1895
6230.00,1.1864
6229.00,1.1833
6228.00,1.1804
6227.00,1.1774
6226.00,1.1745
6225.00,1.1715
6224.00,1.1685
6223.00,1.1652
6222.00,1.1616
6221.00,1.1577
6220.00,1.1536
6219.00,1.1494
6218.00,1.1451
6217.00,1.1409
6216.00,1.1368
6215.00,1.1330
6214.00,1.1294
6213.00,1.1257
6212.00,1.1218
6211.00,1.1178
6210.00,1.1137
6209.00,1.1094
6208.00,1.1051
6207.00,1.1006
6206.00,1.0960
6205.00,1.0915
6204.00,1.0870
6203.00,1.0825
6202.00,1.0781
6201.00,1.0736
6200.00,1.0692
6199.00,1.0646
6198.00,1.0599
6197.00,1.0550
6196.00,1.0502
6195.00,1.0453
6194.00,1.0406
6193.00,1.0357
6192.00,1.0308
6191.00,1.0260
6190.00,1.0210
6189.00,1.0161
6188.00,1.0111
6187.00,1.0060
6186.00,1.0010
6185.00,0.9961
6184.00,0.9912
6183.00,0.9863
6182.00,0.9814
6181.00,0.9765
6180.00,0.9715
6179.00,0.9665
6178.00,0.9615
6177.00,0.9565
6176.00,0.9516
6175.00,0.9468
6174.00,0.9418
6173.00,0.9369
6172.00,0.9320
6171.00,0.9270
6170.00,0.9221
6169.00,0.9173
6168.00,0.9126
6167.00,0.9079
6166.00,0.9032
6165.00,0.8985
6164.00,0.8937
6163.00,0.8889
6162.00,0.8841
6161.00,0.8795
6160.00,0.8748
6159.00,0.8702
6158.00,0.8655
6157.00,0.8607
6156.00,0.8559
6155.00,0.8510
6154.00,0.8462
6153.00,0.8414
6152.00,0.8367
6151.00,0.8321
6150.00,0.8275
6149.00,0.8229
6148.00,0.8182
6147.00,0.8134
6146.00,0.8088
6145.00,0.8042
6144.00,0.7995
6143.00,0.7949
6142.00,0.7904
6141.00,0.7860
6140.00,0.7817
6139.00,0.7774
6138.00,0.7732
6137.00,0.7691
6136.00,0.7649
6135.00,0.7608
6134.00,0.7567
6133.00,0.7528
6132.00,0.7491
6131.00,0.7455
6130.00,0.7421
6129.00,0.7389
6128.00,0.7358
6127.00,0.7327
6126.00,0.7297
6125.00,0.7269
6124.00,0.7242
6123.00,0.7216
6122.00,0.7191
6121.00,0.7168
6120.00,0.7147
6119.00,0.7128
6118.00,0.7110
6117.00,0.7094
6116.00,0.7081
6115.00,0.7069
6114.00,0.7058
6113.00,0.7049
6112.00,0.7041
6111.00,0.7035
6110.00,0.7031
6109.00,0.7029
6108.00,0.7030
6107.00,0.7033
6106.00,0.7038
6105.00,0.7044
6104.00,0.7052
6103.00,0.7061
6102.00,0.7072
6101.00,0.7084
6100.00,0.7098
6099.00,0.7113
6098.00,0.7130
6097.00,0.7149
6096.00,0.7169
6095.00,0.7191
6094.00,0.7215
6093.00,0.7241
6092.00,0.7267
6091.00,0.7295
6090.00,0.7325
6089.00,0.7356
6088.00,0.7389
6087.00,0.7423
6086.00,0.7458
6085.00,0.7495
6084.00,0.7533
6083.00,0.7571
6082.00,0.7610
6081.00,0.7651
6080.00,0.7694
6079.00,0.7738
6078.00,0.7783
6077.00,0.7828
6076.00,0.7874
6075.00,0.7921
6074.00,0.7968
6073.00,0.8015
6072.00,0.8063
6071.00,0.8112
6070.00,0.8163
6069.00,0.8214
6068.00,0.8265
6067.00,0.8317
6066.00,0.8370
6065.00,0.8423
6064.00,0.8477
6063.00,0.8530
6062.00,0.8584
6061.00,0.8639
6060.00,0.8694
6059.00,0.8749
6058.00,0.8804
6057.00,0.8859
6056.00,0.8915
6055.00,0.8972
6054.00,0.9028
6053.00,0.9086
6052.00,0.9143
6051.00,0.9202
6050.00,0.9261
6049.00,0.9319
6048.00,0.9376
6047.00,0.9430
6046.00,0.9485
6045.00,0.9540
6044.00,0.9596
6043.00,0.9652
6042.00,0.9709
6041.00,0.9766
6040.00,0.9824
6039.00,0.9880
6038.00,0.9936
6037.00,0.9992
6036.00,1.0048
6035.00,1.0106
6034.00,1.0163
6033.00,1.0220
6032.00,1.0276
6031.00,1.0332
6030.00,1.0387
6029.00,1.0441
6028.00,1.0494
6027.00,1.0545
6026.00,1.0597
6025.00,1.0648
6024.00,1.0700
6023.00,1.0750
6022.00,1.0801
6021.00,1.0850
6020.00,1.0899
6019.00,1.0946
6018.00,1.0994
6017.00,1.1042
6016.00,1.1092
6015.00,1.1142
6014.00,1.1192
6013.00,1.1244
6012.00,1.1294
6011.00,1.1342
6010.00,1.1386
6009.00,1.1427
6008.00,1.1469
6007.00,1.1510
6006.00,1.1552
6005.00,1.1595
6004.00,1.1637
6003.00,1.1678
6002.00,1.1718
6001.00,1.1757
6000.00,1.1794
5999.00,1.1833
5998.00,1.1873
5997.00,1.1913
5996.00,1.1951
5995.00,1.1989
5994.00,1.2026
5993.00,1.2063
5992.00,1.2100
5991.00,1.2135
5990.00,1.2168
5989.00,1.2200
5988.00,1.2232
5987.00,1.2263
5986.00,1.2293
5985.00,1.2324
5984.00,1.2357
5983.00,1.2390
5982.00,1.2423
5981.00,1.2453
5980.00,1.2481
5979.00,1.2508
5978.00,1.2534
5977.00,1.2558
5976.00,1.2582
5975.00,1.2608
5974.00,1.2636
5973.00,1.2664
5972.00,1.2690
5971.00,1.2714
5970.00,1.2737
5969.00,1.2760
5968.00,1.2780
5967.00,1.2798
5966.00,1.2818
5965.00,1.2839
5964.00,1.2861
5963.00,1.2882
5962.00,1.2902
5961.00,1.2923
5960.00,1.2945
5959.00,1.2964
5958.00,1.2979
5957.00,1.2991
5956.00,1.3001
5955.00,1.3010
5954.00,1.3020
5953.00,1.3032
5952.00,1.3046
5951.00,1.3061
5950.00,1.3075
5949.00,1.3089
5948.00,1.3102
5947.00,1.3112
5946.00,1.3118
5945.00,1.3125
5944.00,1.3133
5943.00,1.3142
5942.00,1.3149
5941.00,1.3156
5940.00,1.3162
5939.00,1.3166
5938.00,1.3167
5937.00,1.3165
5936.00,1.3163
5935.00,1.3163
5934.00,1.3166
5933.00,1.3171
5932.00,1.3176
5931.00,1.3178
5930.00,1.3179
5929.00,1.3177
5928.00,1.3176
5927.00,1.3176
5926.00,1.3175
5925.00,1.3174
5924.00,1.3170
5923.00,1.3165
5922.00,1.3160
5921.00,1.3153
5920.00,1.3146
5919.00,1.3138
5918.00,1.3130
5917.00,1.3122
5916.00,1.3113
5915.00,1.3104
5914.00,1.3094
5913.00,1.3083
5912.00,1.3072
5911.00,1.3059
5910.00,1.3046
5909.00,1.3034
5908.00,1.3023
5907.00,1.3011
5906.00,1.2997
5905.00,1.2980
5904.00,1.2963
5903.00,1.2944
5902.00,1.2925
5901.00,1.2904
5900.00,1.2884
5899.00,1.2865
5898.00,1.2844
5897.00,1.2822
5896.00,1.2800
5895.00,1.2779
5894.00,1.2758
5893.00,1.2737
5892.00,1.2714
5891.00,1.2690
5890.00,1.2665
5889.00,1.2639
5888.00,1.2613
5887.00,1.2586
5886.00,1.2557
5885.00,1.2528
5884.00,1.2499
5883.00,1.2468
5882.00,1.2435
5881.00,1.2401
5880.00,1.2366
5879.00,1.2332
5878.00,1.2299
5877.00,1.2269
5876.00,1.2239
5875.00,1.2209
5874.00,1.2177
5873.00,1.2143
5872.00,1.2107
5871.00,1.2070
5870.00,1.2032
5869.00,1.1994
5868.00,1.1957
5867.00,1.1918
5866.00,1.1878
5865.00,1.1836
5864.00,1.1793
5863.00,1.1751
5862.00,1.1710
5861.00,1.1667
5860.00,1.1622
5859.00,1.1576
5858.00,1.1530
5857.00,1.1484
5856.00,1.1438
5855.00,1.1392
5854.00,1.1346
5853.00,1.1298
5852.00,1.1248
5851.00,1.1195
5850.00,1.1141
5849.00,1.1088
5848.00,1.1035
5847.00,1.0984
5846.00,1.0932
5845.00,1.0879
5844.00,1.0824
5843.00,1.0767
5842.00,1.0710
5841.00,1.0654
5840.00,1.0598
5839.00,1.0543
5838.00,1.0488
5837.00,1.0431
5836.00,1.0372
5835.00,1.0312
5834.00,1.0251
5833.00,1.0190
5832.00,1.0129
5831.00,1.0069
5830.00,1.0009
5829.00,0.9949
5828.00,0.9890
5827.00,0.9829
5826.00,0.9768
5825.00,0.9706
5824.00,0.9644
5823.00,0.9582
5822.00,0.9521
5821.00,0.9459
5820.00,0.9398
5819.00,0.9337
5818.00,0.9276
5817.00,0.9214
5816.00,0.9151
5815.00,0.9087
5814.00,0.9024
5813.00,0.8962
5812.00,0.8899
5811.00,0.8838
5810.00,0.8777
5809.00,0.8716
5808.00,0.8655
5807.00,0.8593
5806.00,0.8532
5805.00,0.8472
5804.00,0.8413
5803.00,0.8356
5802.00,0.8300
5801.00,0.8244
5800.00,0.8188
5799.00,0.8132
5798.00,0.8076
5797.00,0.8022
5796.00,0.7968
5795.00,0.7916
5794.00,0.7865
5793.00,0.7815
5792.00,0.7768
5791.00,0.7722
5790.00,0.7677
5789.00,0.7633
5788.00,0.7592
5787.00,0.7551
5786.00,0.7511
5785.00,0.7472
5784.00,0.7436
5783.00,0.7401
5782.00,0.7368
5781.00,0.7338
5780.00,0.7310
5779.00,0.7284
5778.00,0.7259
5777.00,0.7237
5776.00,0.7217
5775.00,0.7199
5774.00,0.7183
5773.00,0.7170
5772.00,0.7158
5771.00,0.7148
5770.00,0.7140
5769.00,0.7134
5768.00,0.7130
5767.00,0.7129
5766.00,0.7130
5765.00,0.7133
5764.00,0.7139
5763.00,0.7146
5762.00,0.7156
5761.00,0.7168
5760.00,0.7183
5759.00,0.7199
5758.00,0.7217
5757.00,0.7237
5756.00,0.7259
5755.00,0.7282
5754.00,0.7307
5753.00,0.7334
5752.00,0.7363
5751.00,0.7392
5750.00,0.7423
5749.00,0.7456
5748.00,0.7490
5747.00,0.7527
5746.00,0.7566
5745.00,0.7606
5744.00,0.7648
5743.00,0.7690
5742.00,0.7733
5741.00,0.7776
5740.00,0.7820
5739.00,0.7865
5738.00,0.7912
5737.00,0.7960
5736.00,0.8009
5735.00,0.8059
5734.00,0.8110
5733.00,0.8162
5732.00,0.8213
5731.00,0.8265
5730.00,0.8317
5729.00,0.8370
5728.00,0.8425
5727.00,0.8480
5726.00,0.8535
5725.00,0.8590
5724.00,0.8647
5723.00,0.8704
5722.00,0.8762
5721.00,0.8821
5720.00,0.8881
5719.00,0.8939
5718.00,0.8996
5717.00,0.9053
5716.00,0.9109
5715.00,0.9166
5714.00,0.9225
5713.00,0.9285
5712.00,0.9346
5711.00,0.9407
5710.00,0.9467
5709.00,0.9528
5708.00,0.9587
5707.00,0.9646
5706.00,0.9704
5705.00,0.9762
5704.00,0.9820
5703.00,0.9877
5702.00,0.9935
5701.00,0.9995
5700.00,1.0057
5699.00,1.0118
5698.00,1.0179
5697.00,1.0238
5696.00,1.0297
5695.00,1.0355
5694.00,1.0412
5693.00,1.0469
5692.00,1.0526
5691.00,1.0584
5690.00,1.0641
5689.00,1.0698
5688.00,1.0756
5687.00,1.0812
5686.00,1.0868
5685.00,1.0922
5684.00,1.0975
5683.00,1.1030
5682.00,1.1084
5681.00,1.1138
5680.00,1.1193
5679.00,1.1248
5678.00,1.1301
5677.00,1.1354
5676.00,1.1405
5675.00,1.1455
5674.00,1.1505
5673.00,1.1553
5672.00,1.1601
5671.00,1.1648
5670.00,1.1696
5669.00,1.1745
5668.00,1.1793
5667.00,1.1841
5666.00,1.1887
5665.00,1.1931
5664.00,1.1974
5663.00,1.2018
5662.00,1.2061
5661.00,1.2104
5660.00,1.2146
5659.00,1.2187
5658.00,1.2228
5657.00,1.2268
5656.00,1.2307
5655.00,1.2346
5654.00,1.2385
5653.00,1.2425
5652.00,1.2464
5651.00,1.2503
5650.00,1.2541
5649.00,1.2578
5648.00,1.2614
5647.00,1.2649
5646.00,1.2683
5645.00,1.2715
5644.00,1.2746
5643.00,1.2776
5642.00,1.2805
5641.00,1.2834
5640.00,1.2863
5639.00,1.2893
5638.00,1.2925
5637.00,1.2956
5636.00,1.2985
5635.00,1.3011
5634.00,1.3035
5633.00,1.3057
5632.00,1.3079
5631.00,1.3101
5630.00,1.3123
5629.00,1.3146
5628.00,1.3169
5627.00,1.3191
5626.00,1.3214
5625.00,1.3237
5624.00,1.3261
5623.00,1.3285
5622.00,1.3306
5621.00,1.3325
5620.00,1.3340
5619.00,1.3355
5618.00,1.3369
5617.00,1.3384
5616.00,1.3400
5615.00,1.3416
5614.00,1.3430
5613.00,1.3442
5612.00,1.3454
5611.00,1.3467
5610.00,1.3481
5609.00,1.3495
5608.00,1.3506
5607.00,1.3514
5606.00,1.3518
5605.00,1.3522
5604.00,1.3526
5603.00,1.3532
5602.00,1.3540
5601.00,1.3548
5600.00,1.3555
5599.00,1.3560
5598.00,1.3562
5597.00,1.3562
5596.00,1.3563
5595.00,1.3564
5594.00,1.3566
5593.00,1.3567
5592.00,1.3568
5591.00,1.3569
5590.00,1.3570
5589.00,1.3571
5588.00,1.3570
5587.00,1.3569
5586.00,1.3567
5585.00,1.3562
5584.00,1.3554
5583.00,1.3545
5582.00,1.3535
5581.00,1.3527
5580.00,1.3520
5579.00,1.3513
5578.00,1.3506
5577.00,1.3500
5576.00,1.3495
5575.00,1.3490
5574.00,1.3486
5573.00,1.3479
5572.00,1.3468
5571.00,1.3453
5570.00,1.3436
5569.00,1.3417
5568.00,1.3400
5567.00,1.3384
5566.00,1.3369
5565.00,1.3354
5564.00,1.3338
5563.00,1.3321
5562.00,1.3302
5561.00,1.3281
5560.00,1.3261
5559.00,1.3240
5558.00,1.3218
5557.00,1.3196
5556.00,1.3176
5555.00,1.3157
5554.00,1.3138
5553.00,1.3119
5552.00,1.3097
5551.00,1.3073
5550.00,1.3047
5549.00,1.3019
5548.00,1.2990
5547.00,1.2961
5546.00,1.2932
5545.00,1.2902
5544.00,1.2872
5543.00,1.2840
5542.00,1.2807
5541.00,1.2774
5540.00,1.2741
5539.00,1.2710
5538.00,1.2678
5537.00,1.2647
5536.00,1.2614
5535.00,1.2580
5534.00,1.2543
5533.00,1.2504
5532.00,1.2465
5531.00,1.2427
5530.00,1.2389
5529.00,1.2350
5528.00,1.2311
5527.00,1.2269
5526.00,1.2227
5525.00,1.2183
5524.00,1.2140
5523.00,1.2096
5522.00,1.2052
5521.00,1.2007
5520.00,1.1961
5519.00,1.1914
5518.00,1.1867
5517.00,1.1821
5516.00,1.1773
5515.00,1.1724
5514.00,1.1674
5513.00,1.1623
5512.00,1.1571
5511.00,1.1517
5510.00,1.1464
5509.00,1.1412
5508.00,1.1360
5507.00,1.1307
5506.00,1.1253
5505.00,1.1197
5504.00,1.1139
5503.00,1.1079
5502.00,1.1017
5501.00,1.0956
5500.00,1.0896
5499.00,1.0836
5498.00,1.0775
5497.00,1.0715
5496.00,1.0654
5495.00,1.0593
5494.00,1.0531
5493.00,1.0469
5492.00,1.0407
5491.00,1.0344
5490.00,1.0279
5489.00,1.0214
5488.00,1.0147
5487.00,1.0079
5486.00,1.0010
5485.00,0.9942
5484.00,0.9874
5483.00,0.9806
5482.00,0.9737
5481.00,0.9668
5480.00,0.9598
5479.00,0.9527
5478.00,0.9457
5477.00,0.9387
5476.00,0.9318
5475.00,0.9249
5474.00,0.9179
5473.00,0.9110
5472.00,0.9041
5471.00,0.8971
5470.00,0.8902
5469.00,0.8833
5468.00,0.8763
5467.00,0.8694
5466.00,0.8625
5465.00,0.8558
5464.00,0.8490
5463.00,0.8423
5462.00,0.8356
5461.00,0.8290
5460.00,0.8224
5459.00,0.8160
5458.00,0.8096
5457.00,0.8034
5456.00,0.7973
5455.00,0.7912
5454.00,0.7852
5453.00,0.7794
5452.00,0.7738
5451.00,0.7682
5450.00,0.7629
5449.00,0.7577
5448.00,0.7528
5447.00,0.7479
5446.00,0.7432
5445.00,0.7387
5444.00,0.7344
5443.00,0.7302
5442.00,0.7262
5441.00,0.7224
5440.00,0.7187
5439.00,0.7153
5438.00,0.7121
5437.00,0.7091
5436.00,0.7065
5435.00,0.7041
5434.00,0.7019
5433.00,0.6999
5432.00,0.6982
5431.00,0.6968
5430.00,0.6955
5429.00,0.6945
5428.00,0.6937
5427.00,0.6931
5426.00,0.6926
5425.00,0.6924
5424.00,0.6925
5423.00,0.6928
5422.00,0.6935
5421.00,0.6944
5420.00,0.6955
5419.00,0.6968
5418.00,0.6984
5417.00,0.7003
5416.00,0.7025
5415.00,0.7049
5414.00,0.7074
5413.00,0.7102
5412.00,0.7130
5411.00,0.7160
5410.00,0.7192
5409.00,0.7227
5408.00,0.7263
5407.00,0.7302
5406.00,0.7342
5405.00,0.7384
5404.00,0.7427
5403.00,0.7473
5402.00,0.7520
5401.00,0.7570
5400.00,0.7620
5399.00,0.7672
5398.00,0.7726
5397.00,0.7780
5396.00,0.7836
5395.00,0.7893
5394.00,0.7951
5393.00,0.8009
5392.00,0.8068
5391.00,0.8128
5390.00,0.8188
5389.00,0.8250
5388.00,0.8312
5387.00,0.8376
5386.00,0.8440
5385.00,0.8504
5384.00,0.8569
5383.00,0.8635
5382.00,0.8701
5381.00,0.8769
5380.00,0.8836
5379.00,0.8903
5378.00,0.8969
5377.00,0.9036
5376.00,0.9103
5375.00,0.9170
5374.00,0.9238
5373.00,0.9306
5372.00,0.9375
5371.00,0.9444
5370.00,0.9515
5369.00,0.9585
5368.00,0.9654
5367.00,0.9721
5366.00,0.9788
5365.00,0.9855
5364.00,0.9923
5363.00,0.9992
5362.00,1.0062
5361.00,1.0130
5360.00,1.0196
5359.00,1.0262
5358.00,1.0326
5357.00,1.0391
5356.00,1.0457
5355.00,1.0524
5354.00,1.0591
5353.00,1.0657
5352.00,1.0723
5351.00,1.0788
5350.00,1.0852
5349.00,1.0914
5348.00,1.0976
5347.00,1.1037
5346.00,1.1098
5345.00,1.1159
5344.00,1.1218
5343.00,1.1277
5342.00,1.1335
5341.00,1.1394
5340.00,1.1452
5339.00,1.1510
5338.00,1.1568
5337.00,1.1626
5336.00,1.1682
5335.00,1.1736
5334.00,1.1790
5333.00,1.1844
5332.00,1.1897
5331.00,1.1949
5330.00,1.2000
5329.00,1.2049
5328.00,1.2098
5327.00,1.2148
5326.00,1.2199
5325.00,1.2249
5324.00,1.2298
5323.00,1.2346
5322.00,1.2392
5321.00,1.2438
5320.00,1.2483
5319.00,1.2529
5318.00,1.2574
5317.00,1.2620
5316.00,1.2664
5315.00,1.2708
5314.00,1.2750
5313.00,1.2792
5312.00,1.2833
5311.00,1.2873
5310.00,1.2912
5309.00,1.2952
5308.00,1.2993
5307.00,1.3032
5306.00,1.3071
5305.00,1.3107
5304.00,1.3141
5303.00,1.3173
5302.00,1.3204
5301.00,1.3235
5300.00,1.3266
5299.00,1.3298
5298.00,1.3330
5297.00,1.3363
5296.00,1.3396
5295.00,1.3429
5294.00,1.3460
5293.00,1.3489
5292.00,1.3515
5291.00,1.3541
5290.00,1.3566
5289.00,1.3590
5288.00,1.3615
5287.00,1.3640
5286.00,1.3665
5285.00,1.3688
5284.00,1.3712
5283.00,1.3735
5282.00,1.3756
5281.00,1.3775
5280.00,1.3792
5279.00,1.3811
5278.00,1.3831
5277.00,1.3851
5276.00,1.3869
5275.00,1.3887
5274.00,1.3904
5273.00,1.3918
5272.00,1.3932
5271.00,1.3945
5270.00,1.3958
5269.00,1.3971
5268.00,1.3984
5267.00,1.3996
5266.00,1.4009
5265.00,1.4022
5264.00,1.4035
5263.00,1.4046
5262.00,1.4055
5261.00,1.4063
5260.00,1.4069
5259.00,1.4074
5258.00,1.4078
5257.00,1.4082
5256.00,1.4086
5255.00,1.4091
5254.00,1.4094
5253.00,1.4097
5252.00,1.4097
5251.00,1.4096
5250.00,1.4094
5249.00,1.4092
5248.00,1.4091
5247.00,1.4092
5246.00,1.4092
5245.00,1.4091
5244.00,1.4090
5243.00,1.4088
5242.00,1.4087
5241.00,1.4084
5240.00,1.4080
5239.00,1.4074
5238.00,1.4066
5237.00,1.4058
5236.00,1.4051
5235.00,1.4043
5234.00,1.4036
5233.00,1.4026
5232.00,1.4013
5231.00,1.3997
5230.00,1.3981
5229.00,1.3966
5228.00,1.3951
5227.00,1.3938
5226.00,1.3926
5225.00,1.3913
5224.00,1.3900
5223.00,1.3885
5222.00,1.3868
5221.00,1.3851
5220.00,1.3831
5219.00,1.3811
5218.00,1.3791
5217.00,1.3771
5216.00,1.3752
5215.00,1.3732
5214.00,1.3710
5213.00,1.3686
5212.00,1.3661
5211.00,1.3635
5210.00,1.3610
5209.00,1.3586
5208.00,1.3561
5207.00,1.3534
5206.00,1.3504
5205.00,1.3474
5204.00,1.3444
5203.00,1.3415
5202.00,1.3386
5201.00,1.3356
5200.00,1.3324
5199.00,1.3289
5198.00,1.3252
5197.00,1.3215
5196.00,1.3179
5195.00,1.3145
5194.00,1.3111
5193.00,1.3077
5192.00,1.3043
5191.00,1.3008
5190.00,1.2970
5189.00,1.2930
5188.00,1.2888
5187.00,1.2844
5186.00,1.2798
5185.00,1.2753
5184.00,1.2707
5183.00,1.2661
5182.00,1.2614
5181.00,1.2567
5180.00,1.2520
5179.00,1.2472
5178.00,1.2423
5177.00,1.2374
5176.00,1.2324
5175.00,1.2274
5174.00,1.2222
5173.00,1.2171
5172.00,1.2117
5171.00,1.2063
5170.00,1.2008
5169.00,1.1953
5168.00,1.1897
5167.00,1.1839
5166.00,1.1781
5165.00,1.1721
5164.00,1.1661
5163.00,1.1600
5162.00,1.1539
5161.00,1.1477
5160.00,1.1415
5159.00,1.1352
5158.00,1.1288
5157.00,1.1224
5156.00,1.1159
5155.00,1.1093
5154.00,1.1026
5153.00,1.0957
5152.00,1.0888
5151.00,1.0817
5150.00,1.0746
5149.00,1.0675
5148.00,1.0603
5147.00,1.0531
5146.00,1.0458
5145.00,1.0384
5144.00,1.0309
5143.00,1.0235
5142.00,1.0160
5141.00,1.0086
5140.00,1.0011
5139.00,0.9937
5138.00,0.9861
5137.00,0.9785
5136.00,0.9708
5135.00,0.9631
5134.00,0.9555
5133.00,0.9478
5132.00,0.9400
5131.00,0.9323
5130.00,0.9246
5129.00,0.9168
5128.00,0.9090
5127.00,0.9013
5126.00,0.8936
5125.00,0.8859
5124.00,0.8783
5123.00,0.8707
5122.00,0.8633
5121.00,0.8559
5120.00,0.8486
5119.00,0.8413
5118.00,0.8342
5117.00,0.8271
5116.00,0.8201
5115.00,0.8133
5114.00,0.8065
5113.00,0.7999
5112.00,0.7934
5111.00,0.7871
5110.00,0.7810
5109.00,0.7751
5108.00,0.7692
5107.00,0.7636
5106.00,0.7581
5105.00,0.7529
5104.00,0.7480
5103.00,0.7433
5102.00,0.7388
5101.00,0.7345
5100.00,0.7304
5099.00,0.7266
5098.00,0.7231
5097.00,0.7199
5096.00,0.7169
5095.00,0.7142
5094.00,0.7118
5093.00,0.7097
5092.00,0.7078
5091.00,0.7061
5090.00,0.7048
5089.00,0.7037
5088.00,0.7030
5087.00,0.7026
5086.00,0.7025
5085.00,0.7027
5084.00,0.7032
5083.00,0.7040
5082.00,0.7049
5081.00,0.7062
5080.00,0.7077
5079.00,0.7094
5078.00,0.7114
5077.00,0.7137
5076.00,0.7162
5075.00,0.7190
5074.00,0.7221
5073.00,0.7254
5072.00,0.7289
5071.00,0.7327
5070.00,0.7366
5069.00,0.7408
5068.00,0.7451
5067.00,0.7496
5066.00,0.7542
5065.00,0.7591
5064.00,0.7642
5063.00,0.7694
5062.00,0.7749
5061.00,0.7806
5060.00,0.7864
5059.00,0.7923
5058.00,0.7984
5057.00,0.8046
5056.00,0.8108
5055.00,0.8171
5054.00,0.8235
5053.00,0.8300
5052.00,0.8368
5051.00,0.8436
5050.00,0.8506
5049.00,0.8577
5048.00,0.8649
5047.00,0.8720
5046.00,0.8792
5045.00,0.8864
5044.00,0.8936
5043.00,0.9008
5042.00,0.9081
5041.00,0.9155
5040.00,0.9229
5039.00,0.9305
5038.00,0.9381
5037.00,0.9457
5036.00,0.9532
5035.00,0.9608
5034.00,0.9683
5033.00,0.9758
5032.00,0.9834
5031.00,0.9911
5030.00,0.9987
5029.00,1.0062
5028.00,1.0136
5027.00,1.0211
5026.00,1.0285
5025.00,1.0360
5024.00,1.0434
5023.00,1.0508
5022.00,1.0582
5021.00,1.0656
5020.00,1.0730
5019.00,1.0804
5018.00,1.0877
5017.00,1.0949
5016.00,1.1021
5015.00,1.1092
5014.00,1.1162
5013.00,1.1232
5012.00,1.1302
5011.00,1.1370
5010.00,1.1437
5009.00,1.1504
5008.00,1.1571
5007.00,1.1638
5006.00,1.1705
5005.00,1.1772
5004.00,1.1837
5003.00,1.1902
5002.00,1.1966
5001.00,1.2029
5000.00,1.2092
4999.00,1.2154
4998.00,1.2215
4997.00,1.2275
4996.00,1.2335
4995.00,1.2394
4994.00,1.2453
4993.00,1.2510
4992.00,1.2567
4991.00,1.2622
4990.00,1.2677
4989.00,1.2732
4988.00,1.2787
4987.00,1.2841
4986.00,1.2895
4985.00,1.2948
4984.00,1.3001
4983.00,1.3054
4982.00,1.3104
4981.00,1.3153
4980.00,1.3198
4979.00,1.3243
4978.00,1.3286
4977.00,1.3330
4976.00,1.3375
4975.00,1.3421
4974.00,1.3467
4973.00,1.3511
4972.00,1.3553
4971.00,1.3593
4970.00,1.3632
4969.00,1.3669
4968.00,1.3707
4967.00,1.3746
4966.00,1.3785
4965.00,1.3822
4964.00,1.3856
4963.00,1.3889
4962.00,1.3922
4961.00,1.3955
4960.00,1.3990
4959.00,1.4026
4958.00,1.4060
4957.00,1.4094
4956.00,1.4127
4955.00,1.4159
4954.00,1.4189
4953.00,1.4218
4952.00,1.4246
4951.00,1.4273
4950.00,1.4300
4949.00,1.4326
4948.00,1.4350
4947.00,1.4373
4946.00,1.4394
4945.00,1.4415
4944.00,1.4436
4943.00,1.4458
4942.00,1.4480
4941.00,1.4501
4940.00,1.4522
4939.00,1.4542
4938.00,1.4559
4937.00,1.4575
4936.00,1.4589
4935.00,1.4603
4934.00,1.4616
4933.00,1.4629
4932.00,1.4643
4931.00,1.4655
4930.00,1.4666
4929.00,1.4677
4928.00,1.4689
4927.00,1.4702
4926.00,1.4715
4925.00,1.4726
4924.00,1.4736
4923.00,1.4745
4922.00,1.4752
4921.00,1.4758
4920.00,1.4765
4919.00,1.4771
4918.00,1.4775
4917.00,1.4777
4916.00,1.4778
4915.00,1.4780
4914.00,1.4784
4913.00,1.4789
4912.00,1.4793
4911.00,1.4796
4910.00,1.4798
4909.00,1.4796
4908.00,1.4793
4907.00,1.4789
4906.00,1.4785
4905.00,1.4781
4904.00,1.4775
4903.00,1.4769
4902.00,1.4760
4901.00,1.4752
4900.00,1.4744
4899.00,1.4739
4898.00,1.4735
4897.00,1.4729
4896.00,1.4720
4895.00,1.4708
4894.00,1.4694
4893.00,1.4681
4892.00,1.4668
4891.00,1.4657
4890.00,1.4645
4889.00,1.4633
4888.00,1.4621
4887.00,1.4608
4886.00,1.4594
4885.00,1.4578
4884.00,1.4560
4883.00,1.4541
4882.00,1.4522
4881.00,1.4503
4880.00,1.4483
4879.00,1.4461
4878.00,1.4438
4877.00,1.4414
4876.00,1.4390
4875.00,1.4367
4874.00,1.4344
4873.00,1.4320
4872.00,1.4293
4871.00,1.4265
4870.00,1.4236
4869.00,1.4207
4868.00,1.4178
4867.00,1.4149
4866.00,1.4121
4865.00,1.4093
4864.00,1.4063
4863.00,1.4032
4862.00,1.4000
4861.00,1.3966
4860.00,1.3932
4859.00,1.3897
4858.00,1.3860
4857.00,1.3823
4856.00,1.3784
4855.00,1.3745
4854.00,1.3704
4853.00,1.3664
4852.00,1.3623
4851.00,1.3582
4850.00,1.3541
4849.00,1.3500
4848.00,1.3458
4847.00,1.3415
4846.00,1.3370
4845.00,1.3324
4844.00,1.3277
4843.00,1.3229
4842.00,1.3179
4841.00,1.3128
4840.00,1.3077
4839.00,1.3025
4838.00,1.2973
4837.00,1.2921
4836.00,1.2869
4835.00,1.2816
4834.00,1.2761
4833.00,1.2705
4832.00,1.2647
4831.00,1.2590
4830.00,1.2532
4829.00,1.2473
4828.00,1.2413
4827.00,1.2352
4826.00,1.2289
4825.00,1.2225
4824.00,1.2159
4823.00,1.2093
4822.00,1.2027
4821.00,1.1961
4820.00,1.1893
4819.00,1.1824
4818.00,1.1754
4817.00,1.1683
4816.00,1.1610
4815.00,1.1537
4814.00,1.1464
4813.00,1.1390
4812.00,1.1315
4811.00,1.1240
4810.00,1.1162
4809.00,1.1084
4808.00,1.1005
4807.00,1.0925
4806.00,1.0845
4805.00,1.0766
4804.00,1.0686
4803.00,1.0606
4802.00,1.0524
4801.00,1.0440
4800.00,1.0355
4799.00,1.0269
4798.00,1.0183
4797.00,1.0097
4796.00,1.0010
4795.00,0.9924
4794.00,0.9837
4793.00,0.9749
4792.00,0.9661
4791.00,0.9573
4790.00,0.9484
4789.00,0.9395
4788.00,0.9306
4787.00,0.9218
4786.00,0.9130
4785.00,0.9043
4784.00,0.8956
4783.00,0.8870
4782.00,0.8783
4781.00,0.8697
4780.00,0.8611
4779.00,0.8526
4778.00,0.8443
4777.00,0.8361
4776.00,0.8280
4775.00,0.8201
4774.00,0.8123
4773.00,0.8046
4772.00,0.7971
4771.00,0.7897
4770.00,0.7825
4769.00,0.7755
4768.00,0.7688
4767.00,0.7622
4766.00,0.7560
4765.00,0.7500
4764.00,0.7442
4763.00,0.7387
4762.00,0.7334
4761.00,0.7285
4760.00,0.7239
4759.00,0.7196
4758.00,0.7157
4757.00,0.7121
4756.00,0.7088
4755.00,0.7059
4754.00,0.7032
4753.00,0.7009
4752.00,0.6990
4751.00,0.6974
4750.00,0.6962
4749.00,0.6954
4748.00,0.6949
4747.00,0.6947
4746.00,0.6949
4745.00,0.6955
4744.00,0.6965
4743.00,0.6977
4742.00,0.6993
4741.00,0.7011
4740.00,0.7032
4739.00,0.7057
4738.00,0.7086
4737.00,0.7117
4736.00,0.7152
4735.00,0.7190
4734.00,0.7230
4733.00,0.7274
4732.00,0.7320
4731.00,0.7368
4730.00,0.7418
4729.00,0.7471
4728.00,0.7527
4727.00,0.7585
4726.00,0.7645
4725.00,0.7707
4724.00,0.7770
4723.00,0.7835
4722.00,0.7902
4721.00,0.7971
4720.00,0.8041
4719.00,0.8113
4718.00,0.8186
4717.00,0.8260
4716.00,0.8335
4715.00,0.8412
4714.00,0.8490
4713.00,0.8569
4712.00,0.8649
4711.00,0.8730
4710.00,0.8811
4709.00,0.8893
4708.00,0.8976
4707.00,0.9059
4706.00,0.9142
4705.00,0.9227
4704.00,0.9312
4703.00,0.9397
4702.00,0.9482
4701.00,0.9567
4700.00,0.9653
4699.00,0.9738
4698.00,0.9825
4697.00,0.9911
4696.00,0.9998
4695.00,1.0085
4694.00,1.0172
4693.00,1.0258
4692.00,1.0345
4691.00,1.0433
4690.00,1.0519
4689.00,1.0605
4688.00,1.0690
4687.00,1.0774
4686.00,1.0859
4685.00,1.0943
4684.00,1.1027
4683.00,1.1110
4682.00,1.1193
4681.00,1.1274
4680.00,1.1354
4679.00,1.1434
4678.00,1.1514
4677.00,1.1591
4676.00,1.1669
4675.00,1.1745
4674.00,1.1821
4673.00,1.1895
4672.00,1.1968
4671.00,1.2039
4670.00,1.2110
4669.00,1.2180
4668.00,1.2251
4667.00,1.2322
4666.00,1.2392
4665.00,1.2462
4664.00,1.2532
4663.00,1.2601
4662.00,1.2670
4661.00,1.2736
4660.00,1.2801
4659.00,1.2864
4658.00,1.2925
4657.00,1.2987
4656.00,1.3049
4655.00,1.3110
4654.00,1.3171
4653.00,1.3231
4652.00,1.3289
4651.00,1.3346
4650.00,1.3403
4649.00,1.3461
4648.00,1.3519
4647.00,1.3577
4646.00,1.3634
4645.00,1.3690
4644.00,1.3744
4643.00,1.3797
4642.00,1.3850
4641.00,1.3902
4640.00,1.3954
4639.00,1.4004
4638.00,1.4052
4637.00,1.4099
4636.00,1.4143
4635.00,1.4186
4634.00,1.4228
4633.00,1.4271
4632.00,1.4316
4631.00,1.4362
4630.00,1.4409
4629.00,1.4454
4628.00,1.4497
4627.00,1.4537
4626.00,1.4574
4625.00,1.4610
4624.00,1.4646
4623.00,1.4682
4622.00,1.4719
4621.00,1.4755
4620.00,1.4791
4619.00,1.4826
4618.00,1.4860
4617.00,1.4895
4616.00,1.4928
4615.00,1.4960
4614.00,1.4990
4613.00,1.5018
4612.00,1.5046
4611.00,1.5075
4610.00,1.5104
4609.00,1.5133
4608.00,1.5161
4607.00,1.5185
4606.00,1.5206
4605.00,1.5227
4604.00,1.5248
4603.00,1.5271
4602.00,1.5294
4601.00,1.5317
4600.00,1.5338
4599.00,1.5359
4598.00,1.5378
4597.00,1.5397
4596.00,1.5414
4595.00,1.5430
4594.00,1.5446
4593.00,1.5460
4592.00,1.5474
4591.00,1.5487
4590.00,1.5500
4589.00,1.5514
4588.00,1.5528
4587.00,1.5543
4586.00,1.5556
4585.00,1.5567
4584.00,1.5576
4583.00,1.5583
4582.00,1.5590
4581.00,1.5595
4580.00,1.5601
4579.00,1.5607
4578.00,1.5614
4577.00,1.5621
4576.00,1.5626
4575.00,1.5629
4574.00,1.5630
4573.00,1.5631
4572.00,1.5633
4571.00,1.5636
4570.00,1.5637
4569.00,1.5637
4568.00,1.5635
4567.00,1.5633
4566.00,1.5630
4565.00,1.5627
4564.00,1.5622
4563.00,1.5617
4562.00,1.5611
4561.00,1.5607
4560.00,1.5603
4559.00,1.5598
4558.00,1.5590
4557.00,1.5579
4556.00,1.5567
4555.00,1.5557
4554.00,1.5547
4553.00,1.5537
4552.00,1.5526
4551.00,1.5513
4550.00,1.5499
4549.00,1.5484
4548.00,1.5469
4547.00,1.5454
4546.00,1.5437
4545.00,1.5419
4544.00,1.5401
4543.00,1.5384
4542.00,1.5367
4541.00,1.5348
4540.00,1.5327
4539.00,1.5305
4538.00,1.5283
4537.00,1.5263
4536.00,1.5242
4535.00,1.5220
4534.00,1.5197
4533.00,1.5171
4532.00,1.5145
4531.00,1.5119
4530.00,1.5091
4529.00,1.5063
4528.00,1.5033
4527.00,1.5002
4526.00,1.4970
4525.00,1.4937
4524.00,1.4904
4523.00,1.4871
4522.00,1.4838
4521.00,1.4804
4520.00,1.4769
4519.00,1.4732
4518.00,1.4693
4517.00,1.4654
4516.00,1.4614
4515.00,1.4576
4514.00,1.4537
4513.00,1.4498
4512.00,1.4457
4511.00,1.4414
4510.00,1.4370
4509.00,1.4325
4508.00,1.4279
4507.00,1.4232
4506.00,1.4183
4505.00,1.4133
4504.00,1.4081
4503.00,1.4030
4502.00,1.3979
4501.00,1.3928
4500.00,1.3876
4499.00,1.3823
4498.00,1.3768
4497.00,1.3711
4496.00,1.3654
4495.00,1.3597
4494.00,1.3539
4493.00,1.3480
4492.00,1.3419
4491.00,1.3356
4490.00,1.3292
4489.00,1.3227
4488.00,1.3160
4487.00,1.3093
4486.00,1.3025
4485.00,1.2956
4484.00,1.2888
4483.00,1.2819
4482.00,1.2748
4481.00,1.2676
4480.00,1.2602
4479.00,1.2527
4478.00,1.2451
4477.00,1.2374
4476.00,1.2298
4475.00,1.2219
4474.00,1.2139
4473.00,1.2058
4472.00,1.1975
4471.00,1.1893
4470.00,1.1809
4469.00,1.1725
4468.00,1.1640
4467.00,1.1553
4466.00,1.1465
4465.00,1.1376
4464.00,1.1286
4463.00,1.1196
4462.00,1.1104
4461.00,1.1012
4460.00,1.0919
4459.00,1.0826
4458.00,1.0731
4457.00,1.0635
4456.00,1.0537
4455.00,1.0440
4454.00,1.0343
4453.00,1.0245
4452.00,1.0147
4451.00,1.0047
4450.00,0.9947
4449.00,0.9847
4448.00,0.9748
4447.00,0.9649
4446.00,0.9550
4445.00,0.9451
4444.00,0.9351
4443.00,0.9251
4442.00,0.9153
4441.00,0.9055
4440.00,0.8959
4439.00,0.8863
4438.00,0.8769
4437.00,0.8675
4436.00,0.8583
4435.00,0.8492
4434.00,0.8403
4433.00,0.8317
4432.00,0.8232
4431.00,0.8149
4430.00,0.8069
4429.00,0.7992
4428.00,0.7918
4427.00,0.7846
4426.00,0.7778
4425.00,0.7712
4424.00,0.7649
4423.00,0.7591
4422.00,0.7536
4421.00,0.7486
4420.00,0.7439
4419.00,0.7396
4418.00,0.7357
4417.00,0.7323
4416.00,0.7293
4415.00,0.7268
4414.00,0.7247
4413.00,0.7231
4412.00,0.7219
4411.00,0.7211
4410.00,0.7208
4409.00,0.7209
4408.00,0.7215
4407.00,0.7226
4406.00,0.7241
4405.00,0.7260
4404.00,0.7284
4403.00,0.7311
4402.00,0.7343
4401.00,0.7379
4400.00,0.7418
4399.00,0.7462
4398.00,0.7509
4397.00,0.7559
4396.00,0.7612
4395.00,0.7669
4394.00,0.7728
4393.00,0.7790
4392.00,0.7855
4391.00,0.7923
4390.00,0.7993
4389.00,0.8066
4388.00,0.8140
4387.00,0.8216
4386.00,0.8294
4385.00,0.8374
4384.00,0.8456
4383.00,0.8538
4382.00,0.8622
4381.00,0.8707
4380.00,0.8793
4379.00,0.8880
4378.00,0.8968
4377.00,0.9057
4376.00,0.9147
4375.00,0.9236
4374.00,0.9325
4373.00,0.9414
4372.00,0.9503
4371.00,0.9592
4370.00,0.9682
4369.00,0.9771
4368.00,0.9859
4367.00,0.9948
4366.00,1.0036
4365.00,1.0124
4364.00,1.0212
4363.00,1.0300
4362.00,1.0388
4361.00,1.0477
4360.00,1.0564
4359.00,1.0651
4358.00,1.0738
4357.00,1.0825
4356.00,1.0912
4355.00,1.1001
4354.00,1.1090
4353.00,1.1178
4352.00,1.1267
4351.00,1.1356
4350.00,1.1444
4349.00,1.1533
4348.00,1.1622
4347.00,1.1710
4346.00,1.1797
4345.00,1.1883
4344.00,1.1969
4343.00,1.2054
4342.00,1.2139
4341.00,1.2222
4340.00,1.2304
4339.00,1.2386
4338.00,1.2468
4337.00,1.2551
4336.00,1.2634
4335.00,1.2716
4334.00,1.2797
4333.00,1.2875
4332.00,1.2953
4331.00,1.3029
4330.00,1.3107
4329.00,1.3186
4328.00,1.3265
4327.00,1.3344
4326.00,1.3420
4325.00,1.3495
4324.00,1.3568
4323.00,1.3641
4322.00,1.3713
4321.00,1.3784
4320.00,1.3855
4319.00,1.3925
4318.00,1.3995
4317.00,1.4062
4316.00,1.4128
4315.00,1.4192
4314.00,1.4256
4313.00,1.4320
4312.00,1.4384
4311.00,1.4446
4310.00,1.4506
4309.00,1.4564
4308.00,1.4621
4307.00,1.4678
4306.00,1.4735
4305.00,1.4790
4304.00,1.4845
4303.00,1.4898
4302.00,1.4950
4301.00,1.5002
4300.00,1.5053
4299.00,1.5103
4298.00,1.5153
4297.00,1.5202
4296.00,1.5250
4295.00,1.5298
4294.00,1.5344
4293.00,1.5389
4292.00,1.5434
4291.00,1.5478
4290.00,1.5521
4289.00,1.5564
4288.00,1.5605
4287.00,1.5645
4286.00,1.5683
4285.00,1.5721
4284.00,1.5758
4283.00,1.5794
4282.00,1.5829
4281.00,1.5863
4280.00,1.5897
4279.00,1.5929
4278.00,1.5961
4277.00,1.5992
4276.00,1.6023
4275.00,1.6053
4274.00,1.6082
4273.00,1.6111
4272.00,1.6140
4271.00,1.6168
4270.00,1.6195
4269.00,1.6221
4268.00,1.6246
4267.00,1.6270
4266.00,1.6293
4265.00,1.6317
4264.00,1.6341
4263.00,1.6366
4262.00,1.6390
4261.00,1.6412
4260.00,1.6430
4259.00,1.6447
4258.00,1.6463
4257.00,1.6480
4256.00,1.6497
4255.00,1.6514
4254.00,1.6529
4253.00,1.6542
4252.00,1.6554
4251.00,1.6568
4250.00,1.6581
4249.00,1.6593
4248.00,1.6604
4247.00,1.6613
4246.00,1.6622
4245.00,1.6632
4244.00,1.6643
4243.00,1.6653
4242.00,1.6662
4241.00,1.6668
4240.00,1.6673
4239.00,1.6677
4238.00,1.6680
4237.00,1.6682
4236.00,1.6685
4235.00,1.6688
4234.00,1.6691
4233.00,1.6692
4232.00,1.6693
4231.00,1.6695
4230.00,1.6697
4229.00,1.6699
4228.00,1.6701
4227.00,1.6701
4226.00,1.6699
4225.00,1.6694
4224.00,1.6689
4223.00,1.6683
4222.00,1.6676
4221.00,1.6667
4220.00,1.6657
4219.00,1.6645
4218.00,1.6635
4217.00,1.6625
4216.00,1.6617
4215.00,1.6609
4214.00,1.6600
4213.00,1.6590
4212.00,1.6579
4211.00,1.6567
4210.00,1.6554
4209.00,1.6540
4208.00,1.6526
4207.00,1.6511
4206.00,1.6496
4205.00,1.6479
4204.00,1.6461
4203.00,1.6441
4202.00,1.6419
4201.00,1.6396
4200.00,1.6370
4199.00,1.6345
4198.00,1.6319
4197.00,1.6295
4196.00,1.6272
4195.00,1.6248
4194.00,1.6222
4193.00,1.6195
4192.00,1.6168
4191.00,1.6141
4190.00,1.6113
4189.00,1.6082
4188.00,1.6050
4187.00,1.6017
4186.00,1.5984
4185.00,1.5952
4184.00,1.5920
4183.00,1.5886
4182.00,1.5851
4181.00,1.5815
4180.00,1.5779
4179.00,1.5741
4178.00,1.5703
4177.00,1.5664
4176.00,1.5624
4175.00,1.5582
4174.00,1.5539
4173.00,1.5495
4172.00,1.5450
4171.00,1.5404
4170.00,1.5358
4169.00,1.5310
4168.00,1.5263
4167.00,1.5216
4166.00,1.5168
4165.00,1.5119
4164.00,1.5067
4163.00,1.5012
4162.00,1.4955
4161.00,1.4899
4160.00,1.4844
4159.00,1.4789
4158.00,1.4733
4157.00,1.4676
4156.00,1.4617
4155.00,1.4558
4154.00,1.4498
4153.00,1.4437
4152.00,1.4373
4151.00,1.4308
4150.00,1.4241
4149.00,1.4173
4148.00,1.4106
4147.00,1.4037
4146.00,1.3967
4145.00,1.3895
4144.00,1.3821
4143.00,1.3747
4142.00,1.3671
4141.00,1.3594
4140.00,1.3516
4139.00,1.3436
4138.00,1.3356
4137.00,1.3275
4136.00,1.3193
4135.00,1.3110
4134.00,1.3026
4133.00,1.2940
4132.00,1.2852
4131.00,1.2764
4130.00,1.2675
4129.00,1.2585
4128.00,1.2494
4127.00,1.2401
4126.00,1.2307
4125.00,1.2212
4124.00,1.2115
4123.00,1.2018
4122.00,1.1919
4121.00,1.1819
4120.00,1.1717
4119.00,1.1614
4118.00,1.1510
4117.00,1.1405
4116.00,1.1300
4115.00,1.1193
4114.00,1.1085
4113.00,1.0976
4112.00,1.0866
4111.00,1.0755
4110.00,1.0644
4109.00,1.0532
4108.00,1.0421
4107.00,1.0308
4106.00,1.0196
4105.00,1.0083
4104.00,0.9969
4103.00,0.9857
4102.00,0.9744
4101.00,0.9632
4100.00,0.9520
4099.00,0.9409
4098.00,0.9299
4097.00,0.9190
4096.00,0.9083
4095.00,0.8977
4094.00,0.8873
4093.00,0.8770
4092.00,0.8669
4091.00,0.8571
4090.00,0.8476
4089.00,0.8384
4088.00,0.8295
4087.00,0.8209
4086.00,0.8126
4085.00,0.8047
4084.00,0.7971
4083.00,0.7900
4082.00,0.7833
4081.00,0.7770
4080.00,0.7712
4079.00,0.7657
4078.00,0.7607
4077.00,0.7561
4076.00,0.7521
4075.00,0.7485
4074.00,0.7455
4073.00,0.7430
4072.00,0.7410
4071.00,0.7395
4070.00,0.7386
4069.00,0.7382
4068.00,0.7383
4067.00,0.7390
4066.00,0.7403
4065.00,0.7422
4064.00,0.7446
4063.00,0.7476
4062.00,0.7511
4061.00,0.7552
4060.00,0.7597
4059.00,0.7647
4058.00,0.7701
4057.00,0.7760
4056.00,0.7823
4055.00,0.7891
4054.00,0.7962
4053.00,0.8037
4052.00,0.8115
4051.00,0.8196
4050.00,0.8279
4049.00,0.8365
4048.00,0.8453
4047.00,0.8544
4046.00,0.8636
4045.00,0.8731
4044.00,0.8827
4043.00,0.8924
4042.00,0.9023
4041.00,0.9123
4040.00,0.9224
4039.00,0.9326
4038.00,0.9430
4037.00,0.9535
4036.00,0.9641
4035.00,0.9748
4034.00,0.9855
4033.00,0.9963
4032.00,1.0071
4031.00,1.0179
4030.00,1.0289
4029.00,1.0399
4028.00,1.0510
4027.00,1.0621
4026.00,1.0733
4025.00,1.0844
4024.00,1.0956
4023.00,1.1068
4022.00,1.1179
4021.00,1.1290
4020.00,1.1400
4019.00,1.1510
4018.00,1.1619
4017.00,1.1728
4016.00,1.1836
4015.00,1.1943
4014.00,1.2049
4013.00,1.2155
4012.00,1.2259
4011.00,1.2363
4010.00,1.2466
4009.00,1.2568
4008.00,1.2668
4007.00,1.2768
4006.00,1.2868
4005.00,1.2966
4004.00,1.3063
4003.00,1.3160
4002.00,1.3256
4001.00,1.3351
4000.00,1.3444
3999.00,1.3537
3998.00,1.3630
3997.00,1.3723
3996.00,1.3816
3995.00,1.3907
3994.00,1.3997
3993.00,1.4084
3992.00,1.4168
3991.00,1.4251
3990.00,1.4334
3989.00,1.4416
3988.00,1.4498
3987.00,1.4579
3986.00,1.4660
3985.00,1.4740
3984.00,1.4819
3983.00,1.4895
3982.00,1.4970
3981.00,1.5043
3980.00,1.5116
3979.00,1.5187
3978.00,1.5258
3977.00,1.5329
3976.00,1.5399
3975.00,1.5467
3974.00,1.5534
3973.00,1.5600
3972.00,1.5664
3971.00,1.5727
3970.00,1.5788
3969.00,1.5849
3968.00,1.5908
3967.00,1.5966
3966.00,1.6023
3965.00,1.6079
3964.00,1.6134
3963.00,1.6189
3962.00,1.6245
3961.00,1.6300
3960.00,1.6355
3959.00,1.6407
3958.00,1.6459
3957.00,1.6509
3956.00,1.6557
3955.00,1.6603
3954.00,1.6648
3953.00,1.6694
3952.00,1.6740
3951.00,1.6785
3950.00,1.6826
3949.00,1.6864
3948.00,1.6900
3947.00,1.6936
3946.00,1.6975
3945.00,1.7015
3944.00,1.7055
3943.00,1.7093
3942.00,1.7129
3941.00,1.7164
3940.00,1.7200
3939.00,1.7236
3938.00,1.7271
3937.00,1.7305
3936.00,1.7338
3935.00,1.7369
3934.00,1.7398
3933.00,1.7424
3932.00,1.7450
3931.00,1.7477
3930.00,1.7503
3929.00,1.7529
3928.00,1.7552
3927.00,1.7574
3926.00,1.7597
3925.00,1.7620
3924.00,1.7642
3923.00,1.7664
3922.00,1.7687
3921.00,1.7708
3920.00,1.7729
3919.00,1.7749
3918.00,1.7770
3917.00,1.7791
3916.00,1.7812
3915.00,1.7832
3914.00,1.7849
3913.00,1.7862
3912.00,1.7872
3911.00,1.7880
3910.00,1.7890
3909.00,1.7901
3908.00,1.7917
3907.00,1.7933
3906.00,1.7949
3905.00,1.7962
3904.00,1.7971
3903.00,1.7978
3902.00,1.7986
3901.00,1.7994
3900.00,1.8000
3899.00,1.8003
3898.00,1.8005
3897.00,1.8006
3896.00,1.8009
3895.00,1.8012
3894.00,1.8014
3893.00,1.8015
3892.00,1.8015
3891.00,1.8015
3890.00,1.8017
3889.00,1.8021
3888.00,1.8026
3887.00,1.8028
3886.00,1.8023
3885.00,1.8014
3884.00,1.8006
3883.00,1.8002
3882.00,1.7997
3881.00,1.7987
3880.00,1.7971
3879.00,1.7957
3878.00,1.7949
3877.00,1.7943
3876.00,1.7935
3875.00,1.7922
3874.00,1.7906
3873.00,1.7892
3872.00,1.7880
3871.00,1.7866
3870.00,1.7849
3869.00,1.7828
3868.00,1.7812
3867.00,1.7801
3866.00,1.7790
3865.00,1.7771
3864.00,1.7744
3863.00,1.7714
3862.00,1.7687
3861.00,1.7662
3860.00,1.7640
3859.00,1.7622
3858.00,1.7608
3857.00,1.7596
3856.00,1.7580
3855.00,1.7560
3854.00,1.7532
3853.00,1.7499
3852.00,1.7467
3851.00,1.7440
3850.00,1.7412
3849.00,1.7376
3848.00,1.7331
3847.00,1.7285
3846.00,1.7244
3845.00,1.7206
3844.00,1.7168
3843.00,1.7130
3842.00,1.7092
3841.00,1.7055
3840.00,1.7016
3839.00,1.6974
3838.00,1.6930
3837.00,1.6882
3836.00,1.6835
3835.00,1.6788
3834.00,1.6742
3833.00,1.6692
3832.00,1.6639
3831.00,1.6586
3830.00,1.6537
3829.00,1.6490
3828.00,1.6442
3827.00,1.6389
3826.00,1.6333
3825.00,1.6276
3824.00,1.6223
3823.00,1.6170
3822.00,1.6113
3821.00,1.6050
3820.00,1.5986
3819.00,1.5925
3818.00,1.5867
3817.00,1.5801
3816.00,1.5726
3815.00,1.5647
3814.00,1.5574
3813.00,1.5509
3812.00,1.5446
3811.00,1.5379
3810.00,1.5310
3809.00,1.5240
3808.00,1.5167
3807.00,1.5089
3806.00,1.5008
3805.00,1.4931
3804.00,1.4857
3803.00,1.4779
3802.00,1.4689
3801.00,1.4588
3800.00,1.4486
3799.00,1.4393
3798.00,1.4305
3797.00,1.4212
3796.00,1.4112
3795.00,1.4012
3794.00,1.3917
3793.00,1.3824
3792.00,1.3730
3791.00,1.3633
3790.00,1.3534
3789.00,1.3432
3788.00,1.3328
3787.00,1.3223
3786.00,1.3115
3785.00,1.3004
3784.00,1.2890
3783.00,1.2776
3782.00,1.2662
3781.00,1.2546
3780.00,1.2426
3779.00,1.2303
3778.00,1.2179
3777.00,1.2055
3776.00,1.1931
3775.00,1.1807
3774.00,1.1682
3773.00,1.1558
3772.00,1.1434
3771.00,1.1306
3770.00,1.1173
3769.00,1.1037
3768.00,1.0901
3767.00,1.0766
3766.00,1.0630
3765.00,1.0489
3764.00,1.0350
3763.00,1.0215
3762.00,1.0085
3761.00,0.9953
3760.00,0.9817
3759.00,0.9679
3758.00,0.9542
3757.00,0.9408
3756.00,0.9279
3755.00,0.9158
3754.00,0.9045
3753.00,0.8935
3752.00,0.8825
3751.00,0.8711
3750.00,0.8594
3749.00,0.8479
3748.00,0.8373
3747.00,0.8282
3746.00,0.8203
3745.00,0.8122
3744.00,0.8036
3743.00,0.7956
3742.00,0.7896
3741.00,0.7852
3740.00,0.7812
3739.00,0.7770
3738.00,0.7737
3737.00,0.7718
3736.00,0.7710
3735.00,0.7708
3734.00,0.7710
3733.00,0.7714
3732.00,0.7718
3731.00,0.7726
3730.00,0.7742
3729.00,0.7769
3728.00,0.7805
3727.00,0.7847
3726.00,0.7893
3725.00,0.7945
3724.00,0.8005
3723.00,0.8070
3722.00,0.8139
3721.00,0.8211
3720.00,0.8290
3719.00,0.8377
3718.00,0.8470
3717.00,0.8569
3716.00,0.8673
3715.00,0.8781
3714.00,0.8894
3713.00,0.9014
3712.00,0.9141
3711.00,0.9272
3710.00,0.9403
3709.00,0.9530
3708.00,0.9655
3707.00,0.9780
3706.00,0.9907
3705.00,1.0037
3704.00,1.0170
3703.00,1.0307
3702.00,1.0447
3701.00,1.0591
3700.00,1.0738
3699.00,1.0883
3698.00,1.1026
3697.00,1.1165
3696.00,1.1304
3695.00,1.1442
3694.00,1.1579
3693.00,1.1715
3692.00,1.1851
3691.00,1.1986
3690.00,1.2124
3689.00,1.2266
3688.00,1.2412
3687.00,1.2558
3686.00,1.2700
3685.00,1.2835
3684.00,1.2963
3683.00,1.3081
3682.00,1.3195
3681.00,1.3310
3680.00,1.3427
3679.00,1.3545
3678.00,1.3661
3677.00,1.3778
3676.00,1.3901
3675.00,1.4030
3674.00,1.4160
3673.00,1.4285
3672.00,1.4403
3671.00,1.4514
3670.00,1.4620
3669.00,1.4728
3668.00,1.4839
3667.00,1.4950
3666.00,1.5054
3665.00,1.5150
3664.00,1.5242
3663.00,1.5332
3662.00,1.5423
3661.00,1.5516
3660.00,1.5609
3659.00,1.5700
3658.00,1.5788
3657.00,1.5877
3656.00,1.5970
3655.00,1.6064
3654.00,1.6155
3653.00,1.6242
3652.00,1.6324
3651.00,1.6401
3650.00,1.6477
3649.00,1.6554
3648.00,1.6635
3647.00,1.6714
3646.00,1.6788
3645.00,1.6859
3644.00,1.6931
3643.00,1.7000
3642.00,1.7067
3641.00,1.7134
3640.00,1.7204
3639.00,1.7276
3638.00,1.7346
3637.00,1.7416
3636.00,1.7484
3635.00,1.7549
3634.00,1.7610
3633.00,1.7670
3632.00,1.7729
3631.00,1.7787
3630.00,1.7844
3629.00,1.7901
3628.00,1.7961
3627.00,1.8021
3626.00,1.8076
3625.00,1.8122
3624.00,1.8160
3623.00,1.8193
3622.00,1.8225
3621.00,1.8262
3620.00,1.8304
3619.00,1.8348
3618.00,1.8391
3617.00,1.8433
3616.00,1.8475
3615.00,1.8514
3614.00,1.8549
3613.00,1.8582
3612.00,1.8620
3611.00,1.8661
3610.00,1.8703
3609.00,1.8745
3608.00,1.8787
3607.00,1.8826
3606.00,1.8862
3605.00,1.8896
3604.00,1.8930
3603.00,1.8965
3602.00,1.8997
3601.00,1.9028
3600.00,1.9058
3599.00,1.9087
3598.00,1.9115
3597.00,1.9143
3596.00,1.9172
3595.00,1.9200
3594.00,1.9227
3593.00,1.9256
3592.00,1.9285
3591.00,1.9312
3590.00,1.9334
3589.00,1.9356
3588.00,1.9380
3587.00,1.9405
3586.00,1.9425
3585.00,1.9441
3584.00,1.9454
3583.00,1.9465
3582.00,1.9475
3581.00,1.9484
3580.00,1.9495
3579.00,1.9507
3578.00,1.9517
3577.00,1.9528
3576.00,1.9540
3575.00,1.9552
3574.00,1.9560
3573.00,1.9566
3572.00,1.9572
3571.00,1.9578
3570.00,1.9586
3569.00,1.9594
3568.00,1.9599
3567.00,1.9598
3566.00,1.9592
3565.00,1.9587
3564.00,1.9587
3563.00,1.9588
3562.00,1.9587
3561.00,1.9584
3560.00,1.9580
3559.00,1.9576
3558.00,1.9573
3557.00,1.9569
3556.00,1.9564
3555.00,1.9555
3554.00,1.9543
3553.00,1.9532
3552.00,1.9526
3551.00,1.9522
3550.00,1.9515
3549.00,1.9508
3548.00,1.9504
3547.00,1.9503
3546.00,1.9504
3545.00,1.9503
3544.00,1.9499
3543.00,1.9490
3542.00,1.9478
3541.00,1.9466
3540.00,1.9455
3539.00,1.9445
3538.00,1.9436
3537.00,1.9429
3536.00,1.9423
3535.00,1.9414
3534.00,1.9400
3533.00,1.9383
3532.00,1.9366
3531.00,1.9345
3530.00,1.9322
3529.00,1.9299
3528.00,1.9278
3527.00,1.9259
3526.00,1.9240
3525.00,1.9223
3524.00,1.9205
3523.00,1.9184
3522.00,1.9159
3521.00,1.9132
3520.00,1.9107
3519.00,1.9086
3518.00,1.9066
3517.00,1.9045
3516.00,1.9021
3515.00,1.8993
3514.00,1.8962
3513.00,1.8929
3512.00,1.8898
3511.00,1.8865
3510.00,1.8830
3509.00,1.8794
3508.00,1.8757
3507.00,1.8722
3506.00,1.8686
3505.00,1.8651
3504.00,1.8614
3503.00,1.8575
3502.00,1.8532
3501.00,1.8486
3500.00,1.8439
3499.00,1.8390
3498.00,1.8342
3497.00,1.8294
3496.00,1.8248
3495.00,1.8200
3494.00,1.8150
3493.00,1.8098
3492.00,1.8043
3491.00,1.7985
3490.00,1.7926
3489.00,1.7867
3488.00,1.7808
3487.00,1.7748
3486.00,1.7687
3485.00,1.7627
3484.00,1.7567
3483.00,1.7504
3482.00,1.7438
3481.00,1.7370
3480.00,1.7300
3479.00,1.7229
3478.00,1.7155
3477.00,1.7082
3476.00,1.7010
3475.00,1.6937
3474.00,1.6863
3473.00,1.6785
3472.00,1.6704
3471.00,1.6620
3470.00,1.6534
3469.00,1.6448
3468.00,1.6362
3467.00,1.6275
3466.00,1.6187
3465.00,1.6096
3464.00,1.6003
3463.00,1.5908
3462.00,1.5811
3461.00,1.5714
3460.00,1.5615
3459.00,1.5515
3458.00,1.5412
3457.00,1.5308
3456.00,1.5203
3455.00,1.5096
3454.00,1.4987
3453.00,1.4875
3452.00,1.4763
3451.00,1.4650
3450.00,1.4535
3449.00,1.4419
3448.00,1.4301
3447.00,1.4179
3446.00,1.4055
3445.00,1.3930
3444.00,1.3805
3443.00,1.3679
3442.00,1.3552
3441.00,1.3425
3440.00,1.3296
3439.00,1.3167
3438.00,1.3037
3437.00,1.2907
3436.00,1.2776
3435.00,1.2646
3434.00,1.2516
3433.00,1.2387
3432.00,1.2259
3431.00,1.2133
3430.00,1.2009
3429.00,1.1888
3428.00,1.1770
3427.00,1.1656
3426.00,1.1547
3425.00,1.1443
3424.00,1.1344
3423.00,1.1251
3422.00,1.1164
3421.00,1.1084
3420.00,1.1011
3419.00,1.0945
3418.00,1.0888
3417.00,1.0838
3416.00,1.0795
3415.00,1.0760
3414.00,1.0730
3413.00,1.0705
3412.00,1.0684
3411.00,1.0665
3410.00,1.0646
3409.00,1.0628
3408.00,1.0608
3407.00,1.0585
3406.00,1.0557
3405.00,1.0524
3404.00,1.0484
3403.00,1.0438
3402.00,1.0386
3401.00,1.0329
3400.00,1.0269
3399.00,1.0207
3398.00,1.0147
3397.00,1.0088
3396.00,1.0033
3395.00,0.9983
3394.00,0.9940
3393.00,0.9905
3392.00,0.9878
3391.00,0.9861
3390.00,0.9854
3389.00,0.9859
3388.00,0.9874
3387.00,0.9899
3386.00,0.9932
3385.00,0.9974
3384.00,1.0023
3383.00,1.0080
3382.00,1.0145
3381.00,1.0217
3380.00,1.0296
3379.00,1.0382
3378.00,1.0474
3377.00,1.0571
3376.00,1.0673
3375.00,1.0779
3374.00,1.0890
3373.00,1.1004
3372.00,1.1122
3371.00,1.1243
3370.00,1.1366
3369.00,1.1492
3368.00,1.1620
3367.00,1.1750
3366.00,1.1881
3365.00,1.2014
3364.00,1.2147
3363.00,1.2280
3362.00,1.2415
3361.00,1.2549
3360.00,1.2684
3359.00,1.2819
3358.00,1.2954
3357.00,1.3088
3356.00,1.3223
3355.00,1.3357
3354.00,1.3490
3353.00,1.3624
3352.00,1.3756
3351.00,1.3888
3350.00,1.4018
3349.00,1.4148
3348.00,1.4276
3347.00,1.4403
3346.00,1.4529
3345.00,1.4653
3344.00,1.4777
3343.00,1.4900
3342.00,1.5021
3341.00,1.5140
3340.00,1.5259
3339.00,1.5377
3338.00,1.5494
3337.00,1.5608
3336.00,1.5721
3335.00,1.5832
3334.00,1.5942
3333.00,1.6051
3332.00,1.6158
3331.00,1.6263
3330.00,1.6366
3329.00,1.6469
3328.00,1.6572
3327.00,1.6673
3326.00,1.6770
3325.00,1.6866
3324.00,1.6960
3323.00,1.7052
3322.00,1.7143
3321.00,1.7232
3320.00,1.7321
3319.00,1.7406
3318.00,1.7488
3317.00,1.7568
3316.00,1.7649
3315.00,1.7730
3314.00,1.7810
3313.00,1.7891
3312.00,1.7971
3311.00,1.8052
3310.00,1.8133
3309.00,1.8213
3308.00,1.8292
3307.00,1.8368
3306.00,1.8442
3305.00,1.8511
3304.00,1.8575
3303.00,1.8633
3302.00,1.8689
3301.00,1.8746
3300.00,1.8804
3299.00,1.8864
3298.00,1.8925
3297.00,1.8987
3296.00,1.9051
3295.00,1.9116
3294.00,1.9179
3293.00,1.9240
3292.00,1.9297
3291.00,1.9349
3290.00,1.9396
3289.00,1.9441
3288.00,1.9488
3287.00,1.9537
3286.00,1.9589
3285.00,1.9641
3284.00,1.9693
3283.00,1.9741
3282.00,1.9788
3281.00,1.9836
3280.00,1.9883
3279.00,1.9928
3278.00,1.9969
3277.00,2.0009
3276.00,2.0052
3275.00,2.0099
3274.00,2.0148
3273.00,2.0199
3272.00,2.0249
3271.00,2.0292
3270.00,2.0328
3269.00,2.0359
3268.00,2.0389
3267.00,2.0418
3266.00,2.0447
3265.00,2.0476
3264.00,2.0504
3263.00,2.0531
3262.00,2.0558
3261.00,2.0584
3260.00,2.0610
3259.00,2.0636
3258.00,2.0663
3257.00,2.0692
3256.00,2.0722
3255.00,2.0749
3254.00,2.0771
3253.00,2.0793
3252.00,2.0818
3251.00,2.0844
3250.00,2.0871
3249.00,2.0895
3248.00,2.0916
3247.00,2.0933
3246.00,2.0944
3245.00,2.0954
3244.00,2.0964
3243.00,2.0976
3242.00,2.0988
3241.00,2.1000
3240.00,2.1013
3239.00,2.1026
3238.00,2.1040
3237.00,2.1054
3236.00,2.1066
3235.00,2.1075
3234.00,2.1080
3233.00,2.1087
3232.00,2.1094
3231.00,2.1100
3230.00,2.1105
3229.00,2.1110
3228.00,2.1117
3227.00,2.1121
3226.00,2.1122
3225.00,2.1119
3224.00,2.1117
3223.00,2.1115
3222.00,2.1114
3221.00,2.1113
3220.00,2.1112
3219.00,2.1107
3218.00,2.1101
3217.00,2.1094
3216.00,2.1090
3215.00,2.1088
3214.00,2.1084
3213.00,2.1079
3212.00,2.1072
3211.00,2.1064
3210.00,2.1054
3209.00,2.1046
3208.00,2.1039
3207.00,2.1028
3206.00,2.1012
3205.00,2.0992
3204.00,2.0970
3203.00,2.0947
3202.00,2.0925
3201.00,2.0905
3200.00,2.0887
3199.00,2.0869
3198.00,2.0848
3197.00,2.0825
3196.00,2.0803
3195.00,2.0781
3194.00,2.0760
3193.00,2.0736
3192.00,2.0710
3191.00,2.0680
3190.00,2.0651
3189.00,2.0624
3188.00,2.0598
3187.00,2.0571
3186.00,2.0539
3185.00,2.0505
3184.00,2.0469
3183.00,2.0432
3182.00,2.0396
3181.00,2.0361
3180.00,2.0328
3179.00,2.0291
3178.00,2.0252
3177.00,2.0212
3176.00,2.0172
3175.00,2.0132
3174.00,2.0089
3173.00,2.0041
3172.00,1.9992
3171.00,1.9941
3170.00,1.9890
3169.00,1.9840
3168.00,1.9790
3167.00,1.9737
3166.00,1.9684
3165.00,1.9633
3164.00,1.9582
3163.00,1.9528
3162.00,1.9472
3161.00,1.9412
3160.00,1.9351
3159.00,1.9287
3158.00,1.9221
3157.00,1.9154
3156.00,1.9087
3155.00,1.9018
3154.00,1.8946
3153.00,1.8872
3152.00,1.8797
3151.00,1.8723
3150.00,1.8650
3149.00,1.8576
3148.00,1.8499
3147.00,1.8418
3146.00,1.8334
3145.00,1.8249
3144.00,1.8163
3143.00,1.8075
3142.00,1.7985
3141.00,1.7894
3140.00,1.7802
3139.00,1.7708
3138.00,1.7612
3137.00,1.7513
3136.00,1.7412
3135.00,1.7310
3134.00,1.7207
3133.00,1.7103
3132.00,1.6996
3131.00,1.6884
3130.00,1.6769
3129.00,1.6653
3128.00,1.6536
3127.00,1.6416
3126.00,1.6293
3125.00,1.6166
3124.00,1.6037
3123.00,1.5904
3122.00,1.5769
3121.00,1.5631
3120.00,1.5492
3119.00,1.5349
3118.00,1.5204
3117.00,1.5056
3116.00,1.4906
3115.00,1.4753
3114.00,1.4596
3113.00,1.4436
3112.00,1.4274
3111.00,1.4111
3110.00,1.3945
3109.00,1.3778
3108.00,1.3607
3107.00,1.3434
3106.00,1.3258
3105.00,1.3082
3104.00,1.2903
3103.00,1.2723
3102.00,1.2541
3101.00,1.2358
3100.00,1.2174
3099.00,1.1992
3098.00,1.1810
3097.00,1.1631
3096.00,1.1453
3095.00,1.1278
3094.00,1.1107
3093.00,1.0940
3092.00,1.0780
3091.00,1.0628
3090.00,1.0484
3089.00,1.0348
3088.00,1.0223
3087.00,1.0107
3086.00,1.0002
3085.00,0.9909
3084.00,0.9828
3083.00,0.9761
3082.00,0.9706
3081.00,0.9666
3080.00,0.9639
3079.00,0.9626
3078.00,0.9628
3077.00,0.9644
3076.00,0.9675
3075.00,0.9721
3074.00,0.9780
3073.00,0.9853
3072.00,0.9937
3071.00,1.0034
3070.00,1.0140
3069.00,1.0256
3068.00,1.0381
3067.00,1.0514
3066.00,1.0654
3065.00,1.0800
3064.00,1.0953
3063.00,1.1111
3062.00,1.1275
3061.00,1.1443
3060.00,1.1614
3059.00,1.1788
3058.00,1.1964
3057.00,1.2143
3056.00,1.2325
3055.00,1.2508
3054.00,1.2692
3053.00,1.2877
3052.00,1.3062
3051.00,1.3247
3050.00,1.3431
3049.00,1.3616
3048.00,1.3802
3047.00,1.3990
3046.00,1.4179
3045.00,1.4369
3044.00,1.4560
3043.00,1.4751
3042.00,1.4944
3041.00,1.5137
3040.00,1.5330
3039.00,1.5522
3038.00,1.5713
3037.00,1.5903
3036.00,1.6090
3035.00,1.6273
3034.00,1.6453
3033.00,1.6630
3032.00,1.6805
3031.00,1.6979
3030.00,1.7149
3029.00,1.7315
3028.00,1.7476
3027.00,1.7635
3026.00,1.7792
3025.00,1.7948
3024.00,1.8101
3023.00,1.8251
3022.00,1.8397
3021.00,1.8540
3020.00,1.8683
3019.00,1.8825
3018.00,1.8967
3017.00,1.9107
3016.00,1.9246
3015.00,1.9383
3014.00,1.9515
3013.00,1.9645
3012.00,1.9773
3011.00,1.9899
3010.00,2.0024
3009.00,2.0148
3008.00,2.0274
3007.00,2.0400
3006.00,2.0522
3005.00,2.0639
3004.00,2.0751
3003.00,2.0862
3002.00,2.0972
3001.00,2.1084
3000.00,2.1193
2999.00,2.1299
2998.00,2.1400
2997.00,2.1499
2996.00,2.1599
2995.00,2.1701
2994.00,2.1806
2993.00,2.1914
2992.00,2.2016
2991.00,2.2109
2990.00,2.2195
2989.00,2.2282
2988.00,2.2376
2987.00,2.2469
2986.00,2.2555
2985.00,2.2634
2984.00,2.2711
2983.00,2.2790
2982.00,2.2872
2981.00,2.2959
2980.00,2.3049
2979.00,2.3143
2978.00,2.3239
2977.00,2.3338
2976.00,2.3439
2975.00,2.3542
2974.00,2.3651
2973.00,2.3776
2972.00,2.3923
2971.00,2.4092
2970.00,2.4277
2969.00,2.4475
2968.00,2.4692
2967.00,2.4931
2966.00,2.5195
2965.00,2.5481
2964.00,2.5785
2963.00,2.6102
2962.00,2.6426
2961.00,2.6754
2960.00,2.7087
2959.00,2.7422
2958.00,2.7751
2957.00,2.8066
2956.00,2.8362
2955.00,2.8637
2954.00,2.8899
2953.00,2.9153
2952.00,2.9400
2951.00,2.9633
2950.00,2.9859
2949.00,3.0093
2948.00,3.0356
2947.00,3.0660
2946.00,3.1011
2945.00,3.1391
2944.00,3.1755
2943.00,3.2057
2942.00,3.2285
2941.00,3.2465
2940.00,3.2608
2939.00,3.2699
2938.00,3.2727
2937.00,3.2698
2936.00,3.2611
2935.00,3.2458
2934.00,3.2245
2933.00,3.1988
2932.00,3.1690
2931.00,3.1341
2930.00,3.0938
2929.00,3.0487
2928.00,2.9989
2927.00,2.9454
2926.00,2.8909
2925.00,2.8382
2924.00,2.7882
2923.00,2.7399
2922.00,2.6934
2921.00,2.6490
2920.00,2.6072
2919.00,2.5674
2918.00,2.5298
2917.00,2.4951
2916.00,2.4642
2915.00,2.4380
2914.00,2.4166
2913.00,2.4001
2912.00,2.3881
2911.00,2.3795
2910.00,2.3735
2909.00,2.3696
2908.00,2.3673
2907.00,2.3663
2906.00,2.3656
2905.00,2.3648
2904.00,2.3634
2903.00,2.3618
2902.00,2.3606
2901.00,2.3608
2900.00,2.3623
2899.00,2.3645
2898.00,2.3666
2897.00,2.3683
2896.00,2.3700
2895.00,2.3720
2894.00,2.3748
2893.00,2.3782
2892.00,2.3818
2891.00,2.3853
2890.00,2.3889
2889.00,2.3933
2888.00,2.3982
2887.00,2.4031
2886.00,2.4079
2885.00,2.4134
2884.00,2.4201
2883.00,2.4278
2882.00,2.4362
2881.00,2.4448
2880.00,2.4535
2879.00,2.4624
2878.00,2.4719
2877.00,2.4826
2876.00,2.4949
2875.00,2.5086
2874.00,2.5233
2873.00,2.5394
2872.00,2.5572
2871.00,2.5776
2870.00,2.6006
2869.00,2.6261
2868.00,2.6520
2867.00,2.6760
2866.00,2.6966
2865.00,2.7136
2864.00,2.7264
2863.00,2.7327
2862.00,2.7300
2861.00,2.7177
2860.00,2.6973
2859.00,2.6705
2858.00,2.6390
2857.00,2.6045
2856.00,2.5683
2855.00,2.5321
2854.00,2.4973
2853.00,2.4656
2852.00,2.4382
2851.00,2.4157
2850.00,2.3977
2849.00,2.3836
2848.00,2.3726
2847.00,2.3643
2846.00,2.3585
2845.00,2.3552
2844.00,2.3539
2843.00,2.3537
2842.00,2.3542
2841.00,2.3552
2840.00,2.3567
2839.00,2.3588
2838.00,2.3612
2837.00,2.3640
2836.00,2.3667
2835.00,2.3689
2834.00,2.3702
2833.00,2.3712
2832.00,2.3723
2831.00,2.3735
2830.00,2.3743
2829.00,2.3748
2828.00,2.3745
2827.00,2.3734
2826.00,2.3716
2825.00,2.3697
2824.00,2.3684
2823.00,2.3676
2822.00,2.3670
2821.00,2.3663
2820.00,2.3653
2819.00,2.3640
2818.00,2.3624
2817.00,2.3605
2816.00,2.3583
2815.00,2.3556
2814.00,2.3523
2813.00,2.3490
2812.00,2.3462
2811.00,2.3438
2810.00,2.3416
2809.00,2.3389
2808.00,2.3357
2807.00,2.3319
2806.00,2.3279
2805.00,2.3241
2804.00,2.3210
2803.00,2.3182
2802.00,2.3150
2801.00,2.3112
2800.00,2.3070
2799.00,2.3028
2798.00,2.2988
2797.00,2.2948
2796.00,2.2906
2795.00,2.2863
2794.00,2.2820
2793.00,2.2779
2792.00,2.2734
2791.00,2.2681
2790.00,2.2624
2789.00,2.2567
2788.00,2.2514
2787.00,2.2459
2786.00,2.2399
2785.00,2.2333
2784.00,2.2262
2783.00,2.2192
2782.00,2.2124
2781.00,2.2060
2780.00,2.1998
2779.00,2.1933
2778.00,2.1866
2777.00,2.1796
2776.00,2.1724
2775.00,2.1648
2774.00,2.1568
2773.00,2.1485
2772.00,2.1400
2771.00,2.1315
2770.00,2.1230
2769.00,2.1146
2768.00,2.1060
2767.00,2.0973
2766.00,2.0883
2765.00,2.0793
2764.00,2.0704
2763.00,2.0615
2762.00,2.0524
2761.00,2.0430
2760.00,2.0332
2759.00,2.0229
2758.00,2.0124
2757.00,2.0015
2756.00,1.9902
2755.00,1.9784
2754.00,1.9662
2753.00,1.9538
2752.00,1.9412
2751.00,1.9286
2750.00,1.9158
2749.00,1.9028
2748.00,1.8895
2747.00,1.8756
2746.00,1.8613
2745.00,1.8468
2744.00,1.8322
2743.00,1.8174
2742.00,1.8023
2741.00,1.7870
2740.00,1.7712
2739.00,1.7550
2738.00,1.7384
2737.00,1.7216
2736.00,1.7046
2735.00,1.6873
2734.00,1.6696
2733.00,1.6515
2732.00,1.6331
2731.00,1.6143
2730.00,1.5952
2729.00,1.5756
2728.00,1.5555
2727.00,1.5349
2726.00,1.5138
2725.00,1.4924
2724.00,1.4707
2723.00,1.4485
2722.00,1.4261
2721.00,1.4034
2720.00,1.3807
2719.00,1.3579
2718.00,1.3351
2717.00,1.3125
2716.00,1.2901
2715.00,1.2678
2714.00,1.2458
2713.00,1.2241
2712.00,1.2028
2711.00,1.1821
2710.00,1.1622
2709.00,1.1432
2708.00,1.1253
2707.00,1.1087
2706.00,1.0934
2705.00,1.0797
2704.00,1.0677
2703.00,1.0575
2702.00,1.0492
2701.00,1.0428
2700.00,1.0384
2699.00,1.0360
2698.00,1.0356
2697.00,1.0371
2696.00,1.0405
2695.00,1.0459
2694.00,1.0530
2693.00,1.0619
2692.00,1.0724
2691.00,1.0846
2690.00,1.0983
2689.00,1.1135
2688.00,1.1303
2687.00,1.1485
2686.00,1.1681
2685.00,1.1888
2684.00,1.2105
2683.00,1.2329
2682.00,1.2558
2681.00,1.2788
2680.00,1.3015
2679.00,1.3236
2678.00,1.3448
2677.00,1.3647
2676.00,1.3833
2675.00,1.4007
2674.00,1.4171
2673.00,1.4328
2672.00,1.4480
2671.00,1.4627
2670.00,1.4768
2669.00,1.4903
2668.00,1.5031
2667.00,1.5154
2666.00,1.5274
2665.00,1.5395
2664.00,1.5523
2663.00,1.5660
2662.00,1.5806
2661.00,1.5962
2660.00,1.6128
2659.00,1.6302
2658.00,1.6480
2657.00,1.6659
2656.00,1.6838
2655.00,1.7015
2654.00,1.7189
2653.00,1.7361
2652.00,1.7529
2651.00,1.7693
2650.00,1.7853
2649.00,1.8008
2648.00,1.8161
2647.00,1.8310
2646.00,1.8454
2645.00,1.8594
2644.00,1.8730
2643.00,1.8865
2642.00,1.9001
2641.00,1.9138
2640.00,1.9275
2639.00,1.9413
2638.00,1.9551
2637.00,1.9686
2636.00,1.9819
2635.00,1.9948
2634.00,2.0076
2633.00,2.0204
2632.00,2.0332
2631.00,2.0461
2630.00,2.0588
2629.00,2.0712
2628.00,2.0830
2627.00,2.0943
2626.00,2.1049
2625.00,2.1153
2624.00,2.1257
2623.00,2.1360
2622.00,2.1460
2621.00,2.1557
2620.00,2.1651
2619.00,2.1741
2618.00,2.1830
2617.00,2.1918
2616.00,2.2006
2615.00,2.2092
2614.00,2.2175
2613.00,2.2259
2612.00,2.2342
2611.00,2.2422
2610.00,2.2496
2609.00,2.2565
2608.00,2.2635
2607.00,2.2707
2606.00,2.2781
2605.00,2.2853
2604.00,2.2925
2603.00,2.2995
2602.00,2.3068
2601.00,2.3142
2600.00,2.3214
2599.00,2.3280
2598.00,2.3336
2597.00,2.3385
2596.00,2.3432
2595.00,2.3483
2594.00,2.3540
2593.00,2.3602
2592.00,2.3665
2591.00,2.3725
2590.00,2.3782
2589.00,2.3837
2588.00,2.3893
2587.00,2.3948
2586.00,2.3999
2585.00,2.4047
2584.00,2.4096
2583.00,2.4148
2582.00,2.4202
2581.00,2.4256
2580.00,2.4310
2579.00,2.4362
2578.00,2.4410
2577.00,2.4453
2576.00,2.4488
2575.00,2.4515
2574.00,2.4541
2573.00,2.4572
2572.00,2.4609
2571.00,2.4649
2570.00,2.4690
2569.00,2.4733
2568.00,2.4776
2567.00,2.4814
2566.00,2.4844
2565.00,2.4867
2564.00,2.4884
2563.00,2.4894
2562.00,2.4900
2561.00,2.4911
2560.00,2.4934
2559.00,2.4963
2558.00,2.4991
2557.00,2.5014
2556.00,2.5037
2555.00,2.5062
2554.00,2.5091
2553.00,2.5118
2552.00,2.5144
2551.00,2.5169
2550.00,2.5195
2549.00,2.5224
2548.00,2.5251
2547.00,2.5274
2546.00,2.5290
2545.00,2.5300
2544.00,2.5307
2543.00,2.5311
2542.00,2.5317
2541.00,2.5332
2540.00,2.5360
2539.00,2.5391
2538.00,2.5414
2537.00,2.5423
2536.00,2.5421
2535.00,2.5412
2534.00,2.5401
2533.00,2.5391
2532.00,2.5388
2531.00,2.5395
2530.00,2.5407
2529.00,2.5419
2528.00,2.5428
2527.00,2.5433
2526.00,2.5438
2525.00,2.5442
2524.00,2.5442
2523.00,2.5439
2522.00,2.5436
2521.00,2.5434
2520.00,2.5431
2519.00,2.5424
2518.00,2.5414
2517.00,2.5406
2516.00,2.5400
2515.00,2.5397
2514.00,2.5396
2513.00,2.5395
2512.00,2.5386
2511.00,2.5368
2510.00,2.5346
2509.00,2.5328
2508.00,2.5318
2507.00,2.5308
2506.00,2.5291
2505.00,2.5266
2504.00,2.5239
2503.00,2.5214
2502.00,2.5195
2501.00,2.5180
2500.00,2.5167
2499.00,2.5154
2498.00,2.5139
2497.00,2.5122
2496.00,2.5103
2495.00,2.5083
2494.00,2.5062
2493.00,2.5035
2492.00,2.4999
2491.00,2.4953
2490.00,2.4907
2489.00,2.4871
2488.00,2.4845
2487.00,2.4819
2486.00,2.4787
2485.00,2.4755
2484.00,2.4728
2483.00,2.4708
2482.00,2.4683
2481.00,2.4646
2480.00,2.4598
2479.00,2.4546
2478.00,2.4495
2477.00,2.4448
2476.00,2.4404
2475.00,2.4366
2474.00,2.4330
2473.00,2.4293
2472.00,2.4247
2471.00,2.4192
2470.00,2.4137
2469.00,2.4089
2468.00,2.4047
2467.00,2.4003
2466.00,2.3952
2465.00,2.3895
2464.00,2.3834
2463.00,2.3772
2462.00,2.3710
2461.00,2.3650
2460.00,2.3590
2459.00,2.3528
2458.00,2.3465
2457.00,2.3401
2456.00,2.3337
2455.00,2.3272
2454.00,2.3204
2453.00,2.3134
2452.00,2.3063
2451.00,2.2990
2450.00,2.2914
2449.00,2.2833
2448.00,2.2749
2447.00,2.2663
2446.00,2.2576
2445.00,2.2493
2444.00,2.2411
2443.00,2.2329
2442.00,2.2243
2441.00,2.2154
2440.00,2.2062
2439.00,2.1971
2438.00,2.1879
2437.00,2.1785
2436.00,2.1689
2435.00,2.1587
2434.00,2.1479
2433.00,2.1366
2432.00,2.1253
2431.00,2.1140
2430.00,2.1027
2429.00,2.0911
2428.00,2.0792
2427.00,2.0670
2426.00,2.0547
2425.00,2.0424
2424.00,2.0299
2423.00,2.0170
2422.00,2.0037
2421.00,1.9900
2420.00,1.9762
2419.00,1.9622
2418.00,1.9480
2417.00,1.9336
2416.00,1.9186
2415.00,1.9031
2414.00,1.8869
2413.00,1.8700
2412.00,1.8527
2411.00,1.8350
2410.00,1.8171
2409.00,1.7990
2408.00,1.7806
2407.00,1.7616
2406.00,1.7419
2405.00,1.7217
2404.00,1.7010
2403.00,1.6798
2402.00,1.6581
2401.00,1.6360
2400.00,1.6135
2399.00,1.5908
2398.00,1.5678
2397.00,1.5446
2396.00,1.5210
2395.00,1.4972
2394.00,1.4732
2393.00,1.4491
2392.00,1.4252
2391.00,1.4016
2390.00,1.3785
2389.00,1.3563
2388.00,1.3356
2387.00,1.3168
2386.00,1.3006
2385.00,1.2877
2384.00,1.2788
2383.00,1.2744
2382.00,1.2749
2381.00,1.2803
2380.00,1.2901
2379.00,1.3034
2378.00,1.3190
2377.00,1.3354
2376.00,1.3509
2375.00,1.3643
2374.00,1.3751
2373.00,1.3831
2372.00,1.3891
2371.00,1.3938
2370.00,1.3984
2369.00,1.4035
2368.00,1.4097
2367.00,1.4172
2366.00,1.4259
2365.00,1.4357
2364.00,1.4466
2363.00,1.4584
2362.00,1.4708
2361.00,1.4838
2360.00,1.4978
2359.00,1.5132
2358.00,1.5294
2357.00,1.5450
2356.00,1.5596
2355.00,1.5733
2354.00,1.5870
2353.00,1.6011
2352.00,1.6166
2351.00,1.6346
2350.00,1.6546
2349.00,1.6743
2348.00,1.6912
2347.00,1.7058
2346.00,1.7207
2345.00,1.7386
2344.00,1.7599
2343.00,1.7824
2342.00,1.8036
2341.00,1.8232
2340.00,1.8426
2339.00,1.8628
2338.00,1.8836
2337.00,1.9049
2336.00,1.9272
2335.00,1.9511
2334.00,1.9767
2333.00,2.0045
2332.00,2.0351
2331.00,2.0679
2330.00,2.1009
2329.00,2.1316
2328.00,2.1579
2327.00,2.1798
2326.00,2.1992
2325.00,2.2190
2324.00,2.2413
2323.00,2.2664
2322.00,2.2920
2321.00,2.3154
2320.00,2.3348
2319.00,2.3501
2318.00,2.3619
2317.00,2.3711
2316.00,2.3789
2315.00,2.3869
2314.00,2.3964
2313.00,2.4077
2312.00,2.4195
2311.00,2.4302
2310.00,2.4384
2309.00,2.4441
2308.00,2.4475
2307.00,2.4495
2306.00,2.4505
2305.00,2.4506
2304.00,2.4496
2303.00,2.4479
2302.00,2.4460
2301.00,2.4448
2300.00,2.4446
2299.00,2.4455
2298.00,2.4467
2297.00,2.4481
2296.00,2.4494
2295.00,2.4509
2294.00,2.4527
2293.00,2.4547
2292.00,2.4569
2291.00,2.4594
2290.00,2.4625
2289.00,2.4662
2288.00,2.4705
2287.00,2.4752
2286.00,2.4800
2285.00,2.4850
2284.00,2.4901
2283.00,2.4954
2282.00,2.5008
2281.00,2.5059
2280.00,2.5110
2279.00,2.5165
2278.00,2.5229
2277.00,2.5301
2276.00,2.5371
2275.00,2.5434
2274.00,2.5492
2273.00,2.5553
2272.00,2.5619
2271.00,2.5685
2270.00,2.5745
2269.00,2.5797
2268.00,2.5845
2267.00,2.5893
2266.00,2.5943
2265.00,2.5993
2264.00,2.6044
2263.00,2.6097
2262.00,2.6157
2261.00,2.6222
2260.00,2.6284
2259.00,2.6339
2258.00,2.6388
2257.00,2.6436
2256.00,2.6487
2255.00,2.6539
2254.00,2.6591
2253.00,2.6637
2252.00,2.6675
2251.00,2.6706
2250.00,2.6743
2249.00,2.6792
2248.00,2.6846
2247.00,2.6891
2246.00,2.6921
2245.00,2.6942
2244.00,2.6964
2243.00,2.6990
2242.00,2.7018
2241.00,2.7044
2240.00,2.7073
2239.00,2.7105
2238.00,2.7141
2237.00,2.7178
2236.00,2.7217
2235.00,2.7253
2234.00,2.7285
2233.00,2.7309
2232.00,2.7323
2231.00,2.7332
2230.00,2.7339
2229.00,2.7352
2228.00,2.7370
2227.00,2.7391
2226.00,2.7413
2225.00,2.7439
2224.00,2.7468
2223.00,2.7495
2222.00,2.7517
2221.00,2.7535
2220.00,2.7555
2219.00,2.7579
2218.00,2.7599
2217.00,2.7611
2216.00,2.7617
2215.00,2.7624
2214.00,2.7631
2213.00,2.7635
2212.00,2.7637
2211.00,2.7640
2210.00,2.7650
2209.00,2.7666
2208.00,2.7685
2207.00,2.7705
2206.00,2.7719
2205.00,2.7728
2204.00,2.7736
2203.00,2.7746
2202.00,2.7755
2201.00,2.7754
2200.00,2.7740
2199.00,2.7723
2198.00,2.7710
2197.00,2.7708
2196.00,2.7711
2195.00,2.7719
2194.00,2.7728
2193.00,2.7740
2192.00,2.7750
2191.00,2.7758
2190.00,2.7757
2189.00,2.7745
2188.00,2.7724
2187.00,2.7704
2186.00,2.7694
2185.00,2.7694
2184.00,2.7695
2183.00,2.7688
2182.00,2.7670
2181.00,2.7640
2180.00,2.7604
2179.00,2.7573
2178.00,2.7557
2177.00,2.7555
2176.00,2.7558
2175.00,2.7563
2174.00,2.7565
2173.00,2.7560
2172.00,2.7544
2171.00,2.7523
2170.00,2.7509
2169.00,2.7501
2168.00,2.7483
2167.00,2.7447
2166.00,2.7403
2165.00,2.7367
2164.00,2.7343
2163.00,2.7321
2162.00,2.7295
2161.00,2.7265
2160.00,2.7236
2159.00,2.7208
2158.00,2.7177
2157.00,2.7140
2156.00,2.7098
2155.00,2.7054
2154.00,2.7016
2153.00,2.6985
2152.00,2.6955
2151.00,2.6916
2150.00,2.6873
2149.00,2.6836
2148.00,2.6810
2147.00,2.6785
2146.00,2.6750
2145.00,2.6697
2144.00,2.6634
2143.00,2.6574
2142.00,2.6522
2141.00,2.6479
2140.00,2.6436
2139.00,2.6390
2138.00,2.6340
2137.00,2.6286
2136.00,2.6229
2135.00,2.6168
2134.00,2.6104
2133.00,2.6042
2132.00,2.5981
2131.00,2.5923
2130.00,2.5864
2129.00,2.5801
2128.00,2.5735
2127.00,2.5669
2126.00,2.5607
2125.00,2.5544
2124.00,2.5475
2123.00,2.5398
2122.00,2.5318
2121.00,2.5243
2120.00,2.5171
2119.00,2.5099
2118.00,2.5022
2117.00,2.4937
2116.00,2.4845
2115.00,2.4745
2114.00,2.4642
2113.00,2.4543
2112.00,2.4450
2111.00,2.4360
2110.00,2.4273
2109.00,2.4186
2108.00,2.4094
2107.00,2.3994
2106.00,2.3885
2105.00,2.3773
2104.00,2.3659
2103.00,2.3543
2102.00,2.3426
2101.00,2.3309
2100.00,2.3194
2099.00,2.3080
2098.00,2.2964
2097.00,2.2844
2096.00,2.2719
2095.00,2.2591
2094.00,2.2461
2093.00,2.2327
2092.00,2.2187
2091.00,2.2040
2090.00,2.1886
2089.00,2.1730
2088.00,2.1572
2087.00,2.1414
2086.00,2.1251
2085.00,2.1083
2084.00,2.0908
2083.00,2.0726
2082.00,2.0538
2081.00,2.0346
2080.00,2.0148
2079.00,1.9945
2078.00,1.9738
2077.00,1.9528
2076.00,1.9313
2075.00,1.9093
2074.00,1.8868
2073.00,1.8639
2072.00,1.8410
2071.00,1.8181
2070.00,1.7952
2069.00,1.7725
2068.00,1.7500
2067.00,1.7278
2066.00,1.7057
2065.00,1.6836
2064.00,1.6615
2063.00,1.6395
2062.00,1.6174
2061.00,1.5950
2060.00,1.5719
2059.00,1.5478
2058.00,1.5227
2057.00,1.4969
2056.00,1.4709
2055.00,1.4451
2054.00,1.4198
2053.00,1.3955
2052.00,1.3726
2051.00,1.3516
2050.00,1.3329
2049.00,1.3168
2048.00,1.3036
2047.00,1.2935
2046.00,1.2865
2045.00,1.2826
2044.00,1.2820
2043.00,1.2844
2042.00,1.2898
2041.00,1.2979
2040.00,1.3086
2039.00,1.3218
2038.00,1.3373
2037.00,1.3550
2036.00,1.3745
2035.00,1.3953
2034.00,1.4172
2033.00,1.4399
2032.00,1.4634
2031.00,1.4876
2030.00,1.5125
2029.00,1.5380
2028.00,1.5640
2027.00,1.5903
2026.00,1.6168
2025.00,1.6435
2024.00,1.6702
2023.00,1.6969
2022.00,1.7233
2021.00,1.7496
2020.00,1.7757
2019.00,1.8015
2018.00,1.8268
2017.00,1.8516
2016.00,1.8761
2015.00,1.9003
2014.00,1.9245
2013.00,1.9485
2012.00,1.9723
2011.00,1.9954
2010.00,2.0179
2009.00,2.0399
2008.00,2.0617
2007.00,2.0830
2006.00,2.1038
2005.00,2.1241
2004.00,2.1440
2003.00,2.1636
2002.00,2.1829
2001.00,2.2019
2000.00,2.2204
1999.00,2.2383
1998.00,2.2556
1997.00,2.2727
1996.00,2.2895
1995.00,2.3061
1994.00,2.3223
1993.00,2.3382
1992.00,2.3540
1991.00,2.3693
1990.00,2.3844
1989.00,2.3994
1988.00,2.4145
1987.00,2.4293
1986.00,2.4436
1985.00,2.4576
1984.00,2.4712
1983.00,2.4846
1982.00,2.4975
1981.00,2.5095
1980.00,2.5206
1979.00,2.5313
1978.00,2.5418
1977.00,2.5524
1976.00,2.5629
1975.00,2.5732
1974.00,2.5834
1973.00,2.5934
1972.00,2.6033
1971.00,2.6128
1970.00,2.6224
1969.00,2.6322
1968.00,2.6420
1967.00,2.6510
1966.00,2.6587
1965.00,2.6658
1964.00,2.6733
1963.00,2.6820
1962.00,2.6913
1961.00,2.7006
1960.00,2.7097
1959.00,2.7189
1958.00,2.7279
1957.00,2.7359
1956.00,2.7429
1955.00,2.7495
1954.00,2.7567
1953.00,2.7643
1952.00,2.7718
1951.00,2.7787
1950.00,2.7850
1949.00,2.7906
1948.00,2.7962
1947.00,2.8025
1946.00,2.8095
1945.00,2.8163
1944.00,2.8225
1943.00,2.8286
1942.00,2.8353
1941.00,2.8425
1940.00,2.8490
1939.00,2.8545
1938.00,2.8595
1937.00,2.8644
1936.00,2.8695
1935.00,2.8749
1934.00,2.8807
1933.00,2.8862
1932.00,2.8912
1931.00,2.8957
1930.00,2.9002
1929.00,2.9048
1928.00,2.9101
1927.00,2.9169
1926.00,2.9249
1925.00,2.9317
1924.00,2.9346
1923.00,2.9340
1922.00,2.9334
1921.00,2.9355
1920.00,2.9403
1919.00,2.9452
1918.00,2.9481
1917.00,2.9491
1916.00,2.9509
1915.00,2.9557
1914.00,2.9631
1913.00,2.9705
1912.00,2.9754
1911.00,2.9777
1910.00,2.9786
1909.00,2.9794
1908.00,2.9810
1907.00,2.9834
1906.00,2.9863
1905.00,2.9893
1904.00,2.9929
1903.00,2.9972
1902.00,3.0008
1901.00,3.0023
1900.00,3.0025
1899.00,3.0034
1898.00,3.0051
1897.00,3.0053
1896.00,3.0034
1895.00,3.0023
1894.00,3.0043
1893.00,3.0085
1892.00,3.0122
1891.00,3.0146
1890.00,3.0166
1889.00,3.0178
1888.00,3.0178
1887.00,3.0176
1886.00,3.0191
1885.00,3.0221
1884.00,3.0247
1883.00,3.0250
1882.00,3.0228
1881.00,3.0186
1880.00,3.0133
1879.00,3.0085
1878.00,3.0056
1877.00,3.0047
1876.00,3.0052
1875.00,3.0066
1874.00,3.0089
1873.00,3.0119
1872.00,3.0159
1871.00,3.0205
1870.00,3.0230
1869.00,3.0202
1868.00,3.0123
1867.00,3.0048
1866.00,3.0026
1865.00,3.0051
1864.00,3.0080
1863.00,3.0081
1862.00,3.0053
1861.00,3.0013
1860.00,2.9979
1859.00,2.9961
1858.00,2.9966
1857.00,2.9989
1856.00,3.0012
1855.00,3.0019
1854.00,3.0002
1853.00,2.9965
1852.00,2.9923
1851.00,2.9894
1850.00,2.9878
1849.00,2.9857
1848.00,2.9813
1847.00,2.9750
1846.00,2.9685
1845.00,2.9620
1844.00,2.9549
1843.00,2.9473
1842.00,2.9413
1841.00,2.9380
1840.00,2.9365
1839.00,2.9340
1838.00,2.9287
1837.00,2.9211
1836.00,2.9139
1835.00,2.9091
1834.00,2.9065
1833.00,2.9043
1832.00,2.9010
1831.00,2.8965
1830.00,2.8912
1829.00,2.8848
1828.00,2.8775
1827.00,2.8697
1826.00,2.8614
1825.00,2.8516
1824.00,2.8401
1823.00,2.8290
1822.00,2.8202
1821.00,2.8131
1820.00,2.8062
1819.00,2.7996
1818.00,2.7931
1817.00,2.7854
1816.00,2.7756
1815.00,2.7647
1814.00,2.7545
1813.00,2.7451
1812.00,2.7357
1811.00,2.7260
1810.00,2.7169
1809.00,2.7089
1808.00,2.7017
1807.00,2.6949
1806.00,2.6873
1805.00,2.6786
1804.00,2.6689
1803.00,2.6581
1802.00,2.6448
1801.00,2.6279
1800.00,2.6094
1799.00,2.5924
1798.00,2.5772
1797.00,2.5611
1796.00,2.5427
1795.00,2.5224
1794.00,2.4999
1793.00,2.4733
1792.00,2.4418
1791.00,2.4077
1790.00,2.3742
1789.00,2.3432
1788.00,2.3149
1787.00,2.2866
1786.00,2.2547
1785.00,2.2172
1784.00,2.1760
1783.00,2.1350
1782.00,2.0960
1781.00,2.0580
1780.00,2.0193
1779.00,1.9804
1778.00,1.9433
1777.00,1.9104
1776.00,1.8836
1775.00,1.8646
1774.00,1.8548
1773.00,1.8555
1772.00,1.8663
1771.00,1.8850
1770.00,1.9076
1769.00,1.9311
1768.00,1.9536
1767.00,1.9728
1766.00,1.9874
1765.00,1.9998
1764.00,2.0133
1763.00,2.0287
1762.00,2.0461
1761.00,2.0674
1760.00,2.0948
1759.00,2.1300
1758.00,2.1728
1757.00,2.2215
1756.00,2.2735
1755.00,2.3272
1754.00,2.3823
1753.00,2.4385
1752.00,2.4936
1751.00,2.5432
1750.00,2.5856
1749.00,2.6243
1748.00,2.6636
1747.00,2.7044
1746.00,2.7462
1745.00,2.7899
1744.00,2.8362
1743.00,2.8834
1742.00,2.9300
1741.00,2.9767
1740.00,3.0235
1739.00,3.0667
1738.00,3.1037
1737.00,3.1383
1736.00,3.1760
1735.00,3.2180
1734.00,3.2617
1733.00,3.3042
1732.00,3.3429
1731.00,3.3773
1730.00,3.4138
1729.00,3.4641
1728.00,3.5383
1727.00,3.6400
1726.00,3.7698
1725.00,3.9357
1724.00,4.1476
1723.00,4.3981
1722.00,4.5880
1721.00,4.6352
1720.00,4.6270
1719.00,4.7388
1718.00,5.1413
1717.00,4.8708
1716.00,4.5699
1715.00,4.5573
1714.00,4.6039
1713.00,4.6403
1712.00,4.6433
1711.00,4.6226
1710.00,4.5817
1709.00,4.5068
1708.00,4.4503
1707.00,4.4359
1706.00,4.4550
1705.00,4.4879
1704.00,4.5599
1703.00,4.5876
1702.00,4.3140
1701.00,3.9795
1700.00,3.7293
1699.00,3.5594
1698.00,3.4557
1697.00,3.3932
1696.00,3.3475
1695.00,3.3064
1694.00,3.2700
1693.00,3.2437
1692.00,3.2286
1691.00,3.2171
1690.00,3.2020
1689.00,3.1827
1688.00,3.1622
1687.00,3.1426
1686.00,3.1231
1685.00,3.1002
1684.00,3.0709
1683.00,3.0358
1682.00,2.9976
1681.00,2.9629
1680.00,2.9389
1679.00,2.9230
1678.00,2.9092
1677.00,2.8940
1676.00,2.8746
1675.00,2.8490
1674.00,2.8190
1673.00,2.7899
1672.00,2.7654
1671.00,2.7428
1670.00,2.7158
1669.00,2.6823
1668.00,2.6444
1667.00,2.6052
1666.00,2.5666
1665.00,2.5267
1664.00,2.4815
1663.00,2.4292
1662.00,2.3719
1661.00,2.3138
1660.00,2.2578
1659.00,2.2051
1658.00,2.1560
1657.00,2.1111
1656.00,2.0710
1655.00,2.0349
1654.00,1.9993
1653.00,1.9623
1652.00,1.9287
1651.00,1.9012
1650.00,1.8854
1649.00,1.8832
1648.00,1.8849
1647.00,1.8863
1646.00,1.8883
1645.00,1.8899
1644.00,1.8933
1643.00,1.9041
1642.00,1.9235
1641.00,1.9477
1640.00,1.9742
1639.00,2.0019
1638.00,2.0314
1637.00,2.0633
1636.00,2.0966
1635.00,2.1274
1634.00,2.1499
1633.00,2.1645
1632.00,2.1793
1631.00,2.1974
1630.00,2.2168
1629.00,2.2370
1628.00,2.2587
1627.00,2.2822
1626.00,2.3071
1625.00,2.3338
1624.00,2.3630
1623.00,2.3941
1622.00,2.4251
1621.00,2.4543
1620.00,2.4819
1619.00,2.5102
1618.00,2.5404
1617.00,2.5721
1616.00,2.6026
1615.00,2.6271
1614.00,2.6445
1613.00,2.6591
1612.00,2.6738
1611.00,2.6876
1610.00,2.6996
1609.00,2.7109
1608.00,2.7224
1607.00,2.7343
1606.00,2.7465
1605.00,2.7596
1604.00,2.7736
1603.00,2.7886
1602.00,2.8051
1601.00,2.8238
1600.00,2.8434
1599.00,2.8618
1598.00,2.8778
1597.00,2.8917
1596.00,2.9036
1595.00,2.9143
1594.00,2.9256
1593.00,2.9391
1592.00,2.9541
1591.00,2.9675
1590.00,2.9780
1589.00,2.9865
1588.00,2.9947
1587.00,3.0037
1586.00,3.0146
1585.00,3.0283
1584.00,3.0429
1583.00,3.0550
1582.00,3.0635
1581.00,3.0697
1580.00,3.0744
1579.00,3.0787
1578.00,3.0849
1577.00,3.0956
1576.00,3.1089
1575.00,3.1181
1574.00,3.1201
1573.00,3.1210
1572.00,3.1280
1571.00,3.1411
1570.00,3.1570
1569.00,3.1709
1568.00,3.1772
1567.00,3.1738
1566.00,3.1674
1565.00,3.1670
1564.00,3.1742
1563.00,3.1839
1562.00,3.1906
1561.00,3.1931
1560.00,3.1946
1559.00,3.1985
1558.00,3.2099
1557.00,3.2205
1556.00,3.2221
1555.00,3.2247
1554.00,3.2278
1553.00,3.2287
1552.00,3.2303
1551.00,3.2339
1550.00,3.2393
1549.00,3.2464
1548.00,3.2553
1547.00,3.2639
1546.00,3.2688
1545.00,3.2696
1544.00,3.2705
1543.00,3.2769
1542.00,3.2888
1541.00,3.3007
1540.00,3.3079
1539.00,3.3101
1538.00,3.3066
1537.00,3.3025
1536.00,3.3041
1535.00,3.3072
1534.00,3.3068
1533.00,3.3052
1532.00,3.3053
1531.00,3.3079
1530.00,3.3129
1529.00,3.3184
1528.00,3.3216
1527.00,3.3231
1526.00,3.3272
1525.00,3.3356
1524.00,3.3434
1523.00,3.3434
1522.00,3.3341
1521.00,3.3215
1520.00,3.3130
1519.00,3.3123
1518.00,3.3209
1517.00,3.3336
1516.00,3.3413
1515.00,3.3395
1514.00,3.3326
1513.00,3.3275
1512.00,3.3256
1511.00,3.3243
1510.00,3.3230
1509.00,3.3214
1508.00,3.3188
1507.00,3.3146
1506.00,3.3124
1505.00,3.3102
1504.00,3.3080
1503.00,3.3116
1502.00,3.3173
1501.00,3.3204
1500.00,3.3222
1499.00,3.3249
1498.00,3.3286
1497.00,3.3300
1496.00,3.3257
1495.00,3.3170
1494.00,3.3094
1493.00,3.3053
1492.00,3.3010
1491.00,3.2938
1490.00,3.2876
1489.00,3.2869
1488.00,3.2896
1487.00,3.2903
1486.00,3.2877
1485.00,3.2849
1484.00,3.2839
1483.00,3.2839
1482.00,3.2831
1481.00,3.2805
1480.00,3.2774
1479.00,3.2772
1478.00,3.2815
1477.00,3.2870
1476.00,3.2868
1475.00,3.2766
1474.00,3.2599
1473.00,3.2431
1472.00,3.2297
1471.00,3.2200
1470.00,3.2145
1469.00,3.2139
1468.00,3.2153
1467.00,3.2148
1466.00,3.2129
1465.00,3.2128
1464.00,3.2142
1463.00,3.2141
1462.00,3.2121
1461.00,3.2101
1460.00,3.2082
1459.00,3.2055
1458.00,3.2024
1457.00,3.2003
1456.00,3.1993
1455.00,3.2034
1454.00,3.2239
1453.00,3.2665
1452.00,3.3244
1451.00,3.3865
1450.00,3.4423
1449.00,3.4860
1448.00,3.5130
1447.00,3.5170
1446.00,3.4980
1445.00,3.4660
1444.00,3.4314
1443.00,3.3984
1442.00,3.3673
1441.00,3.3390
1440.00,3.3152
1439.00,3.2954
1438.00,3.2756
1437.00,3.2516
1436.00,3.2249
1435.00,3.2058
1434.00,3.2044
1433.00,3.2205
1432.00,3.2446
1431.00,3.2676
1430.00,3.2860
1429.00,3.3012
1428.00,3.3148
1427.00,3.3256
1426.00,3.3327
1425.00,3.3376
1424.00,3.3435
1423.00,3.3529
1422.00,3.3646
1421.00,3.3719
1420.00,3.3658
1419.00,3.3444
1418.00,3.3172
1417.00,3.2962
1416.00,3.2849
1415.00,3.2787
1414.00,3.2710
1413.00,3.2571
1412.00,3.2356
1411.00,3.2091
1410.00,3.1825
1409.00,3.1588
1408.00,3.1378
1407.00,3.1181
1406.00,3.0993
1405.00,3.0820
1404.00,3.0659
1403.00,3.0515
1402.00,3.0394
1401.00,3.0283
1400.00,3.0147
1399.00,2.9964
1398.00,2.9754
1397.00,2.9539
1396.00,2.9308
1395.00,2.9043
1394.00,2.8761
1393.00,2.8506
1392.00,2.8304
1391.00,2.8145
1390.00,2.7988
1389.00,2.7781
1388.00,2.7500
1387.00,2.7167
1386.00,2.6844
1385.00,2.6572
1384.00,2.6335
1383.00,2.6090
1382.00,2.5820
1381.00,2.5534
1380.00,2.5244
1379.00,2.4944
1378.00,2.4628
1377.00,2.4297
1376.00,2.3950
1375.00,2.3575
1374.00,2.3166
1373.00,2.2740
1372.00,2.2328
1371.00,2.1955
1370.00,2.1627
1369.00,2.1335
1368.00,2.1084
1367.00,2.0898
1366.00,2.0798
1365.00,2.0782
1364.00,2.0828
1363.00,2.0914
1362.00,2.1036
1361.00,2.1208
1360.00,2.1457
1359.00,2.1809
1358.00,2.2268
1357.00,2.2824
1356.00,2.3468
1355.00,2.4196
1354.00,2.5008
1353.00,2.5895
1352.00,2.6830
1351.00,2.7768
1350.00,2.8646
1349.00,2.9390
1348.00,2.9923
1347.00,3.0174
1346.00,3.0137
1345.00,2.9912
1344.00,2.9664
1343.00,2.9548
1342.00,2.9652
1341.00,2.9985
1340.00,3.0443
1339.00,3.0795
1338.00,3.0752
1337.00,3.0215
1336.00,2.9363
1335.00,2.8449
1334.00,2.7642
1333.00,2.7020
1332.00,2.6606
1331.00,2.6394
1330.00,2.6361
1329.00,2.6478
1328.00,2.6716
1327.00,2.7057
1326.00,2.7488
1325.00,2.7992
1324.00,2.8550
1323.00,2.9138
1322.00,2.9737
1321.00,3.0336
1320.00,3.0926
1319.00,3.1505
1318.00,3.2082
1317.00,3.2666
1316.00,3.3248
1315.00,3.3786
1314.00,3.4247
1313.00,3.4628
1312.00,3.4888
1311.00,3.4861
1310.00,3.4325
1309.00,3.3287
1308.00,3.2024
1307.00,3.0800
1306.00,2.9732
1305.00,2.8833
1304.00,2.8091
1303.00,2.7506
1302.00,2.7088
1301.00,2.6834
1300.00,2.6723
1299.00,2.6727
1298.00,2.6824
1297.00,2.7000
1296.00,2.7241
1295.00,2.7532
1294.00,2.7854
1293.00,2.8193
1292.00,2.8538
1291.00,2.8880
1290.00,2.9205
1289.00,2.9505
1288.00,2.9788
1287.00,3.0077
1286.00,3.0386
1285.00,3.0710
1284.00,3.1033
1283.00,3.1346
1282.00,3.1637
1281.00,3.1877
1280.00,3.2047
1279.00,3.2173
1278.00,3.2310
1277.00,3.2483
1276.00,3.2658
1275.00,3.2782
1274.00,3.2851
1273.00,3.2910
1272.00,3.2993
1271.00,3.3112
1270.00,3.3270
1269.00,3.3461
1268.00,3.3646
1267.00,3.3759
1266.00,3.3772
1265.00,3.3721
1264.00,3.3663
1263.00,3.3640
1262.00,3.3683
1261.00,3.3810
1260.00,3.4008
1259.00,3.4225
1258.00,3.4407
1257.00,3.4544
1256.00,3.4671
1255.00,3.4817
1254.00,3.4968
1253.00,3.5085
1252.00,3.5157
1251.00,3.5227
1250.00,3.5345
1249.00,3.5504
1248.00,3.5647
1247.00,3.5740
1246.00,3.5817
1245.00,3.5907
1244.00,3.5971
1243.00,3.5975
1242.00,3.5981
1241.00,3.6074
1240.00,3.6228
1239.00,3.6299
1238.00,3.6203
1237.00,3.6060
1236.00,3.6041
1235.00,3.6185
1234.00,3.6414
1233.00,3.6652
1232.00,3.6901
1231.00,3.7201
1230.00,3.7528
1229.00,3.7801
1228.00,3.7985
1227.00,3.8129
1226.00,3.8305
1225.00,3.8575
1224.00,3.8983
1223.00,3.9493
1222.00,3.9877
1221.00,3.9805
1220.00,3.9216
1219.00,3.8384
1218.00,3.7595
1217.00,3.6929
1216.00,3.6401
1215.00,3.6069
1214.00,3.5954
1213.00,3.5982
1212.00,3.6056
1211.00,3.6158
1210.00,3.6330
1209.00,3.6563
1208.00,3.6789
1207.00,3.6996
1206.00,3.7226
1205.00,3.7424
1204.00,3.7416
1203.00,3.7162
1202.00,3.6884
1201.00,3.6726
1200.00,3.6641
1199.00,3.6600
1198.00,3.6610
1197.00,3.6682
1196.00,3.6883
1195.00,3.7255
1194.00,3.7727
1193.00,3.8130
1192.00,3.8313
1191.00,3.8251
1190.00,3.8040
1189.00,3.7819
1188.00,3.7719
1187.00,3.7814
1186.00,3.8046
1185.00,3.8260
1184.00,3.8306
1183.00,3.8113
1182.00,3.7834
1181.00,3.7682
1180.00,3.7695
1179.00,3.7806
1178.00,3.8049
1177.00,3.8475
1176.00,3.8922
1175.00,3.9165
1174.00,3.9201
1173.00,3.9104
1172.00,3.8793
1171.00,3.8164
1170.00,3.7385
1169.00,3.6828
1168.00,3.6691
1167.00,3.6927
1166.00,3.7347
1165.00,3.7716
1164.00,3.7893
1163.00,3.7949
1162.00,3.8021
1161.00,3.8120
1160.00,3.8108
1159.00,3.7882
1158.00,3.7560
1157.00,3.7388
1156.00,3.7490
1155.00,3.7782
1154.00,3.8052
1153.00,3.8162
1152.00,3.8204
1151.00,3.8372
1150.00,3.8679
1149.00,3.8844
1148.00,3.8601
1147.00,3.8110
1146.00,3.7782
1145.00,3.7868
1144.00,3.8304
1143.00,3.8892
1142.00,3.9439
1141.00,3.9630
1140.00,3.9461
1139.00,3.9119
1138.00,3.8683
1137.00,3.8160
1136.00,3.7610
1135.00,3.7313
1134.00,3.7465
1133.00,3.7951
1132.00,3.8412
1131.00,3.8620
1130.00,3.8556
1129.00,3.8278
1128.00,3.8011
1127.00,3.7945
1126.00,3.8104
1125.00,3.8344
1124.00,3.8452
1123.00,3.8367
1122.00,3.8275
1121.00,3.8387
1120.00,3.8751
1119.00,3.9276
1118.00,3.9859
1117.00,4.0402
1116.00,4.0792
1115.00,4.1115
1114.00,4.1572
1113.00,4.1724
1112.00,4.0941
1111.00,4.0170
1110.00,4.0128
1109.00,4.0768
1108.00,4.1431
1107.00,4.1557
1106.00,4.1548
1105.00,4.1389
1104.00,4.0741
1103.00,4.0038
1102.00,3.9753
1101.00,4.0000
1100.00,4.0723
1099.00,4.1538
1098.00,4.1867
1097.00,4.1312
1096.00,4.0287
1095.00,3.9605
1094.00,3.9520
1093.00,3.9950
1092.00,4.0533
1091.00,4.0536
1090.00,3.9782
1089.00,3.8990
1088.00,3.8621
1087.00,3.8769
1086.00,3.9192
1085.00,3.9169
1084.00,3.8467
1083.00,3.7812
1082.00,3.7583
1081.00,3.7710
1080.00,3.7967
1079.00,3.8126
1078.00,3.8009
1077.00,3.7563
1076.00,3.7088
1075.00,3.6931
1074.00,3.7144
1073.00,3.7512
1072.00,3.7746
1071.00,3.7759
1070.00,3.7644
1069.00,3.7470
1068.00,3.7295
1067.00,3.7196
1066.00,3.7183
1065.00,3.7123
1064.00,3.6829
1063.00,3.6344
1062.00,3.5956
1061.00,3.5876
1060.00,3.6073
1059.00,3.6383
1058.00,3.6696
1057.00,3.6994
1056.00,3.7258
1055.00,3.7403
1054.00,3.7311
1053.00,3.7120
1052.00,3.7155
1051.00,3.7568
1050.00,3.8087
1049.00,3.8103
1048.00,3.7522
1047.00,3.6872
1046.00,3.6471
1045.00,3.6197
1044.00,3.5830
1043.00,3.5409
1042.00,3.5126
1041.00,3.5055
1040.00,3.5107
1039.00,3.5097
1038.00,3.4892
1037.00,3.4531
1036.00,3.4147
1035.00,3.3856
1034.00,3.3691
1033.00,3.3546
1032.00,3.3282
1031.00,3.2902
1030.00,3.2544
1029.00,3.2298
1028.00,3.2153
1027.00,3.2065
1026.00,3.2017
1025.00,3.2029
1024.00,3.2126
1023.00,3.2318
1022.00,3.2623
1021.00,3.3061
1020.00,3.3623
1019.00,3.4241
1018.00,3.4765
1017.00,3.5032
1016.00,3.4984
1015.00,3.4682
1014.00,3.4257
1013.00,3.3796
1012.00,3.3290
1011.00,3.2723
1010.00,3.2147
1009.00,3.1643
1008.00,3.1254
1007.00,3.0992
1006.00,3.0832
1005.00,3.0719
1004.00,3.0590
1003.00,3.0440
1002.00,3.0336
1001.00,3.0340
1000.00,3.0449
999.00,3.0621
998.00,3.0866
997.00,3.1263
996.00,3.1857
995.00,3.2558
994.00,3.3181
993.00,3.3650
992.00,3.4066
991.00,3.4468
990.00,3.4674
989.00,3.4548
988.00,3.4250
987.00,3.4062
986.00,3.4155
985.00,3.4514
984.00,3.4986
983.00,3.5375
982.00,3.5610
981.00,3.5796
980.00,3.6080
979.00,3.6479
978.00,3.6856
977.00,3.7061
976.00,3.7120
975.00,3.7198
974.00,3.7395
973.00,3.7719
972.00,3.8132
971.00,3.8565
970.00,3.8963
969.00,3.9334
968.00,3.9731
967.00,4.0237
966.00,4.0889
965.00,4.1468
964.00,4.1792
963.00,4.2083
962.00,4.2019
961.00,4.1394
960.00,4.1279
959.00,4.1992
958.00,4.2511
957.00,4.2350
956.00,4.2179
955.00,4.2702
954.00,4.4904
953.00,4.7108
952.00,4.5614
951.00,4.6916
950.00,4.9851
949.00,4.4184
948.00,4.1820
947.00,4.1055
946.00,4.1194
945.00,4.1690
944.00,4.2136
943.00,4.2732
942.00,4.3653
941.00,4.4548
940.00,4.4086
939.00,4.2940
938.00,4.2868
937.00,4.3907
936.00,4.4209
935.00,4.3279
934.00,4.2899
933.00,4.3186
932.00,4.3406
931.00,4.3017
930.00,4.2757
929.00,4.2986
928.00,4.3152
927.00,4.3164
926.00,4.3433
925.00,4.3783
924.00,4.4365
923.00,4.6236
922.00,5.0880
921.00,5.1500
920.00,4.5411
919.00,4.2440
918.00,4.1480
917.00,4.2158
916.00,4.4549
915.00,4.9308
914.00,5.7941
913.00,5.3185
912.00,5.0039
911.00,4.8389
910.00,4.6875
909.00,4.5824
908.00,4.5598
907.00,4.6426
906.00,4.7071
905.00,4.4748
904.00,4.2663
903.00,4.1799
902.00,4.2068
901.00,4.3340
900.00,4.5082
899.00,4.7167
898.00,4.8936
897.00,4.7177
896.00,4.7410
895.00,4.8351
894.00,4.5969
893.00,4.3993
892.00,4.3229
891.00,4.3808
890.00,4.4994
889.00,4.3976
888.00,4.2440
887.00,4.2191
886.00,4.4004
885.00,5.1150
884.00,4.5466
883.00,4.2921
882.00,4.2542
881.00,4.3939
880.00,4.8206
879.00,4.7267
878.00,4.5455
877.00,4.4359
876.00,4.2567
875.00,4.1220
874.00,4.0851
873.00,4.1590
872.00,4.3075
871.00,4.4401
870.00,4.4456
869.00,4.3282
868.00,4.1892
867.00,4.0526
866.00,3.9674
865.00,3.9587
864.00,4.0268
863.00,4.1972
862.00,4.3887
861.00,4.2473
860.00,4.1228
859.00,4.0973
858.00,4.0769
857.00,4.0791
856.00,4.1627
855.00,4.4117
854.00,4.9922
853.00,4.7086
852.00,4.5364
851.00,4.5998
850.00,4.6255
849.00,4.5713
848.00,4.5447
847.00,4.5220
846.00,4.4078
845.00,4.2829
844.00,4.2515
843.00,4.3628
842.00,4.5525
841.00,4.4702
840.00,4.3643
839.00,4.3839
838.00,4.4736
837.00,4.5170
836.00,4.4123
835.00,4.2763
834.00,4.1999
833.00,4.1981
832.00,4.3217
831.00,4.5590
830.00,4.4694
829.00,4.3411
828.00,4.3447
827.00,4.4134
826.00,4.5507
825.00,4.6119
824.00,4.3220
823.00,4.1235
822.00,4.0865
821.00,4.0860
820.00,4.0478
819.00,4.0485
818.00,4.1195
817.00,4.2320
816.00,4.3669
815.00,4.5082
814.00,4.5188
813.00,4.3853
812.00,4.2830
811.00,4.2304
810.00,4.2035
809.00,4.2182
808.00,4.2902
807.00,4.4773
806.00,4.6536
805.00,4.3411
804.00,4.1138
803.00,4.0098
802.00,3.9866
801.00,4.0409
800.00,4.1371
799.00,4.1823
798.00,4.1432
797.00,4.1160
796.00,4.1508
795.00,4.2181
794.00,4.2505
793.00,4.2410
792.00,4.2691
791.00,4.3134
790.00,4.2284
789.00,4.1383
788.00,4.1360
787.00,4.1919
786.00,4.2261
785.00,4.1433
784.00,4.0909
783.00,4.1482
782.00,4.4322
781.00,4.9503
780.00,4.3890
779.00,4.2578
778.00,4.3090
777.00,4.3657
776.00,4.3323
775.00,4.2510
774.00,4.2661
773.00,4.3434
772.00,4.3705
771.00,4.3399
770.00,4.3172
769.00,4.2486
768.00,4.1090
767.00,4.0056
766.00,4.0379
765.00,4.2225
764.00,4.6177
763.00,5.1120
762.00,4.4993
761.00,4.2038
760.00,4.0628
759.00,4.0047
758.00,4.0149
757.00,4.0591
756.00,4.2230
755.00,4.6473
754.00,4.4992
753.00,4.2254
752.00,4.2424
751.00,4.4337
750.00,4.7524
749.00,5.0764
748.00,5.5008
747.00,5.3900
746.00,5.2536
745.00,5.5288
744.00,4.5919
743.00,4.3159
742.00,4.2796
741.00,4.5162
740.00,5.1232
739.00,4.5925
738.00,4.4574
737.00,4.4699
736.00,4.5254
735.00,4.7411
734.00,4.7667
733.00,4.5813
732.00,4.5191
731.00,4.6656
730.00,4.8655
729.00,4.4584
728.00,4.1774
727.00,4.0781
726.00,4.1050
725.00,4.2777
724.00,4.4291
723.00,4.2427
722.00,4.0791
721.00,4.0396
720.00,4.1608
719.00,4.4732
718.00,4.5504
717.00,4.5661
716.00,4.7118
715.00,4.5935
714.00,4.5347
713.00,4.5123
712.00,4.2937
711.00,4.1304
710.00,4.1001
709.00,4.2170
708.00,4.4492
707.00,4.2986
706.00,4.1010
705.00,4.0668
704.00,4.1924
703.00,4.4901
702.00,4.4013
701.00,4.1401
700.00,4.0142
699.00,3.9927
698.00,4.0912
697.00,4.2752
696.00,4.3250
695.00,4.2804
694.00,4.3145
693.00,4.2634
692.00,4.1368
691.00,4.0720
690.00,4.0337
689.00,4.0162
688.00,4.0643
687.00,4.2686
686.00,4.7779
685.00,4.6462
684.00,4.4079
683.00,4.3959
682.00,4.5543
681.00,4.9099
680.00,4.2621
679.00,3.9074
678.00,3.7639
677.00,3.7194
676.00,3.7476
675.00,3.8335
674.00,3.9790
673.00,4.1650
672.00,4.3619
671.00,4.3616
670.00,4.2150
669.00,4.1659
668.00,4.1494
667.00,4.1088
666.00,4.0824
665.00,4.2167
664.00,4.6753
663.00,4.6708
662.00,4.3786
661.00,4.3099
660.00,4.3159
659.00,4.5019
658.00,4.8564
657.00,4.7655
656.00,4.7639
655.00,5.1646
654.00,4.9422
653.00,4.3764
652.00,4.0953
651.00,4.0502
650.00,4.1661
649.00,4.2148
648.00,4.1464
647.00,4.0921
646.00,4.0348
645.00,3.9468
644.00,3.9087
643.00,3.9438
642.00,4.1937
641.00,4.6819
640.00,4.2428
639.00,4.0775
638.00,4.0871
637.00,4.0776
636.00,4.1337
635.00,4.1958
634.00,4.5051
633.00,4.8184
632.00,4.1114
631.00,3.9066
630.00,3.8735
629.00,3.8496
628.00,3.8199
627.00,3.7820
626.00,3.7774
625.00,3.8168
624.00,3.9405
623.00,4.1566
622.00,4.3878
621.00,4.3698
620.00,4.2233
619.00,4.1548
618.00,4.2669
617.00,4.5264
616.00,4.3771
615.00,4.2219
614.00,4.2535
613.00,4.3369
612.00,4.3665
611.00,4.3011
610.00,4.1642
609.00,4.0027
608.00,3.9009
607.00,3.9125
606.00,4.0530
605.00,4.3217
604.00,4.4764
603.00,4.3404
602.00,4.1547
601.00,4.2506
600.00,4.5108
599.00,4.0828
598.00,3.9365
597.00,4.0116
596.00,4.0443
595.00,4.0204
594.00,3.9983
593.00,4.0037
592.00,3.9895
591.00,3.9215
590.00,3.8874
589.00,3.9672
588.00,4.3239
587.00,4.5303
586.00,4.0692
585.00,3.9728
584.00,4.1173
583.00,4.2965
582.00,4.5291
581.00,4.8560
580.00,4.4218
579.00,4.2219
578.00,4.2096
577.00,4.2116
576.00,3.9899
575.00,3.7247
574.00,3.5990
573.00,3.5694
572.00,3.5976
571.00,3.6146
570.00,3.6148
569.00,3.6569
568.00,3.8254
567.00,4.1319
566.00,4.1179
565.00,3.9151
564.00,3.7992
563.00,3.7689
562.00,3.7826
561.00,3.7442
560.00,3.6829
559.00,3.6611
558.00,3.7051
557.00,3.8015
556.00,3.8535
555.00,3.9707
554.00,4.2546
553.00,4.1851
552.00,4.0585
551.00,4.1105
550.00,4.1619
549.00,4.0390
548.00,3.8652
547.00,3.8354
546.00,3.9224
545.00,3.9110
544.00,3.8053
543.00,3.7705
542.00,3.8273
541.00,3.9257
540.00,3.8797
539.00,3.7547
538.00,3.7227
537.00,3.7566
536.00,3.7802
535.00,3.7683
534.00,3.6966
533.00,3.5895
532.00,3.5188
531.00,3.5169
530.00,3.5777
529.00,3.6473
528.00,3.6349
527.00,3.5491
526.00,3.4742
525.00,3.4335
524.00,3.4347
523.00,3.5096
522.00,3.7042
521.00,3.8824
520.00,3.8911
519.00,3.8231
518.00,3.6007
517.00,3.4453
516.00,3.4187
515.00,3.4905
514.00,3.6342
513.00,3.7649
512.00,3.8273
511.00,3.8052
510.00,3.7016
509.00,3.5604
508.00,3.4199
507.00,3.3241
506.00,3.2929
505.00,3.3224
504.00,3.4032
503.00,3.4689
502.00,3.4809
501.00,3.4794
500.00,3.4485
499.00,3.4146
498.00,3.4256
497.00,3.4797
496.00,3.5863
495.00,3.7882
494.00,3.8609
493.00,3.6933
492.00,3.6296
491.00,3.6139
490.00,3.5998
489.00,3.6012
488.00,3.5011
487.00,3.3550
486.00,3.2722
485.00,3.2798
484.00,3.3786
483.00,3.5797
482.00,3.7517
481.00,3.7324
480.00,3.5409
479.00,3.4128
478.00,3.3454
477.00,3.5508
476.00,3.9200
475.00,3.3451
474.00,3.1991
473.00,3.3034
472.00,3.5153
471.00,3.5960
470.00,3.4277
469.00,3.3611
468.00,3.3843
467.00,3.5291
466.00,3.5843
465.00,3.4844
464.00,3.4327
463.00,3.4247
462.00,3.4387
461.00,3.4032
460.00,3.2954
459.00,3.2049
458.00,3.1815
457.00,3.2483
456.00,3.3823
455.00,3.4674
454.00,3.4487
453.00,3.4299
452.00,3.4268
451.00,3.3479
450.00,3.2328
449.00,3.1715
448.00,3.1631
447.00,3.1828
446.00,3.2503
445.00,3.3277
444.00,3.3479
443.00,3.3521
442.00,3.5291
441.00,3.9498
440.00,3.7437
439.00,3.4836
438.00,3.3552
437.00,3.3934
436.00,3.6797
435.00,4.0166
434.00,4.1412
433.00,3.8570
432.00,3.5660
431.00,3.4549
430.00,3.4178
429.00,3.3552
428.00,3.2213
427.00,3.0687
426.00,2.9972
425.00,2.9896
424.00,2.9976
423.00,2.9989
422.00,3.0847
421.00,3.1780
420.00,3.3693
419.00,4.1659
418.00,3.4147
417.00,3.0999
416.00,3.0618
415.00,3.1372
414.00,3.3718
413.00,3.4707
412.00,3.6171
411.00,3.9249
410.00,3.3431
409.00,3.0737
408.00,2.9594
407.00,2.8846
406.00,2.8887
405.00,2.9885
404.00,3.2755
403.00,3.2857
402.00,3.2109
401.00,3.4122
400.00,3.1527
