Created as New Dataset,Sample 168 By Administrator Date Friday, November 26 2021
cm-1,A
7000.00,0.9083
6999.00,0.9130
6998.00,0.9177
6997.00,0.9223
6996.00,0.9269
6995.00,0.9315
6994.00,0.9362
6993.00,0.9408
6992.00,0.9451
6991.00,0.9492
6990.00,0.9532
6989.00,0.9573
6988.00,0.9616
6987.00,0.9660
6986.00,0.9705
6985.00,0.9750
6984.00,0.9797
6983.00,0.9845
6982.00,0.9893
6981.00,0.9939
6980.00,0.9983
6979.00,1.0027
6978.00,1.0070
6977.00,1.0111
6976.00,1.0152
6975.00,1.0192
6974.00,1.0232
6973.00,1.0271
6972.00,1.0310
6971.00,1.0350
6970.00,1.0391
6969.00,1.0431
6968.00,1.0469
6967.00,1.0506
6966.00,1.0545
6965.00,1.0585
6964.00,1.0624
6963.00,1.0662
6962.00,1.0702
6961.00,1.0744
6960.00,1.0783
6959.00,1.0817
6958.00,1.0847
6957.00,1.0878
6956.00,1.0914
6955.00,1.0955
6954.00,1.0997
6953.00,1.1037
6952.00,1.1074
6951.00,1.1109
6950.00,1.1143
6949.00,1.1175
6948.00,1.1203
6947.00,1.1230
6946.00,1.1258
6945.00,1.1289
6944.00,1.1319
6943.00,1.1348
6942.00,1.1375
6941.00,1.1400
6940.00,1.1425
6939.00,1.1449
6938.00,1.1475
6937.00,1.1500
6936.00,1.1524
6935.00,1.1548
6934.00,1.1572
6933.00,1.1597
6932.00,1.1620
6931.00,1.1644
6930.00,1.1670
6929.00,1.1696
6928.00,1.1720
6927.00,1.1740
6926.00,1.1760
6925.00,1.1781
6924.00,1.1802
6923.00,1.1822
6922.00,1.1840
6921.00,1.1857
6920.00,1.1872
6919.00,1.1885
6918.00,1.1897
6917.00,1.1911
6916.00,1.1928
6915.00,1.1945
6914.00,1.1961
6913.00,1.1977
6912.00,1.1989
6911.00,1.1998
6910.00,1.2003
6909.00,1.2008
6908.00,1.2012
6907.00,1.2017
6906.00,1.2023
6905.00,1.2033
6904.00,1.2047
6903.00,1.2062
6902.00,1.2073
6901.00,1.2078
6900.00,1.2079
6899.00,1.2080
6898.00,1.2082
6897.00,1.2084
6896.00,1.2087
6895.00,1.2090
6894.00,1.2097
6893.00,1.2105
6892.00,1.2110
6891.00,1.2112
6890.00,1.2110
6889.00,1.2108
6888.00,1.2107
6887.00,1.2105
6886.00,1.2101
6885.00,1.2097
6884.00,1.2094
6883.00,1.2091
6882.00,1.2088
6881.00,1.2082
6880.00,1.2075
6879.00,1.2067
6878.00,1.2060
6877.00,1.2053
6876.00,1.2042
6875.00,1.2028
6874.00,1.2014
6873.00,1.2005
6872.00,1.2000
6871.00,1.1993
6870.00,1.1982
6869.00,1.1969
6868.00,1.1960
6867.00,1.1951
6866.00,1.1941
6865.00,1.1925
6864.00,1.1905
6863.00,1.1885
6862.00,1.1866
6861.00,1.1847
6860.00,1.1828
6859.00,1.1809
6858.00,1.1790
6857.00,1.1773
6856.00,1.1758
6855.00,1.1743
6854.00,1.1727
6853.00,1.1709
6852.00,1.1692
6851.00,1.1676
6850.00,1.1658
6849.00,1.1638
6848.00,1.1615
6847.00,1.1592
6846.00,1.1566
6845.00,1.1540
6844.00,1.1513
6843.00,1.1487
6842.00,1.1461
6841.00,1.1433
6840.00,1.1404
6839.00,1.1376
6838.00,1.1349
6837.00,1.1323
6836.00,1.1294
6835.00,1.1265
6834.00,1.1237
6833.00,1.1208
6832.00,1.1176
6831.00,1.1141
6830.00,1.1104
6829.00,1.1066
6828.00,1.1027
6827.00,1.0988
6826.00,1.0952
6825.00,1.0919
6824.00,1.0889
6823.00,1.0859
6822.00,1.0830
6821.00,1.0800
6820.00,1.0770
6819.00,1.0736
6818.00,1.0700
6817.00,1.0664
6816.00,1.0628
6815.00,1.0592
6814.00,1.0555
6813.00,1.0516
6812.00,1.0477
6811.00,1.0437
6810.00,1.0396
6809.00,1.0353
6808.00,1.0310
6807.00,1.0266
6806.00,1.0222
6805.00,1.0177
6804.00,1.0129
6803.00,1.0081
6802.00,1.0034
6801.00,0.9988
6800.00,0.9943
6799.00,0.9896
6798.00,0.9850
6797.00,0.9803
6796.00,0.9756
6795.00,0.9707
6794.00,0.9656
6793.00,0.9603
6792.00,0.9550
6791.00,0.9496
6790.00,0.9442
6789.00,0.9387
6788.00,0.9332
6787.00,0.9280
6786.00,0.9230
6785.00,0.9180
6784.00,0.9129
6783.00,0.9076
6782.00,0.9021
6781.00,0.8967
6780.00,0.8911
6779.00,0.8855
6778.00,0.8799
6777.00,0.8744
6776.00,0.8690
6775.00,0.8637
6774.00,0.8585
6773.00,0.8532
6772.00,0.8479
6771.00,0.8426
6770.00,0.8373
6769.00,0.8321
6768.00,0.8270
6767.00,0.8219
6766.00,0.8170
6765.00,0.8122
6764.00,0.8074
6763.00,0.8027
6762.00,0.7980
6761.00,0.7935
6760.00,0.7891
6759.00,0.7847
6758.00,0.7802
6757.00,0.7758
6756.00,0.7715
6755.00,0.7673
6754.00,0.7631
6753.00,0.7591
6752.00,0.7552
6751.00,0.7514
6750.00,0.7477
6749.00,0.7441
6748.00,0.7407
6747.00,0.7373
6746.00,0.7341
6745.00,0.7311
6744.00,0.7284
6743.00,0.7257
6742.00,0.7232
6741.00,0.7207
6740.00,0.7183
6739.00,0.7159
6738.00,0.7138
6737.00,0.7118
6736.00,0.7100
6735.00,0.7083
6734.00,0.7067
6733.00,0.7053
6732.00,0.7042
6731.00,0.7031
6730.00,0.7022
6729.00,0.7014
6728.00,0.7008
6727.00,0.7004
6726.00,0.7000
6725.00,0.6997
6724.00,0.6996
6723.00,0.6995
6722.00,0.6997
6721.00,0.7000
6720.00,0.7005
6719.00,0.7010
6718.00,0.7018
6717.00,0.7028
6716.00,0.7040
6715.00,0.7052
6714.00,0.7066
6713.00,0.7080
6712.00,0.7095
6711.00,0.7112
6710.00,0.7129
6709.00,0.7147
6708.00,0.7166
6707.00,0.7187
6706.00,0.7209
6705.00,0.7234
6704.00,0.7259
6703.00,0.7285
6702.00,0.7311
6701.00,0.7339
6700.00,0.7368
6699.00,0.7399
6698.00,0.7431
6697.00,0.7464
6696.00,0.7498
6695.00,0.7533
6694.00,0.7568
6693.00,0.7603
6692.00,0.7639
6691.00,0.7676
6690.00,0.7714
6689.00,0.7752
6688.00,0.7791
6687.00,0.7832
6686.00,0.7872
6685.00,0.7911
6684.00,0.7950
6683.00,0.7990
6682.00,0.8033
6681.00,0.8077
6680.00,0.8121
6679.00,0.8166
6678.00,0.8212
6677.00,0.8258
6676.00,0.8304
6675.00,0.8349
6674.00,0.8393
6673.00,0.8439
6672.00,0.8485
6671.00,0.8532
6670.00,0.8581
6669.00,0.8631
6668.00,0.8683
6667.00,0.8735
6666.00,0.8786
6665.00,0.8835
6664.00,0.8882
6663.00,0.8928
6662.00,0.8975
6661.00,0.9021
6660.00,0.9067
6659.00,0.9115
6658.00,0.9164
6657.00,0.9214
6656.00,0.9263
6655.00,0.9313
6654.00,0.9363
6653.00,0.9413
6652.00,0.9461
6651.00,0.9509
6650.00,0.9557
6649.00,0.9605
6648.00,0.9652
6647.00,0.9699
6646.00,0.9747
6645.00,0.9799
6644.00,0.9850
6643.00,0.9900
6642.00,0.9946
6641.00,0.9990
6640.00,1.0033
6639.00,1.0076
6638.00,1.0120
6637.00,1.0167
6636.00,1.0217
6635.00,1.0269
6634.00,1.0319
6633.00,1.0366
6632.00,1.0410
6631.00,1.0452
6630.00,1.0493
6629.00,1.0534
6628.00,1.0575
6627.00,1.0618
6626.00,1.0663
6625.00,1.0709
6624.00,1.0754
6623.00,1.0796
6622.00,1.0838
6621.00,1.0880
6620.00,1.0921
6619.00,1.0959
6618.00,1.0996
6617.00,1.1033
6616.00,1.1073
6615.00,1.1115
6614.00,1.1157
6613.00,1.1196
6612.00,1.1233
6611.00,1.1270
6610.00,1.1306
6609.00,1.1340
6608.00,1.1372
6607.00,1.1403
6606.00,1.1437
6605.00,1.1472
6604.00,1.1507
6603.00,1.1540
6602.00,1.1570
6601.00,1.1600
6600.00,1.1631
6599.00,1.1663
6598.00,1.1698
6597.00,1.1731
6596.00,1.1763
6595.00,1.1791
6594.00,1.1818
6593.00,1.1842
6592.00,1.1863
6591.00,1.1882
6590.00,1.1902
6589.00,1.1927
6588.00,1.1956
6587.00,1.1985
6586.00,1.2013
6585.00,1.2040
6584.00,1.2066
6583.00,1.2091
6582.00,1.2113
6581.00,1.2132
6580.00,1.2148
6579.00,1.2163
6578.00,1.2177
6577.00,1.2191
6576.00,1.2206
6575.00,1.2222
6574.00,1.2240
6573.00,1.2261
6572.00,1.2283
6571.00,1.2304
6570.00,1.2322
6569.00,1.2338
6568.00,1.2352
6567.00,1.2365
6566.00,1.2375
6565.00,1.2384
6564.00,1.2392
6563.00,1.2400
6562.00,1.2409
6561.00,1.2421
6560.00,1.2434
6559.00,1.2446
6558.00,1.2454
6557.00,1.2458
6556.00,1.2460
6555.00,1.2463
6554.00,1.2465
6553.00,1.2468
6552.00,1.2471
6551.00,1.2475
6550.00,1.2481
6549.00,1.2487
6548.00,1.2491
6547.00,1.2492
6546.00,1.2491
6545.00,1.2490
6544.00,1.2490
6543.00,1.2489
6542.00,1.2485
6541.00,1.2478
6540.00,1.2472
6539.00,1.2469
6538.00,1.2469
6537.00,1.2470
6536.00,1.2469
6535.00,1.2467
6534.00,1.2463
6533.00,1.2457
6532.00,1.2448
6531.00,1.2439
6530.00,1.2429
6529.00,1.2419
6528.00,1.2407
6527.00,1.2394
6526.00,1.2381
6525.00,1.2367
6524.00,1.2354
6523.00,1.2340
6522.00,1.2328
6521.00,1.2318
6520.00,1.2307
6519.00,1.2295
6518.00,1.2281
6517.00,1.2264
6516.00,1.2246
6515.00,1.2228
6514.00,1.2211
6513.00,1.2194
6512.00,1.2177
6511.00,1.2160
6510.00,1.2142
6509.00,1.2121
6508.00,1.2098
6507.00,1.2073
6506.00,1.2047
6505.00,1.2021
6504.00,1.1995
6503.00,1.1970
6502.00,1.1945
6501.00,1.1921
6500.00,1.1897
6499.00,1.1871
6498.00,1.1842
6497.00,1.1812
6496.00,1.1782
6495.00,1.1753
6494.00,1.1724
6493.00,1.1694
6492.00,1.1664
6491.00,1.1633
6490.00,1.1604
6489.00,1.1574
6488.00,1.1543
6487.00,1.1509
6486.00,1.1473
6485.00,1.1437
6484.00,1.1399
6483.00,1.1361
6482.00,1.1323
6481.00,1.1286
6480.00,1.1248
6479.00,1.1209
6478.00,1.1168
6477.00,1.1126
6476.00,1.1081
6475.00,1.1036
6474.00,1.0992
6473.00,1.0949
6472.00,1.0907
6471.00,1.0865
6470.00,1.0824
6469.00,1.0781
6468.00,1.0737
6467.00,1.0691
6466.00,1.0645
6465.00,1.0600
6464.00,1.0554
6463.00,1.0507
6462.00,1.0461
6461.00,1.0415
6460.00,1.0368
6459.00,1.0318
6458.00,1.0267
6457.00,1.0215
6456.00,1.0163
6455.00,1.0111
6454.00,1.0058
6453.00,1.0005
6452.00,0.9953
6451.00,0.9901
6450.00,0.9849
6449.00,0.9796
6448.00,0.9742
6447.00,0.9688
6446.00,0.9634
6445.00,0.9582
6444.00,0.9528
6443.00,0.9474
6442.00,0.9419
6441.00,0.9364
6440.00,0.9309
6439.00,0.9252
6438.00,0.9196
6437.00,0.9140
6436.00,0.9085
6435.00,0.9030
6434.00,0.8976
6433.00,0.8921
6432.00,0.8866
6431.00,0.8811
6430.00,0.8755
6429.00,0.8700
6428.00,0.8645
6427.00,0.8591
6426.00,0.8539
6425.00,0.8488
6424.00,0.8436
6423.00,0.8384
6422.00,0.8332
6421.00,0.8280
6420.00,0.8228
6419.00,0.8176
6418.00,0.8127
6417.00,0.8078
6416.00,0.8031
6415.00,0.7985
6414.00,0.7940
6413.00,0.7896
6412.00,0.7853
6411.00,0.7810
6410.00,0.7768
6409.00,0.7729
6408.00,0.7691
6407.00,0.7654
6406.00,0.7618
6405.00,0.7583
6404.00,0.7549
6403.00,0.7516
6402.00,0.7485
6401.00,0.7455
6400.00,0.7426
6399.00,0.7399
6398.00,0.7374
6397.00,0.7350
6396.00,0.7327
6395.00,0.7306
6394.00,0.7287
6393.00,0.7271
6392.00,0.7257
6391.00,0.7244
6390.00,0.7232
6389.00,0.7224
6388.00,0.7216
6387.00,0.7209
6386.00,0.7202
6385.00,0.7197
6384.00,0.7194
6383.00,0.7193
6382.00,0.7194
6381.00,0.7198
6380.00,0.7204
6379.00,0.7212
6378.00,0.7222
6377.00,0.7232
6376.00,0.7244
6375.00,0.7257
6374.00,0.7272
6373.00,0.7289
6372.00,0.7308
6371.00,0.7328
6370.00,0.7349
6369.00,0.7373
6368.00,0.7397
6367.00,0.7422
6366.00,0.7447
6365.00,0.7474
6364.00,0.7502
6363.00,0.7531
6362.00,0.7561
6361.00,0.7592
6360.00,0.7625
6359.00,0.7658
6358.00,0.7693
6357.00,0.7731
6356.00,0.7769
6355.00,0.7808
6354.00,0.7847
6353.00,0.7887
6352.00,0.7929
6351.00,0.7971
6350.00,0.8015
6349.00,0.8060
6348.00,0.8108
6347.00,0.8156
6346.00,0.8204
6345.00,0.8250
6344.00,0.8296
6343.00,0.8340
6342.00,0.8384
6341.00,0.8431
6340.00,0.8480
6339.00,0.8529
6338.00,0.8580
6337.00,0.8630
6336.00,0.8680
6335.00,0.8730
6334.00,0.8781
6333.00,0.8832
6332.00,0.8884
6331.00,0.8935
6330.00,0.8987
6329.00,0.9039
6328.00,0.9090
6327.00,0.9141
6326.00,0.9194
6325.00,0.9247
6324.00,0.9299
6323.00,0.9351
6322.00,0.9403
6321.00,0.9454
6320.00,0.9503
6319.00,0.9552
6318.00,0.9602
6317.00,0.9654
6316.00,0.9708
6315.00,0.9761
6314.00,0.9814
6313.00,0.9867
6312.00,0.9921
6311.00,0.9972
6310.00,1.0023
6309.00,1.0072
6308.00,1.0121
6307.00,1.0169
6306.00,1.0218
6305.00,1.0267
6304.00,1.0316
6303.00,1.0366
6302.00,1.0416
6301.00,1.0465
6300.00,1.0513
6299.00,1.0560
6298.00,1.0606
6297.00,1.0653
6296.00,1.0699
6295.00,1.0744
6294.00,1.0789
6293.00,1.0834
6292.00,1.0879
6291.00,1.0923
6290.00,1.0967
6289.00,1.1009
6288.00,1.1052
6287.00,1.1093
6286.00,1.1134
6285.00,1.1174
6284.00,1.1213
6283.00,1.1251
6282.00,1.1291
6281.00,1.1331
6280.00,1.1372
6279.00,1.1411
6278.00,1.1448
6277.00,1.1483
6276.00,1.1517
6275.00,1.1550
6274.00,1.1581
6273.00,1.1614
6272.00,1.1648
6271.00,1.1684
6270.00,1.1721
6269.00,1.1757
6268.00,1.1791
6267.00,1.1823
6266.00,1.1855
6265.00,1.1885
6264.00,1.1915
6263.00,1.1945
6262.00,1.1976
6261.00,1.2008
6260.00,1.2039
6259.00,1.2068
6258.00,1.2094
6257.00,1.2119
6256.00,1.2143
6255.00,1.2167
6254.00,1.2190
6253.00,1.2211
6252.00,1.2231
6251.00,1.2251
6250.00,1.2271
6249.00,1.2291
6248.00,1.2310
6247.00,1.2327
6246.00,1.2345
6245.00,1.2362
6244.00,1.2379
6243.00,1.2394
6242.00,1.2409
6241.00,1.2426
6240.00,1.2445
6239.00,1.2463
6238.00,1.2480
6237.00,1.2495
6236.00,1.2508
6235.00,1.2522
6234.00,1.2534
6233.00,1.2542
6232.00,1.2549
6231.00,1.2556
6230.00,1.2563
6229.00,1.2570
6228.00,1.2576
6227.00,1.2582
6226.00,1.2590
6225.00,1.2597
6224.00,1.2601
6223.00,1.2602
6222.00,1.2603
6221.00,1.2606
6220.00,1.2610
6219.00,1.2616
6218.00,1.2623
6217.00,1.2627
6216.00,1.2627
6215.00,1.2623
6214.00,1.2618
6213.00,1.2614
6212.00,1.2611
6211.00,1.2606
6210.00,1.2602
6209.00,1.2598
6208.00,1.2592
6207.00,1.2583
6206.00,1.2572
6205.00,1.2563
6204.00,1.2557
6203.00,1.2553
6202.00,1.2549
6201.00,1.2544
6200.00,1.2536
6199.00,1.2525
6198.00,1.2512
6197.00,1.2499
6196.00,1.2484
6195.00,1.2468
6194.00,1.2450
6193.00,1.2431
6192.00,1.2414
6191.00,1.2397
6190.00,1.2379
6189.00,1.2361
6188.00,1.2342
6187.00,1.2323
6186.00,1.2303
6185.00,1.2284
6184.00,1.2265
6183.00,1.2246
6182.00,1.2227
6181.00,1.2210
6180.00,1.2192
6179.00,1.2168
6178.00,1.2140
6177.00,1.2109
6176.00,1.2078
6175.00,1.2049
6174.00,1.2022
6173.00,1.1995
6172.00,1.1968
6171.00,1.1941
6170.00,1.1911
6169.00,1.1880
6168.00,1.1848
6167.00,1.1816
6166.00,1.1784
6165.00,1.1750
6164.00,1.1717
6163.00,1.1683
6162.00,1.1648
6161.00,1.1613
6160.00,1.1578
6159.00,1.1544
6158.00,1.1510
6157.00,1.1474
6156.00,1.1436
6155.00,1.1397
6154.00,1.1359
6153.00,1.1321
6152.00,1.1282
6151.00,1.1242
6150.00,1.1200
6149.00,1.1158
6148.00,1.1116
6147.00,1.1073
6146.00,1.1030
6145.00,1.0987
6144.00,1.0945
6143.00,1.0902
6142.00,1.0860
6141.00,1.0817
6140.00,1.0774
6139.00,1.0732
6138.00,1.0689
6137.00,1.0647
6136.00,1.0603
6135.00,1.0558
6134.00,1.0513
6133.00,1.0470
6132.00,1.0426
6131.00,1.0382
6130.00,1.0337
6129.00,1.0293
6128.00,1.0249
6127.00,1.0204
6126.00,1.0158
6125.00,1.0111
6124.00,1.0064
6123.00,1.0019
6122.00,0.9974
6121.00,0.9930
6120.00,0.9884
6119.00,0.9838
6118.00,0.9792
6117.00,0.9748
6116.00,0.9703
6115.00,0.9658
6114.00,0.9614
6113.00,0.9570
6112.00,0.9525
6111.00,0.9479
6110.00,0.9431
6109.00,0.9384
6108.00,0.9336
6107.00,0.9288
6106.00,0.9239
6105.00,0.9190
6104.00,0.9139
6103.00,0.9088
6102.00,0.9037
6101.00,0.8988
6100.00,0.8939
6099.00,0.8890
6098.00,0.8841
6097.00,0.8790
6096.00,0.8739
6095.00,0.8687
6094.00,0.8635
6093.00,0.8584
6092.00,0.8533
6091.00,0.8481
6090.00,0.8429
6089.00,0.8377
6088.00,0.8326
6087.00,0.8274
6086.00,0.8223
6085.00,0.8172
6084.00,0.8123
6083.00,0.8074
6082.00,0.8025
6081.00,0.7977
6080.00,0.7930
6079.00,0.7883
6078.00,0.7838
6077.00,0.7793
6076.00,0.7748
6075.00,0.7703
6074.00,0.7660
6073.00,0.7619
6072.00,0.7579
6071.00,0.7539
6070.00,0.7500
6069.00,0.7463
6068.00,0.7427
6067.00,0.7391
6066.00,0.7357
6065.00,0.7325
6064.00,0.7295
6063.00,0.7266
6062.00,0.7240
6061.00,0.7215
6060.00,0.7193
6059.00,0.7171
6058.00,0.7152
6057.00,0.7134
6056.00,0.7117
6055.00,0.7101
6054.00,0.7086
6053.00,0.7074
6052.00,0.7063
6051.00,0.7055
6050.00,0.7049
6049.00,0.7046
6048.00,0.7044
6047.00,0.7043
6046.00,0.7044
6045.00,0.7047
6044.00,0.7052
6043.00,0.7058
6042.00,0.7066
6041.00,0.7077
6040.00,0.7090
6039.00,0.7105
6038.00,0.7121
6037.00,0.7140
6036.00,0.7161
6035.00,0.7183
6034.00,0.7206
6033.00,0.7232
6032.00,0.7258
6031.00,0.7285
6030.00,0.7313
6029.00,0.7342
6028.00,0.7373
6027.00,0.7404
6026.00,0.7437
6025.00,0.7472
6024.00,0.7510
6023.00,0.7550
6022.00,0.7590
6021.00,0.7632
6020.00,0.7673
6019.00,0.7715
6018.00,0.7757
6017.00,0.7800
6016.00,0.7845
6015.00,0.7892
6014.00,0.7941
6013.00,0.7991
6012.00,0.8042
6011.00,0.8092
6010.00,0.8141
6009.00,0.8191
6008.00,0.8242
6007.00,0.8293
6006.00,0.8345
6005.00,0.8399
6004.00,0.8453
6003.00,0.8506
6002.00,0.8559
6001.00,0.8613
6000.00,0.8667
5999.00,0.8723
5998.00,0.8779
5997.00,0.8836
5996.00,0.8891
5995.00,0.8947
5994.00,0.9002
5993.00,0.9058
5992.00,0.9115
5991.00,0.9174
5990.00,0.9233
5989.00,0.9291
5988.00,0.9349
5987.00,0.9405
5986.00,0.9462
5985.00,0.9520
5984.00,0.9579
5983.00,0.9638
5982.00,0.9697
5981.00,0.9755
5980.00,0.9810
5979.00,0.9865
5978.00,0.9920
5977.00,0.9974
5976.00,1.0030
5975.00,1.0086
5974.00,1.0142
5973.00,1.0198
5972.00,1.0253
5971.00,1.0308
5970.00,1.0363
5969.00,1.0418
5968.00,1.0472
5967.00,1.0526
5966.00,1.0579
5965.00,1.0634
5964.00,1.0689
5963.00,1.0744
5962.00,1.0799
5961.00,1.0853
5960.00,1.0906
5959.00,1.0957
5958.00,1.1007
5957.00,1.1056
5956.00,1.1105
5955.00,1.1154
5954.00,1.1203
5953.00,1.1253
5952.00,1.1303
5951.00,1.1351
5950.00,1.1397
5949.00,1.1442
5948.00,1.1486
5947.00,1.1529
5946.00,1.1573
5945.00,1.1617
5944.00,1.1663
5943.00,1.1708
5942.00,1.1751
5941.00,1.1792
5940.00,1.1833
5939.00,1.1874
5938.00,1.1914
5937.00,1.1955
5936.00,1.1996
5935.00,1.2037
5934.00,1.2077
5933.00,1.2116
5932.00,1.2153
5931.00,1.2190
5930.00,1.2227
5929.00,1.2264
5928.00,1.2300
5927.00,1.2335
5926.00,1.2369
5925.00,1.2401
5924.00,1.2432
5923.00,1.2463
5922.00,1.2494
5921.00,1.2526
5920.00,1.2558
5919.00,1.2589
5918.00,1.2619
5917.00,1.2648
5916.00,1.2675
5915.00,1.2702
5914.00,1.2729
5913.00,1.2756
5912.00,1.2784
5911.00,1.2809
5910.00,1.2832
5909.00,1.2854
5908.00,1.2876
5907.00,1.2898
5906.00,1.2919
5905.00,1.2938
5904.00,1.2955
5903.00,1.2969
5902.00,1.2981
5901.00,1.2995
5900.00,1.3010
5899.00,1.3027
5898.00,1.3046
5897.00,1.3066
5896.00,1.3083
5895.00,1.3097
5894.00,1.3109
5893.00,1.3122
5892.00,1.3135
5891.00,1.3148
5890.00,1.3160
5889.00,1.3172
5888.00,1.3184
5887.00,1.3192
5886.00,1.3199
5885.00,1.3207
5884.00,1.3215
5883.00,1.3222
5882.00,1.3228
5881.00,1.3231
5880.00,1.3234
5879.00,1.3235
5878.00,1.3237
5877.00,1.3240
5876.00,1.3244
5875.00,1.3247
5874.00,1.3248
5873.00,1.3247
5872.00,1.3244
5871.00,1.3240
5870.00,1.3236
5869.00,1.3235
5868.00,1.3236
5867.00,1.3238
5866.00,1.3237
5865.00,1.3235
5864.00,1.3233
5863.00,1.3230
5862.00,1.3225
5861.00,1.3217
5860.00,1.3208
5859.00,1.3198
5858.00,1.3186
5857.00,1.3173
5856.00,1.3160
5855.00,1.3148
5854.00,1.3139
5853.00,1.3130
5852.00,1.3121
5851.00,1.3110
5850.00,1.3096
5849.00,1.3080
5848.00,1.3063
5847.00,1.3047
5846.00,1.3029
5845.00,1.3011
5844.00,1.2994
5843.00,1.2977
5842.00,1.2959
5841.00,1.2939
5840.00,1.2918
5839.00,1.2895
5838.00,1.2873
5837.00,1.2849
5836.00,1.2824
5835.00,1.2797
5834.00,1.2769
5833.00,1.2744
5832.00,1.2718
5831.00,1.2693
5830.00,1.2667
5829.00,1.2641
5828.00,1.2614
5827.00,1.2587
5826.00,1.2559
5825.00,1.2531
5824.00,1.2501
5823.00,1.2471
5822.00,1.2439
5821.00,1.2405
5820.00,1.2369
5819.00,1.2332
5818.00,1.2296
5817.00,1.2263
5816.00,1.2231
5815.00,1.2197
5814.00,1.2161
5813.00,1.2124
5812.00,1.2085
5811.00,1.2046
5810.00,1.2007
5809.00,1.1968
5808.00,1.1930
5807.00,1.1891
5806.00,1.1850
5805.00,1.1808
5804.00,1.1766
5803.00,1.1722
5802.00,1.1676
5801.00,1.1631
5800.00,1.1584
5799.00,1.1537
5798.00,1.1489
5797.00,1.1441
5796.00,1.1395
5795.00,1.1350
5794.00,1.1303
5793.00,1.1256
5792.00,1.1206
5791.00,1.1155
5790.00,1.1102
5789.00,1.1049
5788.00,1.0994
5787.00,1.0939
5786.00,1.0883
5785.00,1.0826
5784.00,1.0769
5783.00,1.0711
5782.00,1.0654
5781.00,1.0598
5780.00,1.0542
5779.00,1.0486
5778.00,1.0429
5777.00,1.0370
5776.00,1.0310
5775.00,1.0250
5774.00,1.0189
5773.00,1.0128
5772.00,1.0068
5771.00,1.0007
5770.00,0.9945
5769.00,0.9882
5768.00,0.9819
5767.00,0.9755
5766.00,0.9690
5765.00,0.9625
5764.00,0.9560
5763.00,0.9495
5762.00,0.9431
5761.00,0.9367
5760.00,0.9304
5759.00,0.9240
5758.00,0.9176
5757.00,0.9112
5756.00,0.9049
5755.00,0.8985
5754.00,0.8922
5753.00,0.8860
5752.00,0.8799
5751.00,0.8737
5750.00,0.8677
5749.00,0.8616
5748.00,0.8556
5747.00,0.8498
5746.00,0.8440
5745.00,0.8382
5744.00,0.8324
5743.00,0.8267
5742.00,0.8211
5741.00,0.8154
5740.00,0.8098
5739.00,0.8044
5738.00,0.7991
5737.00,0.7941
5736.00,0.7891
5735.00,0.7842
5734.00,0.7794
5733.00,0.7747
5732.00,0.7701
5731.00,0.7656
5730.00,0.7614
5729.00,0.7573
5728.00,0.7534
5727.00,0.7496
5726.00,0.7459
5725.00,0.7425
5724.00,0.7392
5723.00,0.7361
5722.00,0.7331
5721.00,0.7303
5720.00,0.7278
5719.00,0.7254
5718.00,0.7232
5717.00,0.7212
5716.00,0.7194
5715.00,0.7177
5714.00,0.7163
5713.00,0.7150
5712.00,0.7140
5711.00,0.7133
5710.00,0.7128
5709.00,0.7126
5708.00,0.7126
5707.00,0.7127
5706.00,0.7130
5705.00,0.7136
5704.00,0.7143
5703.00,0.7152
5702.00,0.7164
5701.00,0.7177
5700.00,0.7193
5699.00,0.7210
5698.00,0.7229
5697.00,0.7251
5696.00,0.7274
5695.00,0.7299
5694.00,0.7326
5693.00,0.7355
5692.00,0.7385
5691.00,0.7418
5690.00,0.7452
5689.00,0.7487
5688.00,0.7524
5687.00,0.7562
5686.00,0.7602
5685.00,0.7644
5684.00,0.7686
5683.00,0.7730
5682.00,0.7775
5681.00,0.7821
5680.00,0.7869
5679.00,0.7917
5678.00,0.7967
5677.00,0.8018
5676.00,0.8070
5675.00,0.8123
5674.00,0.8177
5673.00,0.8231
5672.00,0.8285
5671.00,0.8340
5670.00,0.8395
5669.00,0.8452
5668.00,0.8509
5667.00,0.8567
5666.00,0.8626
5665.00,0.8686
5664.00,0.8745
5663.00,0.8805
5662.00,0.8866
5661.00,0.8926
5660.00,0.8987
5659.00,0.9047
5658.00,0.9108
5657.00,0.9169
5656.00,0.9230
5655.00,0.9291
5654.00,0.9354
5653.00,0.9416
5652.00,0.9479
5651.00,0.9540
5650.00,0.9601
5649.00,0.9662
5648.00,0.9723
5647.00,0.9785
5646.00,0.9847
5645.00,0.9910
5644.00,0.9972
5643.00,1.0033
5642.00,1.0093
5641.00,1.0153
5640.00,1.0213
5639.00,1.0273
5638.00,1.0332
5637.00,1.0392
5636.00,1.0452
5635.00,1.0511
5634.00,1.0570
5633.00,1.0630
5632.00,1.0688
5631.00,1.0746
5630.00,1.0802
5629.00,1.0859
5628.00,1.0915
5627.00,1.0971
5626.00,1.1027
5625.00,1.1084
5624.00,1.1139
5623.00,1.1193
5622.00,1.1246
5621.00,1.1298
5620.00,1.1350
5619.00,1.1401
5618.00,1.1453
5617.00,1.1505
5616.00,1.1557
5615.00,1.1608
5614.00,1.1658
5613.00,1.1706
5612.00,1.1754
5611.00,1.1802
5610.00,1.1850
5609.00,1.1898
5608.00,1.1946
5607.00,1.1993
5606.00,1.2039
5605.00,1.2083
5604.00,1.2127
5603.00,1.2171
5602.00,1.2215
5601.00,1.2257
5600.00,1.2297
5599.00,1.2335
5598.00,1.2374
5597.00,1.2414
5596.00,1.2454
5595.00,1.2495
5594.00,1.2534
5593.00,1.2571
5592.00,1.2605
5591.00,1.2637
5590.00,1.2670
5589.00,1.2705
5588.00,1.2741
5587.00,1.2776
5586.00,1.2809
5585.00,1.2841
5584.00,1.2872
5583.00,1.2902
5582.00,1.2931
5581.00,1.2960
5580.00,1.2989
5579.00,1.3017
5578.00,1.3044
5577.00,1.3072
5576.00,1.3101
5575.00,1.3129
5574.00,1.3154
5573.00,1.3177
5572.00,1.3198
5571.00,1.3217
5570.00,1.3236
5569.00,1.3254
5568.00,1.3275
5567.00,1.3298
5566.00,1.3321
5565.00,1.3342
5564.00,1.3362
5563.00,1.3380
5562.00,1.3395
5561.00,1.3409
5560.00,1.3424
5559.00,1.3439
5558.00,1.3455
5557.00,1.3471
5556.00,1.3487
5555.00,1.3502
5554.00,1.3514
5553.00,1.3525
5552.00,1.3533
5551.00,1.3541
5550.00,1.3549
5549.00,1.3557
5548.00,1.3566
5547.00,1.3576
5546.00,1.3585
5545.00,1.3591
5544.00,1.3596
5543.00,1.3599
5542.00,1.3604
5541.00,1.3608
5540.00,1.3614
5539.00,1.3619
5538.00,1.3622
5537.00,1.3623
5536.00,1.3622
5535.00,1.3620
5534.00,1.3618
5533.00,1.3616
5532.00,1.3615
5531.00,1.3613
5530.00,1.3610
5529.00,1.3607
5528.00,1.3604
5527.00,1.3599
5526.00,1.3593
5525.00,1.3585
5524.00,1.3576
5523.00,1.3569
5522.00,1.3564
5521.00,1.3560
5520.00,1.3554
5519.00,1.3546
5518.00,1.3535
5517.00,1.3522
5516.00,1.3508
5515.00,1.3494
5514.00,1.3480
5513.00,1.3466
5512.00,1.3453
5511.00,1.3438
5510.00,1.3421
5509.00,1.3404
5508.00,1.3387
5507.00,1.3370
5506.00,1.3353
5505.00,1.3334
5504.00,1.3314
5503.00,1.3294
5502.00,1.3274
5501.00,1.3253
5500.00,1.3231
5499.00,1.3208
5498.00,1.3185
5497.00,1.3162
5496.00,1.3137
5495.00,1.3111
5494.00,1.3084
5493.00,1.3057
5492.00,1.3028
5491.00,1.2998
5490.00,1.2969
5489.00,1.2941
5488.00,1.2912
5487.00,1.2881
5486.00,1.2848
5485.00,1.2815
5484.00,1.2781
5483.00,1.2747
5482.00,1.2713
5481.00,1.2679
5480.00,1.2644
5479.00,1.2606
5478.00,1.2567
5477.00,1.2528
5476.00,1.2490
5475.00,1.2452
5474.00,1.2413
5473.00,1.2373
5472.00,1.2334
5471.00,1.2294
5470.00,1.2254
5469.00,1.2212
5468.00,1.2169
5467.00,1.2124
5466.00,1.2077
5465.00,1.2028
5464.00,1.1978
5463.00,1.1928
5462.00,1.1878
5461.00,1.1828
5460.00,1.1779
5459.00,1.1730
5458.00,1.1680
5457.00,1.1630
5456.00,1.1579
5455.00,1.1525
5454.00,1.1469
5453.00,1.1411
5452.00,1.1353
5451.00,1.1296
5450.00,1.1239
5449.00,1.1180
5448.00,1.1120
5447.00,1.1060
5446.00,1.0999
5445.00,1.0938
5444.00,1.0876
5443.00,1.0816
5442.00,1.0755
5441.00,1.0694
5440.00,1.0630
5439.00,1.0564
5438.00,1.0497
5437.00,1.0432
5436.00,1.0367
5435.00,1.0301
5434.00,1.0233
5433.00,1.0165
5432.00,1.0097
5431.00,1.0029
5430.00,0.9961
5429.00,0.9892
5428.00,0.9823
5427.00,0.9753
5426.00,0.9683
5425.00,0.9614
5424.00,0.9545
5423.00,0.9475
5422.00,0.9404
5421.00,0.9333
5420.00,0.9262
5419.00,0.9190
5418.00,0.9118
5417.00,0.9046
5416.00,0.8973
5415.00,0.8899
5414.00,0.8826
5413.00,0.8754
5412.00,0.8682
5411.00,0.8611
5410.00,0.8541
5409.00,0.8472
5408.00,0.8403
5407.00,0.8335
5406.00,0.8269
5405.00,0.8205
5404.00,0.8140
5403.00,0.8075
5402.00,0.8010
5401.00,0.7946
5400.00,0.7885
5399.00,0.7824
5398.00,0.7765
5397.00,0.7707
5396.00,0.7650
5395.00,0.7593
5394.00,0.7538
5393.00,0.7485
5392.00,0.7433
5391.00,0.7385
5390.00,0.7339
5389.00,0.7296
5388.00,0.7254
5387.00,0.7215
5386.00,0.7179
5385.00,0.7144
5384.00,0.7110
5383.00,0.7079
5382.00,0.7051
5381.00,0.7025
5380.00,0.7000
5379.00,0.6978
5378.00,0.6959
5377.00,0.6944
5376.00,0.6930
5375.00,0.6919
5374.00,0.6911
5373.00,0.6905
5372.00,0.6903
5371.00,0.6904
5370.00,0.6907
5369.00,0.6913
5368.00,0.6921
5367.00,0.6931
5366.00,0.6944
5365.00,0.6960
5364.00,0.6978
5363.00,0.6999
5362.00,0.7022
5361.00,0.7046
5360.00,0.7073
5359.00,0.7102
5358.00,0.7132
5357.00,0.7165
5356.00,0.7200
5355.00,0.7238
5354.00,0.7278
5353.00,0.7318
5352.00,0.7360
5351.00,0.7402
5350.00,0.7448
5349.00,0.7494
5348.00,0.7540
5347.00,0.7587
5346.00,0.7637
5345.00,0.7689
5344.00,0.7742
5343.00,0.7796
5342.00,0.7851
5341.00,0.7908
5340.00,0.7967
5339.00,0.8027
5338.00,0.8088
5337.00,0.8150
5336.00,0.8211
5335.00,0.8273
5334.00,0.8336
5333.00,0.8400
5332.00,0.8463
5331.00,0.8526
5330.00,0.8590
5329.00,0.8655
5328.00,0.8721
5327.00,0.8787
5326.00,0.8852
5325.00,0.8918
5324.00,0.8984
5323.00,0.9052
5322.00,0.9121
5321.00,0.9190
5320.00,0.9259
5319.00,0.9328
5318.00,0.9396
5317.00,0.9464
5316.00,0.9531
5315.00,0.9599
5314.00,0.9667
5313.00,0.9735
5312.00,0.9803
5311.00,0.9870
5310.00,0.9936
5309.00,1.0003
5308.00,1.0070
5307.00,1.0137
5306.00,1.0205
5305.00,1.0272
5304.00,1.0340
5303.00,1.0407
5302.00,1.0473
5301.00,1.0540
5300.00,1.0606
5299.00,1.0672
5298.00,1.0737
5297.00,1.0801
5296.00,1.0866
5295.00,1.0930
5294.00,1.0992
5293.00,1.1054
5292.00,1.1115
5291.00,1.1176
5290.00,1.1236
5289.00,1.1297
5288.00,1.1357
5287.00,1.1418
5286.00,1.1479
5285.00,1.1539
5284.00,1.1597
5283.00,1.1654
5282.00,1.1712
5281.00,1.1769
5280.00,1.1825
5279.00,1.1879
5278.00,1.1933
5277.00,1.1987
5276.00,1.2041
5275.00,1.2095
5274.00,1.2148
5273.00,1.2199
5272.00,1.2250
5271.00,1.2300
5270.00,1.2350
5269.00,1.2401
5268.00,1.2450
5267.00,1.2497
5266.00,1.2543
5265.00,1.2587
5264.00,1.2632
5263.00,1.2677
5262.00,1.2721
5261.00,1.2765
5260.00,1.2809
5259.00,1.2853
5258.00,1.2897
5257.00,1.2940
5256.00,1.2983
5255.00,1.3025
5254.00,1.3065
5253.00,1.3102
5252.00,1.3139
5251.00,1.3176
5250.00,1.3212
5249.00,1.3246
5248.00,1.3276
5247.00,1.3306
5246.00,1.3338
5245.00,1.3372
5244.00,1.3407
5243.00,1.3443
5242.00,1.3477
5241.00,1.3509
5240.00,1.3539
5239.00,1.3568
5238.00,1.3595
5237.00,1.3622
5236.00,1.3648
5235.00,1.3673
5234.00,1.3698
5233.00,1.3723
5232.00,1.3748
5231.00,1.3772
5230.00,1.3795
5229.00,1.3815
5228.00,1.3834
5227.00,1.3854
5226.00,1.3873
5225.00,1.3891
5224.00,1.3908
5223.00,1.3926
5222.00,1.3944
5221.00,1.3961
5220.00,1.3978
5219.00,1.3995
5218.00,1.4011
5217.00,1.4026
5216.00,1.4039
5215.00,1.4051
5214.00,1.4063
5213.00,1.4074
5212.00,1.4084
5211.00,1.4093
5210.00,1.4100
5209.00,1.4105
5208.00,1.4109
5207.00,1.4113
5206.00,1.4117
5205.00,1.4123
5204.00,1.4129
5203.00,1.4138
5202.00,1.4147
5201.00,1.4154
5200.00,1.4158
5199.00,1.4160
5198.00,1.4162
5197.00,1.4163
5196.00,1.4163
5195.00,1.4164
5194.00,1.4165
5193.00,1.4166
5192.00,1.4165
5191.00,1.4163
5190.00,1.4161
5189.00,1.4157
5188.00,1.4152
5187.00,1.4143
5186.00,1.4133
5185.00,1.4121
5184.00,1.4109
5183.00,1.4097
5182.00,1.4088
5181.00,1.4082
5180.00,1.4077
5179.00,1.4071
5178.00,1.4063
5177.00,1.4051
5176.00,1.4035
5175.00,1.4016
5174.00,1.3998
5173.00,1.3982
5172.00,1.3970
5171.00,1.3959
5170.00,1.3947
5169.00,1.3932
5168.00,1.3915
5167.00,1.3896
5166.00,1.3876
5165.00,1.3854
5164.00,1.3832
5163.00,1.3809
5162.00,1.3786
5161.00,1.3762
5160.00,1.3739
5159.00,1.3716
5158.00,1.3692
5157.00,1.3666
5156.00,1.3639
5155.00,1.3611
5154.00,1.3583
5153.00,1.3555
5152.00,1.3526
5151.00,1.3496
5150.00,1.3464
5149.00,1.3429
5148.00,1.3394
5147.00,1.3358
5146.00,1.3324
5145.00,1.3289
5144.00,1.3255
5143.00,1.3220
5142.00,1.3185
5141.00,1.3149
5140.00,1.3110
5139.00,1.3070
5138.00,1.3029
5137.00,1.2986
5136.00,1.2942
5135.00,1.2899
5134.00,1.2857
5133.00,1.2816
5132.00,1.2773
5131.00,1.2729
5130.00,1.2684
5129.00,1.2637
5128.00,1.2589
5127.00,1.2540
5126.00,1.2490
5125.00,1.2439
5124.00,1.2387
5123.00,1.2334
5122.00,1.2282
5121.00,1.2230
5120.00,1.2177
5119.00,1.2123
5118.00,1.2068
5117.00,1.2012
5116.00,1.1955
5115.00,1.1897
5114.00,1.1838
5113.00,1.1778
5112.00,1.1717
5111.00,1.1654
5110.00,1.1591
5109.00,1.1528
5108.00,1.1465
5107.00,1.1399
5106.00,1.1332
5105.00,1.1264
5104.00,1.1194
5103.00,1.1126
5102.00,1.1057
5101.00,1.0990
5100.00,1.0922
5099.00,1.0853
5098.00,1.0783
5097.00,1.0710
5096.00,1.0637
5095.00,1.0563
5094.00,1.0489
5093.00,1.0415
5092.00,1.0340
5091.00,1.0265
5090.00,1.0189
5089.00,1.0113
5088.00,1.0036
5087.00,0.9959
5086.00,0.9882
5085.00,0.9805
5084.00,0.9727
5083.00,0.9648
5082.00,0.9569
5081.00,0.9489
5080.00,0.9408
5079.00,0.9327
5078.00,0.9247
5077.00,0.9168
5076.00,0.9089
5075.00,0.9010
5074.00,0.8932
5073.00,0.8853
5072.00,0.8775
5071.00,0.8697
5070.00,0.8620
5069.00,0.8543
5068.00,0.8467
5067.00,0.8391
5066.00,0.8317
5065.00,0.8244
5064.00,0.8172
5063.00,0.8101
5062.00,0.8032
5061.00,0.7964
5060.00,0.7898
5059.00,0.7834
5058.00,0.7771
5057.00,0.7710
5056.00,0.7650
5055.00,0.7592
5054.00,0.7537
5053.00,0.7484
5052.00,0.7434
5051.00,0.7387
5050.00,0.7342
5049.00,0.7300
5048.00,0.7259
5047.00,0.7220
5046.00,0.7184
5045.00,0.7152
5044.00,0.7124
5043.00,0.7098
5042.00,0.7076
5041.00,0.7057
5040.00,0.7040
5039.00,0.7027
5038.00,0.7016
5037.00,0.7008
5036.00,0.7003
5035.00,0.7002
5034.00,0.7003
5033.00,0.7008
5032.00,0.7016
5031.00,0.7026
5030.00,0.7039
5029.00,0.7055
5028.00,0.7074
5027.00,0.7096
5026.00,0.7120
5025.00,0.7147
5024.00,0.7176
5023.00,0.7208
5022.00,0.7242
5021.00,0.7279
5020.00,0.7319
5019.00,0.7361
5018.00,0.7405
5017.00,0.7451
5016.00,0.7499
5015.00,0.7548
5014.00,0.7599
5013.00,0.7652
5012.00,0.7707
5011.00,0.7763
5010.00,0.7821
5009.00,0.7881
5008.00,0.7943
5007.00,0.8005
5006.00,0.8069
5005.00,0.8134
5004.00,0.8200
5003.00,0.8267
5002.00,0.8336
5001.00,0.8406
5000.00,0.8477
4999.00,0.8548
4998.00,0.8620
4997.00,0.8692
4996.00,0.8765
4995.00,0.8839
4994.00,0.8914
4993.00,0.8989
4992.00,0.9063
4991.00,0.9138
4990.00,0.9212
4989.00,0.9287
4988.00,0.9362
4987.00,0.9438
4986.00,0.9513
4985.00,0.9589
4984.00,0.9665
4983.00,0.9741
4982.00,0.9818
4981.00,0.9894
4980.00,0.9971
4979.00,1.0047
4978.00,1.0123
4977.00,1.0199
4976.00,1.0275
4975.00,1.0351
4974.00,1.0426
4973.00,1.0501
4972.00,1.0576
4971.00,1.0652
4970.00,1.0727
4969.00,1.0801
4968.00,1.0874
4967.00,1.0948
4966.00,1.1021
4965.00,1.1093
4964.00,1.1166
4963.00,1.1238
4962.00,1.1310
4961.00,1.1380
4960.00,1.1450
4959.00,1.1518
4958.00,1.1587
4957.00,1.1654
4956.00,1.1722
4955.00,1.1789
4954.00,1.1856
4953.00,1.1922
4952.00,1.1987
4951.00,1.2051
4950.00,1.2116
4949.00,1.2179
4948.00,1.2242
4947.00,1.2304
4946.00,1.2364
4945.00,1.2425
4944.00,1.2485
4943.00,1.2545
4942.00,1.2604
4941.00,1.2661
4940.00,1.2716
4939.00,1.2772
4938.00,1.2827
4937.00,1.2882
4936.00,1.2937
4935.00,1.2990
4934.00,1.3041
4933.00,1.3092
4932.00,1.3143
4931.00,1.3193
4930.00,1.3244
4929.00,1.3293
4928.00,1.3341
4927.00,1.3388
4926.00,1.3434
4925.00,1.3480
4924.00,1.3523
4923.00,1.3565
4922.00,1.3606
4921.00,1.3647
4920.00,1.3689
4919.00,1.3730
4918.00,1.3771
4917.00,1.3811
4916.00,1.3850
4915.00,1.3888
4914.00,1.3927
4913.00,1.3966
4912.00,1.4003
4911.00,1.4038
4910.00,1.4070
4909.00,1.4100
4908.00,1.4128
4907.00,1.4158
4906.00,1.4188
4905.00,1.4221
4904.00,1.4254
4903.00,1.4287
4902.00,1.4318
4901.00,1.4346
4900.00,1.4370
4899.00,1.4394
4898.00,1.4416
4897.00,1.4438
4896.00,1.4459
4895.00,1.4480
4894.00,1.4503
4893.00,1.4526
4892.00,1.4550
4891.00,1.4572
4890.00,1.4593
4889.00,1.4613
4888.00,1.4632
4887.00,1.4650
4886.00,1.4669
4885.00,1.4686
4884.00,1.4701
4883.00,1.4715
4882.00,1.4729
4881.00,1.4741
4880.00,1.4753
4879.00,1.4765
4878.00,1.4776
4877.00,1.4787
4876.00,1.4798
4875.00,1.4808
4874.00,1.4817
4873.00,1.4826
4872.00,1.4834
4871.00,1.4842
4870.00,1.4848
4869.00,1.4852
4868.00,1.4856
4867.00,1.4860
4866.00,1.4864
4865.00,1.4867
4864.00,1.4868
4863.00,1.4867
4862.00,1.4865
4861.00,1.4863
4860.00,1.4860
4859.00,1.4859
4858.00,1.4857
4857.00,1.4855
4856.00,1.4853
4855.00,1.4850
4854.00,1.4847
4853.00,1.4843
4852.00,1.4837
4851.00,1.4832
4850.00,1.4826
4849.00,1.4820
4848.00,1.4815
4847.00,1.4809
4846.00,1.4800
4845.00,1.4789
4844.00,1.4774
4843.00,1.4759
4842.00,1.4744
4841.00,1.4731
4840.00,1.4718
4839.00,1.4704
4838.00,1.4689
4837.00,1.4672
4836.00,1.4653
4835.00,1.4634
4834.00,1.4616
4833.00,1.4598
4832.00,1.4579
4831.00,1.4560
4830.00,1.4540
4829.00,1.4518
4828.00,1.4495
4827.00,1.4471
4826.00,1.4448
4825.00,1.4425
4824.00,1.4400
4823.00,1.4375
4822.00,1.4347
4821.00,1.4317
4820.00,1.4287
4819.00,1.4257
4818.00,1.4227
4817.00,1.4196
4816.00,1.4164
4815.00,1.4133
4814.00,1.4101
4813.00,1.4069
4812.00,1.4036
4811.00,1.4002
4810.00,1.3967
4809.00,1.3930
4808.00,1.3894
4807.00,1.3857
4806.00,1.3820
4805.00,1.3781
4804.00,1.3741
4803.00,1.3699
4802.00,1.3657
4801.00,1.3614
4800.00,1.3569
4799.00,1.3523
4798.00,1.3478
4797.00,1.3432
4796.00,1.3385
4795.00,1.3338
4794.00,1.3288
4793.00,1.3236
4792.00,1.3184
4791.00,1.3131
4790.00,1.3079
4789.00,1.3027
4788.00,1.2973
4787.00,1.2917
4786.00,1.2859
4785.00,1.2800
4784.00,1.2741
4783.00,1.2681
4782.00,1.2622
4781.00,1.2562
4780.00,1.2501
4779.00,1.2439
4778.00,1.2376
4777.00,1.2311
4776.00,1.2246
4775.00,1.2181
4774.00,1.2115
4773.00,1.2048
4772.00,1.1979
4771.00,1.1908
4770.00,1.1837
4769.00,1.1765
4768.00,1.1693
4767.00,1.1620
4766.00,1.1547
4765.00,1.1472
4764.00,1.1397
4763.00,1.1320
4762.00,1.1243
4761.00,1.1164
4760.00,1.1085
4759.00,1.1006
4758.00,1.0925
4757.00,1.0843
4756.00,1.0761
4755.00,1.0678
4754.00,1.0595
4753.00,1.0512
4752.00,1.0428
4751.00,1.0343
4750.00,1.0257
4749.00,1.0171
4748.00,1.0084
4747.00,0.9997
4746.00,0.9909
4745.00,0.9821
4744.00,0.9731
4743.00,0.9642
4742.00,0.9553
4741.00,0.9463
4740.00,0.9374
4739.00,0.9285
4738.00,0.9196
4737.00,0.9107
4736.00,0.9018
4735.00,0.8930
4734.00,0.8843
4733.00,0.8757
4732.00,0.8670
4731.00,0.8584
4730.00,0.8499
4729.00,0.8415
4728.00,0.8332
4727.00,0.8250
4726.00,0.8170
4725.00,0.8092
4724.00,0.8015
4723.00,0.7940
4722.00,0.7867
4721.00,0.7796
4720.00,0.7727
4719.00,0.7660
4718.00,0.7595
4717.00,0.7534
4716.00,0.7475
4715.00,0.7420
4714.00,0.7367
4713.00,0.7318
4712.00,0.7271
4711.00,0.7227
4710.00,0.7187
4709.00,0.7150
4708.00,0.7117
4707.00,0.7088
4706.00,0.7062
4705.00,0.7040
4704.00,0.7021
4703.00,0.7006
4702.00,0.6995
4701.00,0.6988
4700.00,0.6985
4699.00,0.6985
4698.00,0.6991
4697.00,0.7000
4696.00,0.7014
4695.00,0.7032
4694.00,0.7055
4693.00,0.7082
4692.00,0.7112
4691.00,0.7144
4690.00,0.7180
4689.00,0.7218
4688.00,0.7259
4687.00,0.7303
4686.00,0.7349
4685.00,0.7398
4684.00,0.7449
4683.00,0.7502
4682.00,0.7556
4681.00,0.7613
4680.00,0.7671
4679.00,0.7731
4678.00,0.7793
4677.00,0.7857
4676.00,0.7922
4675.00,0.7988
4674.00,0.8055
4673.00,0.8123
4672.00,0.8191
4671.00,0.8260
4670.00,0.8331
4669.00,0.8404
4668.00,0.8477
4667.00,0.8551
4666.00,0.8626
4665.00,0.8701
4664.00,0.8777
4663.00,0.8855
4662.00,0.8934
4661.00,0.9013
4660.00,0.9092
4659.00,0.9172
4658.00,0.9252
4657.00,0.9333
4656.00,0.9415
4655.00,0.9497
4654.00,0.9580
4653.00,0.9664
4652.00,0.9748
4651.00,0.9833
4650.00,0.9918
4649.00,1.0003
4648.00,1.0088
4647.00,1.0173
4646.00,1.0258
4645.00,1.0344
4644.00,1.0429
4643.00,1.0513
4642.00,1.0597
4641.00,1.0680
4640.00,1.0764
4639.00,1.0848
4638.00,1.0932
4637.00,1.1016
4636.00,1.1100
4635.00,1.1184
4634.00,1.1267
4633.00,1.1349
4632.00,1.1431
4631.00,1.1511
4630.00,1.1591
4629.00,1.1671
4628.00,1.1751
4627.00,1.1831
4626.00,1.1910
4625.00,1.1989
4624.00,1.2066
4623.00,1.2142
4622.00,1.2216
4621.00,1.2291
4620.00,1.2366
4619.00,1.2441
4618.00,1.2515
4617.00,1.2588
4616.00,1.2659
4615.00,1.2728
4614.00,1.2797
4613.00,1.2865
4612.00,1.2932
4611.00,1.2999
4610.00,1.3065
4609.00,1.3130
4608.00,1.3194
4607.00,1.3258
4606.00,1.3320
4605.00,1.3381
4604.00,1.3441
4603.00,1.3501
4602.00,1.3559
4601.00,1.3617
4600.00,1.3674
4599.00,1.3729
4598.00,1.3783
4597.00,1.3837
4596.00,1.3890
4595.00,1.3942
4594.00,1.3995
4593.00,1.4047
4592.00,1.4098
4591.00,1.4149
4590.00,1.4198
4589.00,1.4245
4588.00,1.4292
4587.00,1.4338
4586.00,1.4384
4585.00,1.4429
4584.00,1.4473
4583.00,1.4516
4582.00,1.4557
4581.00,1.4596
4580.00,1.4635
4579.00,1.4675
4578.00,1.4714
4577.00,1.4754
4576.00,1.4793
4575.00,1.4830
4574.00,1.4865
4573.00,1.4898
4572.00,1.4932
4571.00,1.4966
4570.00,1.4999
4569.00,1.5030
4568.00,1.5059
4567.00,1.5088
4566.00,1.5116
4565.00,1.5146
4564.00,1.5175
4563.00,1.5205
4562.00,1.5234
4561.00,1.5261
4560.00,1.5288
4559.00,1.5315
4558.00,1.5340
4557.00,1.5363
4556.00,1.5383
4555.00,1.5403
4554.00,1.5423
4553.00,1.5444
4552.00,1.5465
4551.00,1.5486
4550.00,1.5503
4549.00,1.5518
4548.00,1.5533
4547.00,1.5547
4546.00,1.5562
4545.00,1.5578
4544.00,1.5594
4543.00,1.5609
4542.00,1.5622
4541.00,1.5634
4540.00,1.5645
4539.00,1.5657
4538.00,1.5669
4537.00,1.5680
4536.00,1.5690
4535.00,1.5698
4534.00,1.5705
4533.00,1.5710
4532.00,1.5714
4531.00,1.5716
4530.00,1.5718
4529.00,1.5721
4528.00,1.5725
4527.00,1.5730
4526.00,1.5734
4525.00,1.5737
4524.00,1.5737
4523.00,1.5735
4522.00,1.5733
4521.00,1.5729
4520.00,1.5725
4519.00,1.5721
4518.00,1.5718
4517.00,1.5715
4516.00,1.5711
4515.00,1.5706
4514.00,1.5697
4513.00,1.5687
4512.00,1.5677
4511.00,1.5666
4510.00,1.5657
4509.00,1.5647
4508.00,1.5637
4507.00,1.5627
4506.00,1.5616
4505.00,1.5603
4504.00,1.5589
4503.00,1.5574
4502.00,1.5559
4501.00,1.5544
4500.00,1.5528
4499.00,1.5511
4498.00,1.5492
4497.00,1.5472
4496.00,1.5450
4495.00,1.5429
4494.00,1.5407
4493.00,1.5384
4492.00,1.5361
4491.00,1.5338
4490.00,1.5314
4489.00,1.5290
4488.00,1.5265
4487.00,1.5239
4486.00,1.5212
4485.00,1.5185
4484.00,1.5156
4483.00,1.5128
4482.00,1.5098
4481.00,1.5068
4480.00,1.5036
4479.00,1.5003
4478.00,1.4967
4477.00,1.4931
4476.00,1.4894
4475.00,1.4857
4474.00,1.4819
4473.00,1.4779
4472.00,1.4740
4471.00,1.4702
4470.00,1.4665
4469.00,1.4628
4468.00,1.4588
4467.00,1.4544
4466.00,1.4497
4465.00,1.4450
4464.00,1.4404
4463.00,1.4359
4462.00,1.4313
4461.00,1.4265
4460.00,1.4215
4459.00,1.4165
4458.00,1.4115
4457.00,1.4064
4456.00,1.4012
4455.00,1.3959
4454.00,1.3903
4453.00,1.3846
4452.00,1.3788
4451.00,1.3730
4450.00,1.3670
4449.00,1.3610
4448.00,1.3548
4447.00,1.3486
4446.00,1.3424
4445.00,1.3361
4444.00,1.3296
4443.00,1.3230
4442.00,1.3162
4441.00,1.3094
4440.00,1.3024
4439.00,1.2953
4438.00,1.2882
4437.00,1.2810
4436.00,1.2736
4435.00,1.2662
4434.00,1.2587
4433.00,1.2510
4432.00,1.2432
4431.00,1.2353
4430.00,1.2272
4429.00,1.2190
4428.00,1.2107
4427.00,1.2024
4426.00,1.1939
4425.00,1.1854
4424.00,1.1768
4423.00,1.1682
4422.00,1.1594
4421.00,1.1505
4420.00,1.1414
4419.00,1.1323
4418.00,1.1231
4417.00,1.1138
4416.00,1.1044
4415.00,1.0949
4414.00,1.0854
4413.00,1.0758
4412.00,1.0663
4411.00,1.0566
4410.00,1.0470
4409.00,1.0372
4408.00,1.0274
4407.00,1.0176
4406.00,1.0078
4405.00,0.9980
4404.00,0.9882
4403.00,0.9785
4402.00,0.9687
4401.00,0.9590
4400.00,0.9494
4399.00,0.9398
4398.00,0.9303
4397.00,0.9209
4396.00,0.9117
4395.00,0.9025
4394.00,0.8936
4393.00,0.8848
4392.00,0.8761
4391.00,0.8677
4390.00,0.8594
4389.00,0.8514
4388.00,0.8435
4387.00,0.8358
4386.00,0.8285
4385.00,0.8214
4384.00,0.8147
4383.00,0.8083
4382.00,0.8023
4381.00,0.7965
4380.00,0.7910
4379.00,0.7859
4378.00,0.7811
4377.00,0.7767
4376.00,0.7727
4375.00,0.7690
4374.00,0.7656
4373.00,0.7626
4372.00,0.7599
4371.00,0.7576
4370.00,0.7555
4369.00,0.7537
4368.00,0.7522
4367.00,0.7511
4366.00,0.7502
4365.00,0.7497
4364.00,0.7494
4363.00,0.7495
4362.00,0.7498
4361.00,0.7505
4360.00,0.7514
4359.00,0.7527
4358.00,0.7543
4357.00,0.7564
4356.00,0.7588
4355.00,0.7617
4354.00,0.7649
4353.00,0.7686
4352.00,0.7725
4351.00,0.7768
4350.00,0.7814
4349.00,0.7863
4348.00,0.7915
4347.00,0.7970
4346.00,0.8028
4345.00,0.8088
4344.00,0.8150
4343.00,0.8214
4342.00,0.8280
4341.00,0.8348
4340.00,0.8418
4339.00,0.8488
4338.00,0.8561
4337.00,0.8637
4336.00,0.8715
4335.00,0.8795
4334.00,0.8877
4333.00,0.8960
4332.00,0.9045
4331.00,0.9132
4330.00,0.9221
4329.00,0.9311
4328.00,0.9402
4327.00,0.9495
4326.00,0.9589
4325.00,0.9684
4324.00,0.9780
4323.00,0.9876
4322.00,0.9972
4321.00,1.0069
4320.00,1.0167
4319.00,1.0264
4318.00,1.0362
4317.00,1.0459
4316.00,1.0557
4315.00,1.0655
4314.00,1.0752
4313.00,1.0850
4312.00,1.0947
4311.00,1.1043
4310.00,1.1139
4309.00,1.1234
4308.00,1.1329
4307.00,1.1424
4306.00,1.1517
4305.00,1.1610
4304.00,1.1702
4303.00,1.1795
4302.00,1.1886
4301.00,1.1977
4300.00,1.2068
4299.00,1.2158
4298.00,1.2249
4297.00,1.2340
4296.00,1.2429
4295.00,1.2518
4294.00,1.2606
4293.00,1.2693
4292.00,1.2780
4291.00,1.2865
4290.00,1.2949
4289.00,1.3031
4288.00,1.3113
4287.00,1.3194
4286.00,1.3274
4285.00,1.3352
4284.00,1.3428
4283.00,1.3503
4282.00,1.3576
4281.00,1.3648
4280.00,1.3719
4279.00,1.3790
4278.00,1.3861
4277.00,1.3931
4276.00,1.4001
4275.00,1.4069
4274.00,1.4135
4273.00,1.4200
4272.00,1.4264
4271.00,1.4327
4270.00,1.4389
4269.00,1.4450
4268.00,1.4510
4267.00,1.4570
4266.00,1.4630
4265.00,1.4688
4264.00,1.4745
4263.00,1.4800
4262.00,1.4854
4261.00,1.4907
4260.00,1.4961
4259.00,1.5014
4258.00,1.5067
4257.00,1.5120
4256.00,1.5172
4255.00,1.5223
4254.00,1.5271
4253.00,1.5316
4252.00,1.5362
4251.00,1.5407
4250.00,1.5453
4249.00,1.5499
4248.00,1.5544
4247.00,1.5588
4246.00,1.5631
4245.00,1.5674
4244.00,1.5717
4243.00,1.5759
4242.00,1.5800
4241.00,1.5840
4240.00,1.5879
4239.00,1.5917
4238.00,1.5953
4237.00,1.5988
4236.00,1.6022
4235.00,1.6056
4234.00,1.6090
4233.00,1.6124
4232.00,1.6158
4231.00,1.6190
4230.00,1.6220
4229.00,1.6248
4228.00,1.6274
4227.00,1.6299
4226.00,1.6325
4225.00,1.6352
4224.00,1.6380
4223.00,1.6407
4222.00,1.6432
4221.00,1.6455
4220.00,1.6479
4219.00,1.6504
4218.00,1.6528
4217.00,1.6551
4216.00,1.6569
4215.00,1.6585
4214.00,1.6601
4213.00,1.6618
4212.00,1.6635
4211.00,1.6651
4210.00,1.6665
4209.00,1.6678
4208.00,1.6691
4207.00,1.6705
4206.00,1.6718
4205.00,1.6731
4204.00,1.6743
4203.00,1.6755
4202.00,1.6764
4201.00,1.6770
4200.00,1.6774
4199.00,1.6778
4198.00,1.6782
4197.00,1.6788
4196.00,1.6796
4195.00,1.6803
4194.00,1.6810
4193.00,1.6815
4192.00,1.6818
4191.00,1.6820
4190.00,1.6821
4189.00,1.6821
4188.00,1.6821
4187.00,1.6819
4186.00,1.6817
4185.00,1.6814
4184.00,1.6811
4183.00,1.6808
4182.00,1.6804
4181.00,1.6798
4180.00,1.6792
4179.00,1.6787
4178.00,1.6781
4177.00,1.6775
4176.00,1.6767
4175.00,1.6758
4174.00,1.6746
4173.00,1.6733
4172.00,1.6717
4171.00,1.6701
4170.00,1.6687
4169.00,1.6673
4168.00,1.6661
4167.00,1.6649
4166.00,1.6635
4165.00,1.6620
4164.00,1.6604
4163.00,1.6587
4162.00,1.6569
4161.00,1.6551
4160.00,1.6531
4159.00,1.6511
4158.00,1.6489
4157.00,1.6467
4156.00,1.6445
4155.00,1.6421
4154.00,1.6398
4153.00,1.6373
4152.00,1.6347
4151.00,1.6319
4150.00,1.6290
4149.00,1.6259
4148.00,1.6228
4147.00,1.6197
4146.00,1.6167
4145.00,1.6138
4144.00,1.6108
4143.00,1.6078
4142.00,1.6045
4141.00,1.6010
4140.00,1.5972
4139.00,1.5933
4138.00,1.5894
4137.00,1.5855
4136.00,1.5816
4135.00,1.5778
4134.00,1.5739
4133.00,1.5699
4132.00,1.5657
4131.00,1.5611
4130.00,1.5565
4129.00,1.5519
4128.00,1.5472
4127.00,1.5423
4126.00,1.5373
4125.00,1.5321
4124.00,1.5269
4123.00,1.5217
4122.00,1.5165
4121.00,1.5113
4120.00,1.5060
4119.00,1.5006
4118.00,1.4949
4117.00,1.4889
4116.00,1.4828
4115.00,1.4766
4114.00,1.4704
4113.00,1.4643
4112.00,1.4581
4111.00,1.4516
4110.00,1.4450
4109.00,1.4382
4108.00,1.4314
4107.00,1.4245
4106.00,1.4174
4105.00,1.4103
4104.00,1.4029
4103.00,1.3954
4102.00,1.3877
4101.00,1.3799
4100.00,1.3721
4099.00,1.3643
4098.00,1.3563
4097.00,1.3482
4096.00,1.3399
4095.00,1.3314
4094.00,1.3227
4093.00,1.3139
4092.00,1.3049
4091.00,1.2959
4090.00,1.2869
4089.00,1.2778
4088.00,1.2686
4087.00,1.2592
4086.00,1.2496
4085.00,1.2399
4084.00,1.2301
4083.00,1.2203
4082.00,1.2103
4081.00,1.2002
4080.00,1.1899
4079.00,1.1795
4078.00,1.1690
4077.00,1.1585
4076.00,1.1478
4075.00,1.1369
4074.00,1.1259
4073.00,1.1148
4072.00,1.1037
4071.00,1.0924
4070.00,1.0810
4069.00,1.0695
4068.00,1.0580
4067.00,1.0463
4066.00,1.0347
4065.00,1.0230
4064.00,1.0112
4063.00,0.9994
4062.00,0.9877
4061.00,0.9761
4060.00,0.9645
4059.00,0.9530
4058.00,0.9417
4057.00,0.9305
4056.00,0.9195
4055.00,0.9087
4054.00,0.8979
4053.00,0.8873
4052.00,0.8769
4051.00,0.8668
4050.00,0.8569
4049.00,0.8473
4048.00,0.8381
4047.00,0.8292
4046.00,0.8206
4045.00,0.8123
4044.00,0.8044
4043.00,0.7969
4042.00,0.7897
4041.00,0.7830
4040.00,0.7767
4039.00,0.7709
4038.00,0.7655
4037.00,0.7607
4036.00,0.7563
4035.00,0.7524
4034.00,0.7491
4033.00,0.7464
4032.00,0.7442
4031.00,0.7426
4030.00,0.7416
4029.00,0.7411
4028.00,0.7414
4027.00,0.7422
4026.00,0.7437
4025.00,0.7458
4024.00,0.7484
4023.00,0.7515
4022.00,0.7552
4021.00,0.7594
4020.00,0.7641
4019.00,0.7692
4018.00,0.7748
4017.00,0.7807
4016.00,0.7870
4015.00,0.7937
4014.00,0.8007
4013.00,0.8080
4012.00,0.8155
4011.00,0.8234
4010.00,0.8316
4009.00,0.8400
4008.00,0.8487
4007.00,0.8575
4006.00,0.8666
4005.00,0.8758
4004.00,0.8853
4003.00,0.8949
4002.00,0.9047
4001.00,0.9147
4000.00,0.9248
3999.00,0.9351
3998.00,0.9456
3997.00,0.9562
3996.00,0.9669
3995.00,0.9777
3994.00,0.9886
3993.00,0.9995
3992.00,1.0105
3991.00,1.0215
3990.00,1.0327
3989.00,1.0440
3988.00,1.0553
3987.00,1.0667
3986.00,1.0781
3985.00,1.0895
3984.00,1.1009
3983.00,1.1122
3982.00,1.1236
3981.00,1.1350
3980.00,1.1463
3979.00,1.1575
3978.00,1.1685
3977.00,1.1795
3976.00,1.1904
3975.00,1.2014
3974.00,1.2124
3973.00,1.2233
3972.00,1.2341
3971.00,1.2448
3970.00,1.2554
3969.00,1.2658
3968.00,1.2762
3967.00,1.2866
3966.00,1.2968
3965.00,1.3069
3964.00,1.3170
3963.00,1.3269
3962.00,1.3369
3961.00,1.3468
3960.00,1.3566
3959.00,1.3662
3958.00,1.3757
3957.00,1.3851
3956.00,1.3943
3955.00,1.4034
3954.00,1.4122
3953.00,1.4209
3952.00,1.4295
3951.00,1.4379
3950.00,1.4462
3949.00,1.4544
3948.00,1.4625
3947.00,1.4705
3946.00,1.4782
3945.00,1.4857
3944.00,1.4932
3943.00,1.5008
3942.00,1.5084
3941.00,1.5159
3940.00,1.5233
3939.00,1.5305
3938.00,1.5376
3937.00,1.5445
3936.00,1.5512
3935.00,1.5577
3934.00,1.5641
3933.00,1.5705
3932.00,1.5770
3931.00,1.5834
3930.00,1.5899
3929.00,1.5961
3928.00,1.6022
3927.00,1.6079
3926.00,1.6135
3925.00,1.6191
3924.00,1.6247
3923.00,1.6303
3922.00,1.6357
3921.00,1.6409
3920.00,1.6458
3919.00,1.6508
3918.00,1.6560
3917.00,1.6613
3916.00,1.6664
3915.00,1.6712
3914.00,1.6759
3913.00,1.6806
3912.00,1.6855
3911.00,1.6904
3910.00,1.6951
3909.00,1.6993
3908.00,1.7030
3907.00,1.7064
3906.00,1.7098
3905.00,1.7134
3904.00,1.7171
3903.00,1.7207
3902.00,1.7243
3901.00,1.7280
3900.00,1.7319
3899.00,1.7359
3898.00,1.7399
3897.00,1.7436
3896.00,1.7469
3895.00,1.7499
3894.00,1.7526
3893.00,1.7553
3892.00,1.7580
3891.00,1.7608
3890.00,1.7635
3889.00,1.7660
3888.00,1.7684
3887.00,1.7709
3886.00,1.7736
3885.00,1.7764
3884.00,1.7789
3883.00,1.7813
3882.00,1.7835
3881.00,1.7857
3880.00,1.7878
3879.00,1.7897
3878.00,1.7914
3877.00,1.7929
3876.00,1.7945
3875.00,1.7963
3874.00,1.7981
3873.00,1.7996
3872.00,1.8007
3871.00,1.8016
3870.00,1.8024
3869.00,1.8032
3868.00,1.8041
3867.00,1.8051
3866.00,1.8063
3865.00,1.8078
3864.00,1.8093
3863.00,1.8106
3862.00,1.8115
3861.00,1.8121
3860.00,1.8125
3859.00,1.8129
3858.00,1.8132
3857.00,1.8129
3856.00,1.8121
3855.00,1.8111
3854.00,1.8105
3853.00,1.8102
3852.00,1.8098
3851.00,1.8094
3850.00,1.8094
3849.00,1.8098
3848.00,1.8106
3847.00,1.8113
3846.00,1.8120
3845.00,1.8123
3844.00,1.8121
3843.00,1.8113
3842.00,1.8102
3841.00,1.8089
3840.00,1.8075
3839.00,1.8062
3838.00,1.8049
3837.00,1.8034
3836.00,1.8019
3835.00,1.8004
3834.00,1.7993
3833.00,1.7982
3832.00,1.7968
3831.00,1.7952
3830.00,1.7935
3829.00,1.7920
3828.00,1.7905
3827.00,1.7890
3826.00,1.7872
3825.00,1.7850
3824.00,1.7824
3823.00,1.7798
3822.00,1.7774
3821.00,1.7750
3820.00,1.7724
3819.00,1.7695
3818.00,1.7666
3817.00,1.7639
3816.00,1.7613
3815.00,1.7585
3814.00,1.7556
3813.00,1.7525
3812.00,1.7493
3811.00,1.7460
3810.00,1.7429
3809.00,1.7398
3808.00,1.7367
3807.00,1.7333
3806.00,1.7296
3805.00,1.7255
3804.00,1.7211
3803.00,1.7167
3802.00,1.7124
3801.00,1.7082
3800.00,1.7038
3799.00,1.6992
3798.00,1.6947
3797.00,1.6903
3796.00,1.6860
3795.00,1.6817
3794.00,1.6772
3793.00,1.6725
3792.00,1.6675
3791.00,1.6625
3790.00,1.6574
3789.00,1.6522
3788.00,1.6469
3787.00,1.6416
3786.00,1.6362
3785.00,1.6307
3784.00,1.6248
3783.00,1.6188
3782.00,1.6126
3781.00,1.6061
3780.00,1.5993
3779.00,1.5922
3778.00,1.5851
3777.00,1.5781
3776.00,1.5711
3775.00,1.5641
3774.00,1.5571
3773.00,1.5500
3772.00,1.5428
3771.00,1.5354
3770.00,1.5277
3769.00,1.5196
3768.00,1.5112
3767.00,1.5027
3766.00,1.4942
3765.00,1.4857
3764.00,1.4773
3763.00,1.4688
3762.00,1.4603
3761.00,1.4516
3760.00,1.4426
3759.00,1.4332
3758.00,1.4235
3757.00,1.4136
3756.00,1.4034
3755.00,1.3931
3754.00,1.3824
3753.00,1.3714
3752.00,1.3600
3751.00,1.3482
3750.00,1.3361
3749.00,1.3237
3748.00,1.3113
3747.00,1.2993
3746.00,1.2872
3745.00,1.2749
3744.00,1.2624
3743.00,1.2501
3742.00,1.2385
3741.00,1.2276
3740.00,1.2170
3739.00,1.2063
3738.00,1.1957
3737.00,1.1848
3736.00,1.1734
3735.00,1.1618
3734.00,1.1499
3733.00,1.1378
3732.00,1.1253
3731.00,1.1128
3730.00,1.1004
3729.00,1.0880
3728.00,1.0752
3727.00,1.0620
3726.00,1.0481
3725.00,1.0336
3724.00,1.0187
3723.00,1.0032
3722.00,0.9873
3721.00,0.9709
3720.00,0.9546
3719.00,0.9389
3718.00,0.9245
3717.00,0.9113
3716.00,0.8988
3715.00,0.8865
3714.00,0.8747
3713.00,0.8639
3712.00,0.8544
3711.00,0.8458
3710.00,0.8374
3709.00,0.8292
3708.00,0.8214
3707.00,0.8145
3706.00,0.8086
3705.00,0.8035
3704.00,0.7992
3703.00,0.7956
3702.00,0.7925
3701.00,0.7897
3700.00,0.7873
3699.00,0.7854
3698.00,0.7845
3697.00,0.7846
3696.00,0.7858
3695.00,0.7878
3694.00,0.7906
3693.00,0.7941
3692.00,0.7983
3691.00,0.8033
3690.00,0.8091
3689.00,0.8154
3688.00,0.8221
3687.00,0.8292
3686.00,0.8366
3685.00,0.8446
3684.00,0.8535
3683.00,0.8632
3682.00,0.8737
3681.00,0.8845
3680.00,0.8954
3679.00,0.9062
3678.00,0.9170
3677.00,0.9286
3676.00,0.9415
3675.00,0.9553
3674.00,0.9682
3673.00,0.9799
3672.00,0.9913
3671.00,1.0039
3670.00,1.0180
3669.00,1.0328
3668.00,1.0471
3667.00,1.0607
3666.00,1.0738
3665.00,1.0869
3664.00,1.1002
3663.00,1.1136
3662.00,1.1270
3661.00,1.1402
3660.00,1.1531
3659.00,1.1658
3658.00,1.1784
3657.00,1.1915
3656.00,1.2052
3655.00,1.2189
3654.00,1.2317
3653.00,1.2434
3652.00,1.2547
3651.00,1.2665
3650.00,1.2793
3649.00,1.2929
3648.00,1.3068
3647.00,1.3205
3646.00,1.3336
3645.00,1.3461
3644.00,1.3582
3643.00,1.3701
3642.00,1.3819
3641.00,1.3938
3640.00,1.4057
3639.00,1.4176
3638.00,1.4295
3637.00,1.4412
3636.00,1.4530
3635.00,1.4649
3634.00,1.4767
3633.00,1.4881
3632.00,1.4987
3631.00,1.5088
3630.00,1.5192
3629.00,1.5308
3628.00,1.5431
3627.00,1.5551
3626.00,1.5661
3625.00,1.5760
3624.00,1.5851
3623.00,1.5935
3622.00,1.6010
3621.00,1.6081
3620.00,1.6152
3619.00,1.6226
3618.00,1.6298
3617.00,1.6368
3616.00,1.6440
3615.00,1.6513
3614.00,1.6586
3613.00,1.6658
3612.00,1.6727
3611.00,1.6799
3610.00,1.6876
3609.00,1.6960
3608.00,1.7049
3607.00,1.7138
3606.00,1.7220
3605.00,1.7296
3604.00,1.7369
3603.00,1.7438
3602.00,1.7502
3601.00,1.7564
3600.00,1.7624
3599.00,1.7683
3598.00,1.7738
3597.00,1.7791
3596.00,1.7842
3595.00,1.7891
3594.00,1.7937
3593.00,1.7984
3592.00,1.8033
3591.00,1.8081
3590.00,1.8125
3589.00,1.8167
3588.00,1.8210
3587.00,1.8255
3586.00,1.8301
3585.00,1.8348
3584.00,1.8397
3583.00,1.8445
3582.00,1.8491
3581.00,1.8534
3580.00,1.8576
3579.00,1.8617
3578.00,1.8658
3577.00,1.8698
3576.00,1.8739
3575.00,1.8779
3574.00,1.8817
3573.00,1.8852
3572.00,1.8885
3571.00,1.8915
3570.00,1.8943
3569.00,1.8971
3568.00,1.9001
3567.00,1.9033
3566.00,1.9067
3565.00,1.9101
3564.00,1.9135
3563.00,1.9165
3562.00,1.9190
3561.00,1.9212
3560.00,1.9237
3559.00,1.9265
3558.00,1.9294
3557.00,1.9321
3556.00,1.9347
3555.00,1.9371
3554.00,1.9393
3553.00,1.9414
3552.00,1.9435
3551.00,1.9455
3550.00,1.9472
3549.00,1.9486
3548.00,1.9504
3547.00,1.9524
3546.00,1.9545
3545.00,1.9564
3544.00,1.9579
3543.00,1.9589
3542.00,1.9597
3541.00,1.9607
3540.00,1.9623
3539.00,1.9642
3538.00,1.9658
3537.00,1.9669
3536.00,1.9677
3535.00,1.9682
3534.00,1.9685
3533.00,1.9688
3532.00,1.9694
3531.00,1.9699
3530.00,1.9702
3529.00,1.9703
3528.00,1.9704
3527.00,1.9705
3526.00,1.9707
3525.00,1.9713
3524.00,1.9721
3523.00,1.9727
3522.00,1.9726
3521.00,1.9721
3520.00,1.9716
3519.00,1.9714
3518.00,1.9714
3517.00,1.9716
3516.00,1.9719
3515.00,1.9722
3514.00,1.9722
3513.00,1.9717
3512.00,1.9710
3511.00,1.9702
3510.00,1.9695
3509.00,1.9688
3508.00,1.9683
3507.00,1.9678
3506.00,1.9674
3505.00,1.9669
3504.00,1.9664
3503.00,1.9656
3502.00,1.9644
3501.00,1.9628
3500.00,1.9613
3499.00,1.9598
3498.00,1.9584
3497.00,1.9569
3496.00,1.9555
3495.00,1.9539
3494.00,1.9520
3493.00,1.9500
3492.00,1.9480
3491.00,1.9458
3490.00,1.9432
3489.00,1.9402
3488.00,1.9372
3487.00,1.9344
3486.00,1.9318
3485.00,1.9295
3484.00,1.9271
3483.00,1.9243
3482.00,1.9211
3481.00,1.9177
3480.00,1.9143
3479.00,1.9109
3478.00,1.9075
3477.00,1.9041
3476.00,1.9007
3475.00,1.8972
3474.00,1.8934
3473.00,1.8893
3472.00,1.8851
3471.00,1.8809
3470.00,1.8768
3469.00,1.8725
3468.00,1.8680
3467.00,1.8635
3466.00,1.8588
3465.00,1.8540
3464.00,1.8492
3463.00,1.8442
3462.00,1.8391
3461.00,1.8339
3460.00,1.8286
3459.00,1.8231
3458.00,1.8174
3457.00,1.8114
3456.00,1.8054
3455.00,1.7993
3454.00,1.7932
3453.00,1.7871
3452.00,1.7809
3451.00,1.7746
3450.00,1.7683
3449.00,1.7618
3448.00,1.7550
3447.00,1.7480
3446.00,1.7409
3445.00,1.7336
3444.00,1.7262
3443.00,1.7188
3442.00,1.7113
3441.00,1.7037
3440.00,1.6958
3439.00,1.6875
3438.00,1.6790
3437.00,1.6704
3436.00,1.6619
3435.00,1.6534
3434.00,1.6449
3433.00,1.6363
3432.00,1.6277
3431.00,1.6190
3430.00,1.6099
3429.00,1.6006
3428.00,1.5912
3427.00,1.5819
3426.00,1.5728
3425.00,1.5637
3424.00,1.5547
3423.00,1.5456
3422.00,1.5364
3421.00,1.5271
3420.00,1.5179
3419.00,1.5088
3418.00,1.5001
3417.00,1.4918
3416.00,1.4837
3415.00,1.4759
3414.00,1.4683
3413.00,1.4608
3412.00,1.4533
3411.00,1.4459
3410.00,1.4386
3409.00,1.4312
3408.00,1.4237
3407.00,1.4161
3406.00,1.4082
3405.00,1.3999
3404.00,1.3910
3403.00,1.3816
3402.00,1.3715
3401.00,1.3607
3400.00,1.3492
3399.00,1.3370
3398.00,1.3241
3397.00,1.3107
3396.00,1.2967
3395.00,1.2823
3394.00,1.2674
3393.00,1.2521
3392.00,1.2365
3391.00,1.2207
3390.00,1.2049
3389.00,1.1890
3388.00,1.1732
3387.00,1.1574
3386.00,1.1418
3385.00,1.1264
3384.00,1.1111
3383.00,1.0961
3382.00,1.0814
3381.00,1.0671
3380.00,1.0532
3379.00,1.0398
3378.00,1.0269
3377.00,1.0147
3376.00,1.0031
3375.00,0.9921
3374.00,0.9819
3373.00,0.9725
3372.00,0.9638
3371.00,0.9561
3370.00,0.9492
3369.00,0.9432
3368.00,0.9382
3367.00,0.9342
3366.00,0.9310
3365.00,0.9288
3364.00,0.9274
3363.00,0.9270
3362.00,0.9274
3361.00,0.9287
3360.00,0.9308
3359.00,0.9337
3358.00,0.9374
3357.00,0.9420
3356.00,0.9472
3355.00,0.9531
3354.00,0.9597
3353.00,0.9669
3352.00,0.9746
3351.00,0.9829
3350.00,0.9917
3349.00,1.0009
3348.00,1.0106
3347.00,1.0208
3346.00,1.0314
3345.00,1.0424
3344.00,1.0536
3343.00,1.0650
3342.00,1.0767
3341.00,1.0886
3340.00,1.1008
3339.00,1.1132
3338.00,1.1258
3337.00,1.1386
3336.00,1.1516
3335.00,1.1648
3334.00,1.1780
3333.00,1.1913
3332.00,1.2047
3331.00,1.2181
3330.00,1.2316
3329.00,1.2452
3328.00,1.2587
3327.00,1.2723
3326.00,1.2859
3325.00,1.2995
3324.00,1.3132
3323.00,1.3268
3322.00,1.3404
3321.00,1.3539
3320.00,1.3673
3319.00,1.3808
3318.00,1.3942
3317.00,1.4075
3316.00,1.4208
3315.00,1.4341
3314.00,1.4472
3313.00,1.4601
3312.00,1.4729
3311.00,1.4857
3310.00,1.4985
3309.00,1.5112
3308.00,1.5238
3307.00,1.5363
3306.00,1.5484
3305.00,1.5603
3304.00,1.5720
3303.00,1.5834
3302.00,1.5945
3301.00,1.6056
3300.00,1.6167
3299.00,1.6277
3298.00,1.6386
3297.00,1.6493
3296.00,1.6599
3295.00,1.6704
3294.00,1.6808
3293.00,1.6910
3292.00,1.7008
3291.00,1.7102
3290.00,1.7192
3289.00,1.7280
3288.00,1.7368
3287.00,1.7456
3286.00,1.7544
3285.00,1.7633
3284.00,1.7722
3283.00,1.7807
3282.00,1.7887
3281.00,1.7965
3280.00,1.8043
3279.00,1.8122
3278.00,1.8203
3277.00,1.8284
3276.00,1.8364
3275.00,1.8441
3274.00,1.8516
3273.00,1.8590
3272.00,1.8665
3271.00,1.8739
3270.00,1.8808
3269.00,1.8873
3268.00,1.8933
3267.00,1.8992
3266.00,1.9052
3265.00,1.9113
3264.00,1.9175
3263.00,1.9235
3262.00,1.9295
3261.00,1.9355
3260.00,1.9413
3259.00,1.9470
3258.00,1.9524
3257.00,1.9578
3256.00,1.9631
3255.00,1.9682
3254.00,1.9729
3253.00,1.9775
3252.00,1.9823
3251.00,1.9873
3250.00,1.9923
3249.00,1.9974
3248.00,2.0024
3247.00,2.0072
3246.00,2.0116
3245.00,2.0156
3244.00,2.0196
3243.00,2.0237
3242.00,2.0280
3241.00,2.0325
3240.00,2.0368
3239.00,2.0407
3238.00,2.0442
3237.00,2.0475
3236.00,2.0510
3235.00,2.0547
3234.00,2.0582
3233.00,2.0617
3232.00,2.0651
3231.00,2.0683
3230.00,2.0711
3229.00,2.0736
3228.00,2.0761
3227.00,2.0787
3226.00,2.0812
3225.00,2.0837
3224.00,2.0863
3223.00,2.0889
3222.00,2.0912
3221.00,2.0933
3220.00,2.0952
3219.00,2.0971
3218.00,2.0991
3217.00,2.1011
3216.00,2.1030
3215.00,2.1048
3214.00,2.1064
3213.00,2.1079
3212.00,2.1093
3211.00,2.1107
3210.00,2.1122
3209.00,2.1137
3208.00,2.1151
3207.00,2.1162
3206.00,2.1170
3205.00,2.1178
3204.00,2.1188
3203.00,2.1200
3202.00,2.1209
3201.00,2.1214
3200.00,2.1216
3199.00,2.1218
3198.00,2.1220
3197.00,2.1224
3196.00,2.1229
3195.00,2.1232
3194.00,2.1234
3193.00,2.1235
3192.00,2.1234
3191.00,2.1230
3190.00,2.1225
3189.00,2.1222
3188.00,2.1220
3187.00,2.1218
3186.00,2.1212
3185.00,2.1204
3184.00,2.1196
3183.00,2.1187
3182.00,2.1177
3181.00,2.1165
3180.00,2.1153
3179.00,2.1144
3178.00,2.1134
3177.00,2.1123
3176.00,2.1110
3175.00,2.1095
3174.00,2.1077
3173.00,2.1059
3172.00,2.1040
3171.00,2.1022
3170.00,2.1006
3169.00,2.0992
3168.00,2.0979
3167.00,2.0964
3166.00,2.0942
3165.00,2.0914
3164.00,2.0883
3163.00,2.0851
3162.00,2.0819
3161.00,2.0789
3160.00,2.0758
3159.00,2.0727
3158.00,2.0696
3157.00,2.0665
3156.00,2.0634
3155.00,2.0602
3154.00,2.0568
3153.00,2.0535
3152.00,2.0502
3151.00,2.0469
3150.00,2.0433
3149.00,2.0394
3148.00,2.0351
3147.00,2.0302
3146.00,2.0252
3145.00,2.0202
3144.00,2.0153
3143.00,2.0106
3142.00,2.0060
3141.00,2.0015
3140.00,1.9968
3139.00,1.9919
3138.00,1.9867
3137.00,1.9813
3136.00,1.9757
3135.00,1.9698
3134.00,1.9638
3133.00,1.9577
3132.00,1.9517
3131.00,1.9457
3130.00,1.9394
3129.00,1.9330
3128.00,1.9262
3127.00,1.9193
3126.00,1.9121
3125.00,1.9048
3124.00,1.8974
3123.00,1.8898
3122.00,1.8820
3121.00,1.8742
3120.00,1.8665
3119.00,1.8587
3118.00,1.8504
3117.00,1.8417
3116.00,1.8328
3115.00,1.8237
3114.00,1.8144
3113.00,1.8050
3112.00,1.7954
3111.00,1.7855
3110.00,1.7754
3109.00,1.7649
3108.00,1.7542
3107.00,1.7434
3106.00,1.7326
3105.00,1.7216
3104.00,1.7104
3103.00,1.6990
3102.00,1.6870
3101.00,1.6746
3100.00,1.6618
3099.00,1.6489
3098.00,1.6360
3097.00,1.6229
3096.00,1.6095
3095.00,1.5955
3094.00,1.5811
3093.00,1.5665
3092.00,1.5516
3091.00,1.5365
3090.00,1.5210
3089.00,1.5053
3088.00,1.4893
3087.00,1.4730
3086.00,1.4564
3085.00,1.4395
3084.00,1.4223
3083.00,1.4048
3082.00,1.3871
3081.00,1.3691
3080.00,1.3509
3079.00,1.3325
3078.00,1.3139
3077.00,1.2952
3076.00,1.2765
3075.00,1.2579
3074.00,1.2393
3073.00,1.2209
3072.00,1.2028
3071.00,1.1849
3070.00,1.1674
3069.00,1.1502
3068.00,1.1336
3067.00,1.1177
3066.00,1.1024
3065.00,1.0879
3064.00,1.0743
3063.00,1.0615
3062.00,1.0498
3061.00,1.0392
3060.00,1.0297
3059.00,1.0216
3058.00,1.0147
3057.00,1.0091
3056.00,1.0050
3055.00,1.0022
3054.00,1.0008
3053.00,1.0007
3052.00,1.0019
3051.00,1.0043
3050.00,1.0080
3049.00,1.0130
3048.00,1.0192
3047.00,1.0268
3046.00,1.0357
3045.00,1.0459
3044.00,1.0575
3043.00,1.0704
3042.00,1.0845
3041.00,1.0999
3040.00,1.1163
3039.00,1.1336
3038.00,1.1518
3037.00,1.1708
3036.00,1.1905
3035.00,1.2107
3034.00,1.2312
3033.00,1.2521
3032.00,1.2733
3031.00,1.2946
3030.00,1.3159
3029.00,1.3373
3028.00,1.3587
3027.00,1.3800
3026.00,1.4012
3025.00,1.4225
3024.00,1.4439
3023.00,1.4653
3022.00,1.4867
3021.00,1.5081
3020.00,1.5297
3019.00,1.5513
3018.00,1.5729
3017.00,1.5945
3016.00,1.6159
3015.00,1.6371
3014.00,1.6580
3013.00,1.6787
3012.00,1.6993
3011.00,1.7197
3010.00,1.7400
3009.00,1.7602
3008.00,1.7802
3007.00,1.8000
3006.00,1.8195
3005.00,1.8388
3004.00,1.8580
3003.00,1.8770
3002.00,1.8959
3001.00,1.9145
3000.00,1.9329
2999.00,1.9509
2998.00,1.9688
2997.00,1.9866
2996.00,2.0042
2995.00,2.0215
2994.00,2.0386
2993.00,2.0554
2992.00,2.0721
2991.00,2.0886
2990.00,2.1049
2989.00,2.1210
2988.00,2.1370
2987.00,2.1529
2986.00,2.1687
2985.00,2.1842
2984.00,2.1994
2983.00,2.2144
2982.00,2.2293
2981.00,2.2440
2980.00,2.2585
2979.00,2.2729
2978.00,2.2874
2977.00,2.3025
2976.00,2.3183
2975.00,2.3346
2974.00,2.3515
2973.00,2.3693
2972.00,2.3880
2971.00,2.4076
2970.00,2.4289
2969.00,2.4526
2968.00,2.4791
2967.00,2.5074
2966.00,2.5365
2965.00,2.5661
2964.00,2.5968
2963.00,2.6297
2962.00,2.6649
2961.00,2.7008
2960.00,2.7348
2959.00,2.7650
2958.00,2.7914
2957.00,2.8159
2956.00,2.8402
2955.00,2.8648
2954.00,2.8898
2953.00,2.9150
2952.00,2.9409
2951.00,2.9677
2950.00,2.9955
2949.00,3.0237
2948.00,3.0511
2947.00,3.0779
2946.00,3.1060
2945.00,3.1371
2944.00,3.1702
2943.00,3.2015
2942.00,3.2279
2941.00,3.2484
2940.00,3.2626
2939.00,3.2695
2938.00,3.2692
2937.00,3.2633
2936.00,3.2541
2935.00,3.2434
2934.00,3.2313
2933.00,3.2139
2932.00,3.1853
2931.00,3.1426
2930.00,3.0894
2929.00,3.0322
2928.00,2.9755
2927.00,2.9206
2926.00,2.8676
2925.00,2.8162
2924.00,2.7660
2923.00,2.7165
2922.00,2.6674
2921.00,2.6191
2920.00,2.5717
2919.00,2.5259
2918.00,2.4820
2917.00,2.4405
2916.00,2.4020
2915.00,2.3676
2914.00,2.3385
2913.00,2.3152
2912.00,2.2972
2911.00,2.2834
2910.00,2.2731
2909.00,2.2662
2908.00,2.2622
2907.00,2.2597
2906.00,2.2575
2905.00,2.2553
2904.00,2.2532
2903.00,2.2517
2902.00,2.2510
2901.00,2.2511
2900.00,2.2519
2899.00,2.2531
2898.00,2.2545
2897.00,2.2565
2896.00,2.2592
2895.00,2.2627
2894.00,2.2672
2893.00,2.2726
2892.00,2.2789
2891.00,2.2861
2890.00,2.2939
2889.00,2.3024
2888.00,2.3112
2887.00,2.3204
2886.00,2.3304
2885.00,2.3412
2884.00,2.3524
2883.00,2.3633
2882.00,2.3743
2881.00,2.3861
2880.00,2.3990
2879.00,2.4130
2878.00,2.4278
2877.00,2.4432
2876.00,2.4596
2875.00,2.4770
2874.00,2.4959
2873.00,2.5163
2872.00,2.5379
2871.00,2.5602
2870.00,2.5831
2869.00,2.6074
2868.00,2.6330
2867.00,2.6583
2866.00,2.6805
2865.00,2.6970
2864.00,2.7060
2863.00,2.7060
2862.00,2.6968
2861.00,2.6791
2860.00,2.6537
2859.00,2.6214
2858.00,2.5836
2857.00,2.5427
2856.00,2.5009
2855.00,2.4594
2854.00,2.4190
2853.00,2.3805
2852.00,2.3455
2851.00,2.3158
2850.00,2.2922
2849.00,2.2745
2848.00,2.2619
2847.00,2.2540
2846.00,2.2502
2845.00,2.2499
2844.00,2.2520
2843.00,2.2556
2842.00,2.2603
2841.00,2.2663
2840.00,2.2733
2839.00,2.2810
2838.00,2.2884
2837.00,2.2955
2836.00,2.3022
2835.00,2.3087
2834.00,2.3150
2833.00,2.3209
2832.00,2.3262
2831.00,2.3308
2830.00,2.3350
2829.00,2.3392
2828.00,2.3427
2827.00,2.3450
2826.00,2.3465
2825.00,2.3479
2824.00,2.3497
2823.00,2.3515
2822.00,2.3525
2821.00,2.3529
2820.00,2.3531
2819.00,2.3533
2818.00,2.3539
2817.00,2.3549
2816.00,2.3564
2815.00,2.3577
2814.00,2.3587
2813.00,2.3597
2812.00,2.3611
2811.00,2.3629
2810.00,2.3645
2809.00,2.3654
2808.00,2.3655
2807.00,2.3647
2806.00,2.3635
2805.00,2.3624
2804.00,2.3614
2803.00,2.3604
2802.00,2.3595
2801.00,2.3584
2800.00,2.3574
2799.00,2.3564
2798.00,2.3556
2797.00,2.3551
2796.00,2.3547
2795.00,2.3542
2794.00,2.3532
2793.00,2.3516
2792.00,2.3497
2791.00,2.3473
2790.00,2.3447
2789.00,2.3423
2788.00,2.3400
2787.00,2.3378
2786.00,2.3353
2785.00,2.3326
2784.00,2.3297
2783.00,2.3267
2782.00,2.3236
2781.00,2.3204
2780.00,2.3170
2779.00,2.3132
2778.00,2.3089
2777.00,2.3046
2776.00,2.3004
2775.00,2.2965
2774.00,2.2927
2773.00,2.2889
2772.00,2.2849
2771.00,2.2808
2770.00,2.2766
2769.00,2.2722
2768.00,2.2673
2767.00,2.2616
2766.00,2.2555
2765.00,2.2497
2764.00,2.2447
2763.00,2.2403
2762.00,2.2361
2761.00,2.2314
2760.00,2.2262
2759.00,2.2202
2758.00,2.2134
2757.00,2.2063
2756.00,2.1996
2755.00,2.1936
2754.00,2.1877
2753.00,2.1813
2752.00,2.1741
2751.00,2.1664
2750.00,2.1585
2749.00,2.1507
2748.00,2.1428
2747.00,2.1345
2746.00,2.1259
2745.00,2.1169
2744.00,2.1080
2743.00,2.0990
2742.00,2.0901
2741.00,2.0809
2740.00,2.0715
2739.00,2.0620
2738.00,2.0524
2737.00,2.0429
2736.00,2.0330
2735.00,2.0226
2734.00,2.0120
2733.00,2.0013
2732.00,1.9906
2731.00,1.9796
2730.00,1.9682
2729.00,1.9564
2728.00,1.9445
2727.00,1.9325
2726.00,1.9202
2725.00,1.9074
2724.00,1.8941
2723.00,1.8803
2722.00,1.8663
2721.00,1.8522
2720.00,1.8380
2719.00,1.8237
2718.00,1.8089
2717.00,1.7937
2716.00,1.7782
2715.00,1.7623
2714.00,1.7461
2713.00,1.7298
2712.00,1.7131
2711.00,1.6961
2710.00,1.6785
2709.00,1.6604
2708.00,1.6420
2707.00,1.6234
2706.00,1.6043
2705.00,1.5848
2704.00,1.5647
2703.00,1.5441
2702.00,1.5234
2701.00,1.5025
2700.00,1.4813
2699.00,1.4599
2698.00,1.4382
2697.00,1.4164
2696.00,1.3944
2695.00,1.3725
2694.00,1.3505
2693.00,1.3287
2692.00,1.3070
2691.00,1.2857
2690.00,1.2649
2689.00,1.2448
2688.00,1.2258
2687.00,1.2082
2686.00,1.1924
2685.00,1.1787
2684.00,1.1673
2683.00,1.1584
2682.00,1.1520
2681.00,1.1482
2680.00,1.1467
2679.00,1.1471
2678.00,1.1487
2677.00,1.1510
2676.00,1.1532
2675.00,1.1552
2674.00,1.1567
2673.00,1.1580
2672.00,1.1594
2671.00,1.1609
2670.00,1.1624
2669.00,1.1634
2668.00,1.1637
2667.00,1.1630
2666.00,1.1617
2665.00,1.1604
2664.00,1.1599
2663.00,1.1612
2662.00,1.1646
2661.00,1.1704
2660.00,1.1787
2659.00,1.1892
2658.00,1.2017
2657.00,1.2158
2656.00,1.2313
2655.00,1.2476
2654.00,1.2645
2653.00,1.2817
2652.00,1.2990
2651.00,1.3164
2650.00,1.3337
2649.00,1.3509
2648.00,1.3680
2647.00,1.3851
2646.00,1.4021
2645.00,1.4191
2644.00,1.4362
2643.00,1.4534
2642.00,1.4708
2641.00,1.4884
2640.00,1.5064
2639.00,1.5248
2638.00,1.5434
2637.00,1.5623
2636.00,1.5814
2635.00,1.6006
2634.00,1.6199
2633.00,1.6394
2632.00,1.6590
2631.00,1.6785
2630.00,1.6979
2629.00,1.7170
2628.00,1.7360
2627.00,1.7547
2626.00,1.7731
2625.00,1.7911
2624.00,1.8084
2623.00,1.8253
2622.00,1.8418
2621.00,1.8581
2620.00,1.8742
2619.00,1.8898
2618.00,1.9051
2617.00,1.9200
2616.00,1.9346
2615.00,1.9488
2614.00,1.9623
2613.00,1.9754
2612.00,1.9882
2611.00,2.0005
2610.00,2.0126
2609.00,2.0244
2608.00,2.0359
2607.00,2.0472
2606.00,2.0584
2605.00,2.0697
2604.00,2.0813
2603.00,2.0927
2602.00,2.1036
2601.00,2.1140
2600.00,2.1239
2599.00,2.1336
2598.00,2.1434
2597.00,2.1535
2596.00,2.1639
2595.00,2.1744
2594.00,2.1843
2593.00,2.1936
2592.00,2.2025
2591.00,2.2111
2590.00,2.2198
2589.00,2.2288
2588.00,2.2378
2587.00,2.2463
2586.00,2.2544
2585.00,2.2622
2584.00,2.2698
2583.00,2.2775
2582.00,2.2850
2581.00,2.2925
2580.00,2.3001
2579.00,2.3076
2578.00,2.3149
2577.00,2.3220
2576.00,2.3289
2575.00,2.3355
2574.00,2.3420
2573.00,2.3482
2572.00,2.3543
2571.00,2.3600
2570.00,2.3656
2569.00,2.3711
2568.00,2.3767
2567.00,2.3822
2566.00,2.3877
2565.00,2.3934
2564.00,2.3993
2563.00,2.4050
2562.00,2.4103
2561.00,2.4155
2560.00,2.4207
2559.00,2.4256
2558.00,2.4299
2557.00,2.4337
2556.00,2.4376
2555.00,2.4418
2554.00,2.4463
2553.00,2.4503
2552.00,2.4537
2551.00,2.4568
2550.00,2.4606
2549.00,2.4653
2548.00,2.4705
2547.00,2.4752
2546.00,2.4796
2545.00,2.4838
2544.00,2.4875
2543.00,2.4902
2542.00,2.4921
2541.00,2.4939
2540.00,2.4960
2539.00,2.4983
2538.00,2.5010
2537.00,2.5043
2536.00,2.5082
2535.00,2.5120
2534.00,2.5149
2533.00,2.5172
2532.00,2.5195
2531.00,2.5221
2530.00,2.5248
2529.00,2.5272
2528.00,2.5295
2527.00,2.5319
2526.00,2.5345
2525.00,2.5367
2524.00,2.5382
2523.00,2.5390
2522.00,2.5400
2521.00,2.5414
2520.00,2.5427
2519.00,2.5437
2518.00,2.5446
2517.00,2.5460
2516.00,2.5476
2515.00,2.5488
2514.00,2.5492
2513.00,2.5493
2512.00,2.5493
2511.00,2.5495
2510.00,2.5501
2509.00,2.5510
2508.00,2.5521
2507.00,2.5528
2506.00,2.5530
2505.00,2.5529
2504.00,2.5526
2503.00,2.5523
2502.00,2.5522
2501.00,2.5524
2500.00,2.5523
2499.00,2.5518
2498.00,2.5513
2497.00,2.5514
2496.00,2.5517
2495.00,2.5518
2494.00,2.5515
2493.00,2.5511
2492.00,2.5506
2491.00,2.5496
2490.00,2.5483
2489.00,2.5471
2488.00,2.5462
2487.00,2.5452
2486.00,2.5440
2485.00,2.5427
2484.00,2.5413
2483.00,2.5396
2482.00,2.5381
2481.00,2.5372
2480.00,2.5367
2479.00,2.5355
2478.00,2.5334
2477.00,2.5308
2476.00,2.5284
2475.00,2.5260
2474.00,2.5235
2473.00,2.5210
2472.00,2.5187
2471.00,2.5168
2470.00,2.5149
2469.00,2.5128
2468.00,2.5101
2467.00,2.5068
2466.00,2.5035
2465.00,2.5007
2464.00,2.4986
2463.00,2.4966
2462.00,2.4940
2461.00,2.4907
2460.00,2.4866
2459.00,2.4821
2458.00,2.4780
2457.00,2.4749
2456.00,2.4726
2455.00,2.4698
2454.00,2.4657
2453.00,2.4604
2452.00,2.4548
2451.00,2.4499
2450.00,2.4458
2449.00,2.4421
2448.00,2.4379
2447.00,2.4330
2446.00,2.4278
2445.00,2.4230
2444.00,2.4185
2443.00,2.4137
2442.00,2.4084
2441.00,2.4026
2440.00,2.3967
2439.00,2.3907
2438.00,2.3850
2437.00,2.3793
2436.00,2.3730
2435.00,2.3662
2434.00,2.3592
2433.00,2.3527
2432.00,2.3465
2431.00,2.3400
2430.00,2.3329
2429.00,2.3252
2428.00,2.3175
2427.00,2.3099
2426.00,2.3022
2425.00,2.2947
2424.00,2.2870
2423.00,2.2794
2422.00,2.2718
2421.00,2.2644
2420.00,2.2567
2419.00,2.2483
2418.00,2.2393
2417.00,2.2301
2416.00,2.2208
2415.00,2.2111
2414.00,2.2012
2413.00,2.1911
2412.00,2.1811
2411.00,2.1709
2410.00,2.1604
2409.00,2.1494
2408.00,2.1381
2407.00,2.1265
2406.00,2.1145
2405.00,2.1021
2404.00,2.0893
2403.00,2.0762
2402.00,2.0629
2401.00,2.0496
2400.00,2.0361
2399.00,2.0223
2398.00,2.0083
2397.00,1.9941
2396.00,1.9797
2395.00,1.9649
2394.00,1.9494
2393.00,1.9332
2392.00,1.9163
2391.00,1.8986
2390.00,1.8800
2389.00,1.8604
2388.00,1.8394
2387.00,1.8167
2386.00,1.7925
2385.00,1.7671
2384.00,1.7409
2383.00,1.7144
2382.00,1.6885
2381.00,1.6643
2380.00,1.6426
2379.00,1.6238
2378.00,1.6077
2377.00,1.5940
2376.00,1.5817
2375.00,1.5700
2374.00,1.5577
2373.00,1.5443
2372.00,1.5299
2371.00,1.5153
2370.00,1.5006
2369.00,1.4862
2368.00,1.4730
2367.00,1.4617
2366.00,1.4510
2365.00,1.4411
2364.00,1.4333
2363.00,1.4257
2362.00,1.4176
2361.00,1.4094
2360.00,1.4013
2359.00,1.3956
2358.00,1.3901
2357.00,1.3847
2356.00,1.3789
2355.00,1.3708
2354.00,1.3597
2353.00,1.3483
2352.00,1.3481
2351.00,1.3591
2350.00,1.3680
2349.00,1.3638
2348.00,1.3481
2347.00,1.3390
2346.00,1.3445
2345.00,1.3610
2344.00,1.3759
2343.00,1.3810
2342.00,1.3825
2341.00,1.3834
2340.00,1.3869
2339.00,1.3909
2338.00,1.3955
2337.00,1.3998
2336.00,1.4055
2335.00,1.4111
2334.00,1.4175
2333.00,1.4225
2332.00,1.4303
2331.00,1.4408
2330.00,1.4540
2329.00,1.4704
2328.00,1.4862
2327.00,1.5016
2326.00,1.5132
2325.00,1.5251
2324.00,1.5395
2323.00,1.5563
2322.00,1.5748
2321.00,1.5920
2320.00,1.6099
2319.00,1.6279
2318.00,1.6472
2317.00,1.6656
2316.00,1.6833
2315.00,1.7001
2314.00,1.7173
2313.00,1.7355
2312.00,1.7545
2311.00,1.7743
2310.00,1.7940
2309.00,1.8141
2308.00,1.8344
2307.00,1.8556
2306.00,1.8774
2305.00,1.8995
2304.00,1.9219
2303.00,1.9441
2302.00,1.9662
2301.00,1.9882
2300.00,2.0099
2299.00,2.0310
2298.00,2.0510
2297.00,2.0704
2296.00,2.0889
2295.00,2.1072
2294.00,2.1243
2293.00,2.1403
2292.00,2.1551
2291.00,2.1694
2290.00,2.1835
2289.00,2.1975
2288.00,2.2113
2287.00,2.2248
2286.00,2.2379
2285.00,2.2506
2284.00,2.2632
2283.00,2.2760
2282.00,2.2893
2281.00,2.3030
2280.00,2.3169
2279.00,2.3302
2278.00,2.3427
2277.00,2.3542
2276.00,2.3653
2275.00,2.3761
2274.00,2.3868
2273.00,2.3971
2272.00,2.4068
2271.00,2.4159
2270.00,2.4247
2269.00,2.4334
2268.00,2.4421
2267.00,2.4506
2266.00,2.4585
2265.00,2.4661
2264.00,2.4737
2263.00,2.4815
2262.00,2.4893
2261.00,2.4967
2260.00,2.5038
2259.00,2.5107
2258.00,2.5175
2257.00,2.5241
2256.00,2.5308
2255.00,2.5376
2254.00,2.5441
2253.00,2.5500
2252.00,2.5557
2251.00,2.5615
2250.00,2.5675
2249.00,2.5736
2248.00,2.5800
2247.00,2.5869
2246.00,2.5942
2245.00,2.6008
2244.00,2.6063
2243.00,2.6110
2242.00,2.6158
2241.00,2.6214
2240.00,2.6273
2239.00,2.6328
2238.00,2.6375
2237.00,2.6420
2236.00,2.6470
2235.00,2.6526
2234.00,2.6579
2233.00,2.6623
2232.00,2.6660
2231.00,2.6697
2230.00,2.6738
2229.00,2.6779
2228.00,2.6816
2227.00,2.6850
2226.00,2.6883
2225.00,2.6922
2224.00,2.6967
2223.00,2.7016
2222.00,2.7062
2221.00,2.7104
2220.00,2.7137
2219.00,2.7159
2218.00,2.7173
2217.00,2.7185
2216.00,2.7205
2215.00,2.7232
2214.00,2.7258
2213.00,2.7280
2212.00,2.7303
2211.00,2.7333
2210.00,2.7367
2209.00,2.7399
2208.00,2.7423
2207.00,2.7439
2206.00,2.7459
2205.00,2.7492
2204.00,2.7538
2203.00,2.7583
2202.00,2.7612
2201.00,2.7625
2200.00,2.7637
2199.00,2.7655
2198.00,2.7670
2197.00,2.7674
2196.00,2.7669
2195.00,2.7664
2194.00,2.7670
2193.00,2.7691
2192.00,2.7720
2191.00,2.7746
2190.00,2.7759
2189.00,2.7758
2188.00,2.7756
2187.00,2.7762
2186.00,2.7777
2185.00,2.7794
2184.00,2.7812
2183.00,2.7828
2182.00,2.7840
2181.00,2.7848
2180.00,2.7857
2179.00,2.7868
2178.00,2.7874
2177.00,2.7869
2176.00,2.7856
2175.00,2.7841
2174.00,2.7832
2173.00,2.7826
2172.00,2.7824
2171.00,2.7830
2170.00,2.7842
2169.00,2.7854
2168.00,2.7858
2167.00,2.7854
2166.00,2.7844
2165.00,2.7833
2164.00,2.7826
2163.00,2.7823
2162.00,2.7819
2161.00,2.7809
2160.00,2.7791
2159.00,2.7768
2158.00,2.7745
2157.00,2.7725
2156.00,2.7710
2155.00,2.7700
2154.00,2.7687
2153.00,2.7664
2152.00,2.7637
2151.00,2.7612
2150.00,2.7591
2149.00,2.7567
2148.00,2.7535
2147.00,2.7498
2146.00,2.7464
2145.00,2.7441
2144.00,2.7426
2143.00,2.7416
2142.00,2.7403
2141.00,2.7382
2140.00,2.7353
2139.00,2.7320
2138.00,2.7289
2137.00,2.7261
2136.00,2.7235
2135.00,2.7207
2134.00,2.7177
2133.00,2.7143
2132.00,2.7109
2131.00,2.7075
2130.00,2.7042
2129.00,2.7006
2128.00,2.6966
2127.00,2.6925
2126.00,2.6886
2125.00,2.6847
2124.00,2.6805
2123.00,2.6756
2122.00,2.6700
2121.00,2.6639
2120.00,2.6578
2119.00,2.6520
2118.00,2.6469
2117.00,2.6421
2116.00,2.6370
2115.00,2.6312
2114.00,2.6253
2113.00,2.6195
2112.00,2.6142
2111.00,2.6090
2110.00,2.6034
2109.00,2.5975
2108.00,2.5913
2107.00,2.5846
2106.00,2.5777
2105.00,2.5703
2104.00,2.5628
2103.00,2.5550
2102.00,2.5470
2101.00,2.5389
2100.00,2.5308
2099.00,2.5227
2098.00,2.5148
2097.00,2.5068
2096.00,2.4984
2095.00,2.4896
2094.00,2.4807
2093.00,2.4722
2092.00,2.4642
2091.00,2.4561
2090.00,2.4475
2089.00,2.4381
2088.00,2.4282
2087.00,2.4177
2086.00,2.4068
2085.00,2.3955
2084.00,2.3845
2083.00,2.3735
2082.00,2.3620
2081.00,2.3495
2080.00,2.3364
2079.00,2.3232
2078.00,2.3103
2077.00,2.2973
2076.00,2.2838
2075.00,2.2698
2074.00,2.2553
2073.00,2.2406
2072.00,2.2259
2071.00,2.2107
2070.00,2.1954
2069.00,2.1802
2068.00,2.1655
2067.00,2.1511
2066.00,2.1365
2065.00,2.1214
2064.00,2.1058
2063.00,2.0899
2062.00,2.0738
2061.00,2.0573
2060.00,2.0401
2059.00,2.0223
2058.00,2.0038
2057.00,1.9845
2056.00,1.9641
2055.00,1.9426
2054.00,1.9199
2053.00,1.8961
2052.00,1.8713
2051.00,1.8458
2050.00,1.8195
2049.00,1.7929
2048.00,1.7657
2047.00,1.7381
2046.00,1.7100
2045.00,1.6816
2044.00,1.6529
2043.00,1.6237
2042.00,1.5943
2041.00,1.5651
2040.00,1.5365
2039.00,1.5085
2038.00,1.4812
2037.00,1.4548
2036.00,1.4297
2035.00,1.4060
2034.00,1.3840
2033.00,1.3637
2032.00,1.3456
2031.00,1.3298
2030.00,1.3166
2029.00,1.3062
2028.00,1.2988
2027.00,1.2945
2026.00,1.2933
2025.00,1.2952
2024.00,1.3000
2023.00,1.3074
2022.00,1.3173
2021.00,1.3294
2020.00,1.3434
2019.00,1.3590
2018.00,1.3759
2017.00,1.3944
2016.00,1.4146
2015.00,1.4361
2014.00,1.4583
2013.00,1.4811
2012.00,1.5046
2011.00,1.5287
2010.00,1.5531
2009.00,1.5779
2008.00,1.6029
2007.00,1.6279
2006.00,1.6530
2005.00,1.6781
2004.00,1.7037
2003.00,1.7295
2002.00,1.7556
2001.00,1.7819
2000.00,1.8083
1999.00,1.8345
1998.00,1.8604
1997.00,1.8862
1996.00,1.9119
1995.00,1.9372
1994.00,1.9617
1993.00,1.9858
1992.00,2.0101
1991.00,2.0347
1990.00,2.0586
1989.00,2.0813
1988.00,2.1029
1987.00,2.1244
1986.00,2.1458
1985.00,2.1670
1984.00,2.1876
1983.00,2.2078
1982.00,2.2276
1981.00,2.2468
1980.00,2.2652
1979.00,2.2824
1978.00,2.2984
1977.00,2.3134
1976.00,2.3281
1975.00,2.3434
1974.00,2.3592
1973.00,2.3748
1972.00,2.3897
1971.00,2.4034
1970.00,2.4161
1969.00,2.4287
1968.00,2.4417
1967.00,2.4558
1966.00,2.4705
1965.00,2.4848
1964.00,2.4980
1963.00,2.5098
1962.00,2.5213
1961.00,2.5331
1960.00,2.5457
1959.00,2.5586
1958.00,2.5714
1957.00,2.5835
1956.00,2.5947
1955.00,2.6052
1954.00,2.6153
1953.00,2.6253
1952.00,2.6349
1951.00,2.6440
1950.00,2.6525
1949.00,2.6608
1948.00,2.6697
1947.00,2.6800
1946.00,2.6914
1945.00,2.7025
1944.00,2.7115
1943.00,2.7186
1942.00,2.7252
1941.00,2.7322
1940.00,2.7392
1939.00,2.7458
1938.00,2.7528
1937.00,2.7610
1936.00,2.7695
1935.00,2.7767
1934.00,2.7823
1933.00,2.7877
1932.00,2.7941
1931.00,2.8014
1930.00,2.8086
1929.00,2.8155
1928.00,2.8232
1927.00,2.8320
1926.00,2.8407
1925.00,2.8475
1924.00,2.8519
1923.00,2.8561
1922.00,2.8619
1921.00,2.8684
1920.00,2.8737
1919.00,2.8775
1918.00,2.8815
1917.00,2.8874
1916.00,2.8946
1915.00,2.9013
1914.00,2.9067
1913.00,2.9111
1912.00,2.9146
1911.00,2.9172
1910.00,2.9188
1909.00,2.9202
1908.00,2.9229
1907.00,2.9277
1906.00,2.9343
1905.00,2.9413
1904.00,2.9474
1903.00,2.9521
1902.00,2.9557
1901.00,2.9581
1900.00,2.9598
1899.00,2.9619
1898.00,2.9657
1897.00,2.9709
1896.00,2.9758
1895.00,2.9793
1894.00,2.9811
1893.00,2.9820
1892.00,2.9831
1891.00,2.9852
1890.00,2.9887
1889.00,2.9931
1888.00,2.9973
1887.00,3.0007
1886.00,3.0035
1885.00,3.0061
1884.00,3.0076
1883.00,3.0071
1882.00,3.0049
1881.00,3.0031
1880.00,3.0039
1879.00,3.0077
1878.00,3.0126
1877.00,3.0160
1876.00,3.0167
1875.00,3.0167
1874.00,3.0190
1873.00,3.0243
1872.00,3.0306
1871.00,3.0347
1870.00,3.0354
1869.00,3.0338
1868.00,3.0321
1867.00,3.0303
1866.00,3.0272
1865.00,3.0236
1864.00,3.0218
1863.00,3.0231
1862.00,3.0261
1861.00,3.0283
1860.00,3.0288
1859.00,3.0287
1858.00,3.0286
1857.00,3.0278
1856.00,3.0257
1855.00,3.0226
1854.00,3.0194
1853.00,3.0175
1852.00,3.0177
1851.00,3.0195
1850.00,3.0212
1849.00,3.0216
1848.00,3.0205
1847.00,3.0182
1846.00,3.0136
1845.00,3.0071
1844.00,3.0017
1843.00,3.0003
1842.00,3.0007
1841.00,2.9992
1840.00,2.9951
1839.00,2.9907
1838.00,2.9884
1837.00,2.9873
1836.00,2.9858
1835.00,2.9838
1834.00,2.9826
1833.00,2.9815
1832.00,2.9788
1831.00,2.9733
1830.00,2.9682
1829.00,2.9672
1828.00,2.9683
1827.00,2.9652
1826.00,2.9553
1825.00,2.9425
1824.00,2.9328
1823.00,2.9281
1822.00,2.9250
1821.00,2.9206
1820.00,2.9152
1819.00,2.9106
1818.00,2.9065
1817.00,2.9010
1816.00,2.8941
1815.00,2.8874
1814.00,2.8811
1813.00,2.8743
1812.00,2.8663
1811.00,2.8590
1810.00,2.8541
1809.00,2.8500
1808.00,2.8448
1807.00,2.8389
1806.00,2.8330
1805.00,2.8271
1804.00,2.8205
1803.00,2.8138
1802.00,2.8070
1801.00,2.7997
1800.00,2.7905
1799.00,2.7791
1798.00,2.7656
1797.00,2.7513
1796.00,2.7370
1795.00,2.7224
1794.00,2.7053
1793.00,2.6843
1792.00,2.6616
1791.00,2.6408
1790.00,2.6218
1789.00,2.6022
1788.00,2.5810
1787.00,2.5588
1786.00,2.5357
1785.00,2.5108
1784.00,2.4844
1783.00,2.4565
1782.00,2.4259
1781.00,2.3935
1780.00,2.3611
1779.00,2.3296
1778.00,2.2982
1777.00,2.2663
1776.00,2.2351
1775.00,2.2045
1774.00,2.1729
1773.00,2.1411
1772.00,2.1163
1771.00,2.1036
1770.00,2.0995
1769.00,2.0975
1768.00,2.0947
1767.00,2.0907
1766.00,2.0838
1765.00,2.0716
1764.00,2.0537
1763.00,2.0322
1762.00,2.0123
1761.00,2.0002
1760.00,1.9982
1759.00,2.0053
1758.00,2.0204
1757.00,2.0450
1756.00,2.0818
1755.00,2.1286
1754.00,2.1798
1753.00,2.2321
1752.00,2.2853
1751.00,2.3389
1750.00,2.3908
1749.00,2.4384
1748.00,2.4836
1747.00,2.5297
1746.00,2.5778
1745.00,2.6286
1744.00,2.6829
1743.00,2.7410
1742.00,2.8008
1741.00,2.8584
1740.00,2.9127
1739.00,2.9673
1738.00,3.0243
1737.00,3.0808
1736.00,3.1325
1735.00,3.1790
1734.00,3.2276
1733.00,3.2847
1732.00,3.3420
1731.00,3.3906
1730.00,3.4349
1729.00,3.4899
1728.00,3.5696
1727.00,3.6789
1726.00,3.8177
1725.00,3.9926
1724.00,4.2312
1723.00,4.6187
1722.00,4.9652
1721.00,4.7560
1720.00,4.8342
1719.00,5.0769
1718.00,4.9523
1717.00,4.8074
1716.00,4.6892
1715.00,4.5705
1714.00,4.5191
1713.00,4.5328
1712.00,4.5995
1711.00,4.7395
1710.00,4.8872
1709.00,4.7566
1708.00,4.6324
1707.00,4.6575
1706.00,4.7994
1705.00,5.0116
1704.00,5.0100
1703.00,4.7074
1702.00,4.4119
1701.00,4.1156
1700.00,3.8342
1699.00,3.6239
1698.00,3.4862
1697.00,3.3922
1696.00,3.3238
1695.00,3.2795
1694.00,3.2561
1693.00,3.2453
1692.00,3.2389
1691.00,3.2328
1690.00,3.2261
1689.00,3.2186
1688.00,3.2097
1687.00,3.1975
1686.00,3.1803
1685.00,3.1570
1684.00,3.1343
1683.00,3.1193
1682.00,3.1043
1681.00,3.0840
1680.00,3.0617
1679.00,3.0432
1678.00,3.0302
1677.00,3.0197
1676.00,3.0070
1675.00,2.9911
1674.00,2.9738
1673.00,2.9554
1672.00,2.9341
1671.00,2.9091
1670.00,2.8817
1669.00,2.8548
1668.00,2.8287
1667.00,2.8021
1666.00,2.7743
1665.00,2.7439
1664.00,2.7085
1663.00,2.6686
1662.00,2.6276
1661.00,2.5873
1660.00,2.5471
1659.00,2.5069
1658.00,2.4689
1657.00,2.4360
1656.00,2.4061
1655.00,2.3707
1654.00,2.3207
1653.00,2.2642
1652.00,2.2198
1651.00,2.1877
1650.00,2.1617
1649.00,2.1336
1648.00,2.0984
1647.00,2.0591
1646.00,2.0237
1645.00,1.9933
1644.00,1.9661
1643.00,1.9422
1642.00,1.9216
1641.00,1.9057
1640.00,1.8966
1639.00,1.8940
1638.00,1.8946
1637.00,1.8953
1636.00,1.8978
1635.00,1.9061
1634.00,1.9170
1633.00,1.9242
1632.00,1.9272
1631.00,1.9285
1630.00,1.9302
1629.00,1.9337
1628.00,1.9413
1627.00,1.9549
1626.00,1.9737
1625.00,1.9953
1624.00,2.0192
1623.00,2.0475
1622.00,2.0813
1621.00,2.1180
1620.00,2.1544
1619.00,2.1880
1618.00,2.2190
1617.00,2.2513
1616.00,2.2900
1615.00,2.3313
1614.00,2.3669
1613.00,2.3941
1612.00,2.4155
1611.00,2.4338
1610.00,2.4495
1609.00,2.4632
1608.00,2.4778
1607.00,2.4951
1606.00,2.5139
1605.00,2.5331
1604.00,2.5533
1603.00,2.5753
1602.00,2.5986
1601.00,2.6223
1600.00,2.6456
1599.00,2.6674
1598.00,2.6870
1597.00,2.7048
1596.00,2.7224
1595.00,2.7407
1594.00,2.7595
1593.00,2.7785
1592.00,2.7972
1591.00,2.8147
1590.00,2.8298
1589.00,2.8428
1588.00,2.8551
1587.00,2.8676
1586.00,2.8801
1585.00,2.8927
1584.00,2.9065
1583.00,2.9209
1582.00,2.9348
1581.00,2.9480
1580.00,2.9606
1579.00,2.9705
1578.00,2.9763
1577.00,2.9810
1576.00,2.9911
1575.00,3.0074
1574.00,3.0229
1573.00,3.0343
1572.00,3.0430
1571.00,3.0491
1570.00,3.0519
1569.00,3.0551
1568.00,3.0631
1567.00,3.0747
1566.00,3.0864
1565.00,3.0959
1564.00,3.1046
1563.00,3.1141
1562.00,3.1244
1561.00,3.1340
1560.00,3.1390
1559.00,3.1422
1558.00,3.1558
1557.00,3.1655
1556.00,3.1639
1555.00,3.1601
1554.00,3.1633
1553.00,3.1763
1552.00,3.1918
1551.00,3.2013
1550.00,3.2057
1549.00,3.2114
1548.00,3.2213
1547.00,3.2305
1546.00,3.2346
1545.00,3.2354
1544.00,3.2375
1543.00,3.2408
1542.00,3.2422
1541.00,3.2406
1540.00,3.2437
1539.00,3.2575
1538.00,3.2737
1537.00,3.2848
1536.00,3.2897
1535.00,3.2884
1534.00,3.2841
1533.00,3.2836
1532.00,3.2885
1531.00,3.2938
1530.00,3.2994
1529.00,3.3088
1528.00,3.3211
1527.00,3.3303
1526.00,3.3318
1525.00,3.3286
1524.00,3.3259
1523.00,3.3246
1522.00,3.3245
1521.00,3.3281
1520.00,3.3343
1519.00,3.3366
1518.00,3.3347
1517.00,3.3356
1516.00,3.3442
1515.00,3.3552
1514.00,3.3605
1513.00,3.3596
1512.00,3.3560
1511.00,3.3521
1510.00,3.3492
1509.00,3.3476
1508.00,3.3446
1507.00,3.3383
1506.00,3.3325
1505.00,3.3266
1504.00,3.3243
1503.00,3.3282
1502.00,3.3336
1501.00,3.3360
1500.00,3.3338
1499.00,3.3270
1498.00,3.3195
1497.00,3.3183
1496.00,3.3260
1495.00,3.3357
1494.00,3.3382
1493.00,3.3349
1492.00,3.3323
1491.00,3.3324
1490.00,3.3324
1489.00,3.3308
1488.00,3.3274
1487.00,3.3237
1486.00,3.3206
1485.00,3.3191
1484.00,3.3211
1483.00,3.3257
1482.00,3.3315
1481.00,3.3368
1480.00,3.3392
1479.00,3.3366
1478.00,3.3298
1477.00,3.3221
1476.00,3.3157
1475.00,3.3098
1474.00,3.3024
1473.00,3.2974
1472.00,3.3003
1471.00,3.3084
1470.00,3.3126
1469.00,3.3106
1468.00,3.3055
1467.00,3.3006
1466.00,3.2972
1465.00,3.2967
1464.00,3.2978
1463.00,3.2940
1462.00,3.2826
1461.00,3.2694
1460.00,3.2620
1459.00,3.2608
1458.00,3.2613
1457.00,3.2638
1456.00,3.2737
1455.00,3.2931
1454.00,3.3224
1453.00,3.3634
1452.00,3.4158
1451.00,3.4719
1450.00,3.5172
1449.00,3.5412
1448.00,3.5441
1447.00,3.5297
1446.00,3.5005
1445.00,3.4631
1444.00,3.4278
1443.00,3.4003
1442.00,3.3788
1441.00,3.3594
1440.00,3.3423
1439.00,3.3304
1438.00,3.3248
1437.00,3.3226
1436.00,3.3205
1435.00,3.3180
1434.00,3.3183
1433.00,3.3241
1432.00,3.3347
1431.00,3.3475
1430.00,3.3625
1429.00,3.3815
1428.00,3.4023
1427.00,3.4169
1426.00,3.4189
1425.00,3.4124
1424.00,3.4068
1423.00,3.4088
1422.00,3.4187
1421.00,3.4334
1420.00,3.4470
1419.00,3.4509
1418.00,3.4412
1417.00,3.4225
1416.00,3.4018
1415.00,3.3809
1414.00,3.3583
1413.00,3.3343
1412.00,3.3115
1411.00,3.2920
1410.00,3.2759
1409.00,3.2613
1408.00,3.2457
1407.00,3.2291
1406.00,3.2133
1405.00,3.2011
1404.00,3.1926
1403.00,3.1854
1402.00,3.1773
1401.00,3.1678
1400.00,3.1563
1399.00,3.1414
1398.00,3.1242
1397.00,3.1076
1396.00,3.0935
1395.00,3.0805
1394.00,3.0654
1393.00,3.0476
1392.00,3.0294
1391.00,3.0128
1390.00,2.9973
1389.00,2.9810
1388.00,2.9622
1387.00,2.9412
1386.00,2.9183
1385.00,2.8942
1384.00,2.8707
1383.00,2.8493
1382.00,2.8295
1381.00,2.8090
1380.00,2.7861
1379.00,2.7619
1378.00,2.7382
1377.00,2.7151
1376.00,2.6905
1375.00,2.6623
1374.00,2.6312
1373.00,2.5987
1372.00,2.5652
1371.00,2.5306
1370.00,2.4945
1369.00,2.4574
1368.00,2.4205
1367.00,2.3857
1366.00,2.3542
1365.00,2.3261
1364.00,2.3005
1363.00,2.2762
1362.00,2.2532
1361.00,2.2317
1360.00,2.2133
1359.00,2.2012
1358.00,2.1994
1357.00,2.2113
1356.00,2.2393
1355.00,2.2851
1354.00,2.3493
1353.00,2.4307
1352.00,2.5264
1351.00,2.6315
1350.00,2.7386
1349.00,2.8381
1348.00,2.9187
1347.00,2.9683
1346.00,2.9806
1345.00,2.9640
1344.00,2.9391
1343.00,2.9260
1342.00,2.9355
1341.00,2.9686
1340.00,3.0163
1339.00,3.0584
1338.00,3.0675
1337.00,3.0291
1336.00,2.9543
1335.00,2.8643
1334.00,2.7749
1333.00,2.6949
1332.00,2.6297
1331.00,2.5823
1330.00,2.5535
1329.00,2.5421
1328.00,2.5465
1327.00,2.5649
1326.00,2.5960
1325.00,2.6382
1324.00,2.6902
1323.00,2.7505
1322.00,2.8169
1321.00,2.8862
1320.00,2.9555
1319.00,3.0248
1318.00,3.0967
1317.00,3.1722
1316.00,3.2484
1315.00,3.3201
1314.00,3.3819
1313.00,3.4272
1312.00,3.4475
1311.00,3.4371
1310.00,3.3937
1309.00,3.3179
1308.00,3.2165
1307.00,3.1029
1306.00,2.9905
1305.00,2.8869
1304.00,2.7939
1303.00,2.7117
1302.00,2.6414
1301.00,2.5844
1300.00,2.5422
1299.00,2.5148
1298.00,2.5011
1297.00,2.4991
1296.00,2.5067
1295.00,2.5226
1294.00,2.5462
1293.00,2.5772
1292.00,2.6142
1291.00,2.6545
1290.00,2.6948
1289.00,2.7336
1288.00,2.7721
1287.00,2.8124
1286.00,2.8549
1285.00,2.8976
1284.00,2.9373
1283.00,2.9723
1282.00,3.0034
1281.00,3.0322
1280.00,3.0597
1279.00,3.0860
1278.00,3.1110
1277.00,3.1342
1276.00,3.1545
1275.00,3.1706
1274.00,3.1821
1273.00,3.1909
1272.00,3.2009
1271.00,3.2149
1270.00,3.2325
1269.00,3.2490
1268.00,3.2594
1267.00,3.2634
1266.00,3.2656
1265.00,3.2704
1264.00,3.2786
1263.00,3.2893
1262.00,3.3019
1261.00,3.3160
1260.00,3.3302
1259.00,3.3431
1258.00,3.3568
1257.00,3.3757
1256.00,3.4006
1255.00,3.4268
1254.00,3.4474
1253.00,3.4586
1252.00,3.4626
1251.00,3.4659
1250.00,3.4750
1249.00,3.4938
1248.00,3.5226
1247.00,3.5579
1246.00,3.5932
1245.00,3.6201
1244.00,3.6325
1243.00,3.6330
1242.00,3.6293
1241.00,3.6300
1240.00,3.6414
1239.00,3.6621
1238.00,3.6813
1237.00,3.6870
1236.00,3.6777
1235.00,3.6672
1234.00,3.6720
1233.00,3.6979
1232.00,3.7357
1231.00,3.7645
1230.00,3.7707
1229.00,3.7641
1228.00,3.7619
1227.00,3.7740
1226.00,3.8016
1225.00,3.8388
1224.00,3.8770
1223.00,3.9098
1222.00,3.9403
1221.00,3.9561
1220.00,3.9115
1219.00,3.7990
1218.00,3.6775
1217.00,3.5932
1216.00,3.5524
1215.00,3.5407
1214.00,3.5425
1213.00,3.5482
1212.00,3.5523
1211.00,3.5521
1210.00,3.5517
1209.00,3.5587
1208.00,3.5729
1207.00,3.5841
1206.00,3.5877
1205.00,3.5923
1204.00,3.6055
1203.00,3.6257
1202.00,3.6471
1201.00,3.6665
1200.00,3.6825
1199.00,3.6916
1198.00,3.6894
1197.00,3.6817
1196.00,3.6787
1195.00,3.6814
1194.00,3.6881
1193.00,3.7025
1192.00,3.7206
1191.00,3.7270
1190.00,3.7217
1189.00,3.7268
1188.00,3.7528
1187.00,3.7826
1186.00,3.7893
1185.00,3.7694
1184.00,3.7423
1183.00,3.7231
1182.00,3.7187
1181.00,3.7345
1180.00,3.7687
1179.00,3.8066
1178.00,3.8275
1177.00,3.8236
1176.00,3.8014
1175.00,3.7652
1174.00,3.7267
1173.00,3.7058
1172.00,3.7208
1171.00,3.7729
1170.00,3.8281
1169.00,3.8329
1168.00,3.7874
1167.00,3.7426
1166.00,3.7363
1165.00,3.7783
1164.00,3.8462
1163.00,3.8862
1162.00,3.8630
1161.00,3.8063
1160.00,3.7586
1159.00,3.7293
1158.00,3.7113
1157.00,3.7046
1156.00,3.7150
1155.00,3.7399
1154.00,3.7693
1153.00,3.7971
1152.00,3.8192
1151.00,3.8181
1150.00,3.7843
1149.00,3.7435
1148.00,3.7185
1147.00,3.7119
1146.00,3.7233
1145.00,3.7503
1144.00,3.7813
1143.00,3.7964
1142.00,3.7829
1141.00,3.7556
1140.00,3.7403
1139.00,3.7511
1138.00,3.7884
1137.00,3.8337
1136.00,3.8569
1135.00,3.8447
1134.00,3.8162
1133.00,3.8066
1132.00,3.8291
1131.00,3.8594
1130.00,3.8623
1129.00,3.8328
1128.00,3.7998
1127.00,3.7997
1126.00,3.8469
1125.00,3.9283
1124.00,3.9963
1123.00,4.0213
1122.00,4.0331
1121.00,4.0230
1120.00,3.9811
1119.00,3.9390
1118.00,3.9195
1117.00,3.9387
1116.00,4.0120
1115.00,4.1321
1114.00,4.2077
1113.00,4.1433
1112.00,4.0409
1111.00,3.9688
1110.00,3.9206
1109.00,3.8851
1108.00,3.8726
1107.00,3.8906
1106.00,3.9263
1105.00,3.9574
1104.00,3.9757
1103.00,3.9956
1102.00,4.0349
1101.00,4.0975
1100.00,4.1556
1099.00,4.1430
1098.00,4.0661
1097.00,3.9893
1096.00,3.9412
1095.00,3.9268
1094.00,3.9328
1093.00,3.9384
1092.00,3.9366
1091.00,3.9394
1090.00,3.9609
1089.00,3.9985
1088.00,4.0207
1087.00,3.9863
1086.00,3.8949
1085.00,3.7948
1084.00,3.7292
1083.00,3.7067
1082.00,3.7147
1081.00,3.7346
1080.00,3.7499
1079.00,3.7521
1078.00,3.7513
1077.00,3.7704
1076.00,3.8248
1075.00,3.9114
1074.00,4.0117
1073.00,4.0966
1072.00,4.1252
1071.00,4.0679
1070.00,3.9587
1069.00,3.8654
1068.00,3.8213
1067.00,3.8136
1066.00,3.8031
1065.00,3.7634
1064.00,3.7021
1063.00,3.6500
1062.00,3.6348
1061.00,3.6685
1060.00,3.7385
1059.00,3.7928
1058.00,3.7850
1057.00,3.7530
1056.00,3.7426
1055.00,3.7488
1054.00,3.7390
1053.00,3.7072
1052.00,3.6880
1051.00,3.7152
1050.00,3.7971
1049.00,3.9163
1048.00,4.0126
1047.00,4.0104
1046.00,3.9480
1045.00,3.8752
1044.00,3.8099
1043.00,3.7591
1042.00,3.7083
1041.00,3.6497
1040.00,3.5966
1039.00,3.5653
1038.00,3.5610
1037.00,3.5709
1036.00,3.5702
1035.00,3.5440
1034.00,3.5062
1033.00,3.4821
1032.00,3.4822
1031.00,3.4953
1030.00,3.4987
1029.00,3.4795
1028.00,3.4468
1027.00,3.4135
1026.00,3.3838
1025.00,3.3621
1024.00,3.3576
1023.00,3.3756
1022.00,3.4104
1021.00,3.4500
1020.00,3.4857
1019.00,3.5162
1018.00,3.5480
1017.00,3.5907
1016.00,3.6472
1015.00,3.6992
1014.00,3.7092
1013.00,3.6643
1012.00,3.5966
1011.00,3.5370
1010.00,3.4896
1009.00,3.4449
1008.00,3.3977
1007.00,3.3506
1006.00,3.3049
1005.00,3.2607
1004.00,3.2222
1003.00,3.1944
1002.00,3.1760
1001.00,3.1589
1000.00,3.1365
999.00,3.1110
998.00,3.0924
997.00,3.0904
996.00,3.1096
995.00,3.1490
994.00,3.2046
993.00,3.2703
992.00,3.3341
991.00,3.3727
990.00,3.3688
989.00,3.3371
988.00,3.3050
987.00,3.2861
986.00,3.2791
985.00,3.2774
984.00,3.2792
983.00,3.2886
982.00,3.3086
981.00,3.3367
980.00,3.3685
979.00,3.4039
978.00,3.4498
977.00,3.5140
976.00,3.5927
975.00,3.6581
974.00,3.6803
973.00,3.6649
972.00,3.6503
971.00,3.6619
970.00,3.6972
969.00,3.7466
968.00,3.8031
967.00,3.8598
966.00,3.9062
965.00,3.9351
964.00,3.9617
963.00,4.0093
962.00,4.0619
961.00,4.0736
960.00,4.0541
959.00,4.0677
958.00,4.1354
957.00,4.2060
956.00,4.2269
955.00,4.2382
954.00,4.2689
953.00,4.2721
952.00,4.2132
951.00,4.1383
950.00,4.0777
949.00,4.0282
948.00,3.9927
947.00,3.9911
946.00,4.0350
945.00,4.1091
944.00,4.1924
943.00,4.2928
942.00,4.4268
941.00,4.6337
940.00,5.1927
939.00,4.9548
938.00,4.5399
937.00,4.4296
936.00,4.4442
935.00,4.4342
934.00,4.3480
933.00,4.3003
932.00,4.3571
931.00,4.5172
930.00,4.6042
929.00,4.6705
928.00,5.1306
927.00,4.9496
926.00,4.6076
925.00,4.5560
924.00,4.4013
923.00,4.2070
922.00,4.1050
921.00,4.0689
920.00,4.0470
919.00,4.0507
918.00,4.1040
917.00,4.1215
916.00,4.0771
915.00,4.0674
914.00,4.1244
913.00,4.2536
912.00,4.3991
911.00,4.3984
910.00,4.2988
909.00,4.1772
908.00,4.0999
907.00,4.0433
906.00,3.9631
905.00,3.9245
904.00,3.9919
903.00,4.2215
902.00,4.7770
901.00,4.9183
900.00,5.0761
899.00,4.7186
898.00,4.3151
897.00,4.2113
896.00,4.2684
895.00,4.4219
894.00,4.6048
893.00,4.8092
892.00,4.6957
891.00,4.5623
890.00,4.3724
889.00,4.1538
888.00,4.0092
887.00,3.9430
886.00,3.9499
885.00,4.0241
884.00,4.1425
883.00,4.2107
882.00,4.1824
881.00,4.1925
880.00,4.2785
879.00,4.3801
878.00,4.5003
877.00,4.5407
876.00,4.1992
875.00,3.9705
874.00,3.8735
873.00,3.8818
872.00,3.9773
871.00,4.0917
870.00,4.0938
869.00,4.0741
868.00,4.1313
867.00,4.1920
866.00,4.1704
865.00,4.1542
864.00,4.1771
863.00,4.2034
862.00,4.1753
861.00,4.1011
860.00,4.0367
859.00,4.0090
858.00,4.0301
857.00,4.0928
856.00,4.1432
855.00,4.1139
854.00,4.0476
853.00,4.0146
852.00,4.0206
851.00,4.0361
850.00,4.0384
849.00,4.0407
848.00,4.0570
847.00,4.0579
846.00,4.0089
845.00,3.9600
844.00,3.9317
843.00,3.9056
842.00,3.8960
841.00,3.8885
840.00,3.8762
839.00,3.8878
838.00,3.8874
837.00,3.8450
836.00,3.8077
835.00,3.8037
834.00,3.8340
833.00,3.8837
832.00,3.9121
831.00,3.8733
830.00,3.7891
829.00,3.7314
828.00,3.7354
827.00,3.7826
826.00,3.8187
825.00,3.8236
824.00,3.8397
823.00,3.8940
822.00,3.9900
821.00,4.1384
820.00,4.3019
819.00,4.2301
818.00,4.0110
817.00,3.8555
816.00,3.7842
815.00,3.7826
814.00,3.8305
813.00,3.9057
812.00,3.9842
811.00,4.0475
810.00,4.0854
809.00,4.1238
808.00,4.2019
807.00,4.2432
806.00,4.1651
805.00,4.1158
804.00,4.1651
803.00,4.3113
802.00,4.4655
801.00,4.4745
800.00,4.5359
799.00,4.5482
798.00,4.2528
797.00,4.0474
796.00,3.9486
795.00,3.9359
794.00,3.9994
793.00,4.1337
792.00,4.3620
791.00,4.7174
790.00,4.8201
789.00,4.4531
788.00,4.1827
787.00,4.0517
786.00,4.0373
785.00,4.1406
784.00,4.3898
783.00,4.6231
782.00,4.3919
781.00,4.3510
780.00,4.4935
779.00,4.3905
778.00,4.1854
777.00,4.1106
776.00,4.1057
775.00,4.0973
774.00,4.1094
773.00,4.1344
772.00,4.1428
771.00,4.1468
770.00,4.1464
769.00,4.1675
768.00,4.1975
767.00,4.2108
766.00,4.2301
765.00,4.2702
764.00,4.3135
763.00,4.3111
762.00,4.2334
761.00,4.1595
760.00,4.2017
759.00,4.4370
758.00,5.1477
757.00,4.9041
756.00,4.7858
755.00,5.1854
754.00,4.7294
753.00,4.4171
752.00,4.4120
751.00,4.2498
750.00,4.0147
749.00,3.9340
748.00,3.9642
747.00,4.0472
746.00,4.1417
745.00,4.2544
744.00,4.4106
743.00,4.5366
742.00,4.5445
741.00,4.5258
740.00,4.4796
739.00,4.3962
738.00,4.3540
737.00,4.3856
736.00,4.4221
735.00,4.3883
734.00,4.3065
733.00,4.2551
732.00,4.1939
731.00,4.1049
730.00,4.1195
729.00,4.3054
728.00,4.4240
727.00,4.2254
726.00,4.1600
725.00,4.2597
724.00,4.4051
723.00,4.3673
722.00,4.5344
721.00,4.7075
720.00,4.4647
719.00,4.3396
718.00,4.1372
717.00,4.1281
716.00,4.5873
715.00,4.4742
714.00,4.1053
713.00,4.1031
712.00,4.4165
711.00,4.5722
710.00,4.0701
709.00,3.9118
708.00,3.8915
707.00,3.9475
706.00,4.0457
705.00,4.1628
704.00,4.2962
703.00,4.4551
702.00,4.5748
701.00,4.5004
700.00,4.3156
699.00,4.1395
698.00,4.0328
697.00,3.9724
696.00,3.9161
695.00,3.8785
694.00,3.8800
693.00,3.9242
692.00,4.0619
691.00,4.5134
690.00,4.4338
689.00,4.1579
688.00,4.1383
687.00,4.1733
686.00,4.1751
685.00,4.1851
684.00,4.2055
683.00,4.1593
682.00,4.1188
681.00,4.0911
680.00,3.9961
679.00,3.9037
678.00,3.8738
677.00,3.8950
676.00,3.9318
675.00,4.0085
674.00,4.2169
673.00,4.9415
672.00,4.4860
671.00,4.1460
670.00,3.9031
669.00,3.7614
668.00,3.7433
667.00,3.8365
666.00,3.9980
665.00,4.1403
664.00,4.2263
663.00,4.1813
662.00,4.0428
661.00,3.9485
660.00,3.9460
659.00,4.0500
658.00,4.1968
657.00,4.1867
656.00,4.0994
655.00,4.0270
654.00,3.9659
653.00,3.9120
652.00,3.8529
651.00,3.7987
650.00,3.7739
649.00,3.7727
648.00,3.7749
647.00,3.7807
646.00,3.8082
645.00,3.8600
644.00,3.8993
643.00,3.8858
642.00,3.8400
641.00,3.8012
640.00,3.7974
639.00,3.8400
638.00,3.9120
637.00,3.9549
636.00,3.9313
635.00,3.9129
634.00,3.9854
633.00,4.2010
632.00,4.4910
631.00,4.4831
630.00,4.3394
629.00,4.1788
628.00,4.1345
627.00,4.2033
626.00,4.3319
625.00,4.4691
624.00,4.8637
623.00,4.2971
622.00,4.0248
621.00,3.9082
620.00,3.8304
619.00,3.7506
618.00,3.6945
617.00,3.6949
616.00,3.7617
615.00,3.8686
614.00,3.9600
613.00,4.0067
612.00,4.0001
611.00,3.9629
610.00,3.9598
609.00,4.0443
608.00,4.2283
607.00,4.3188
606.00,4.2419
605.00,4.1754
604.00,3.9971
603.00,3.8453
602.00,3.8395
601.00,4.0096
600.00,4.3724
599.00,4.6311
598.00,4.9748
597.00,4.6466
596.00,4.1556
595.00,3.9462
594.00,3.8071
593.00,3.7152
592.00,3.6998
591.00,3.7799
590.00,3.9413
589.00,4.0910
588.00,4.0488
587.00,3.8659
586.00,3.7540
585.00,3.7370
584.00,3.8019
583.00,3.9623
582.00,4.2575
581.00,4.5160
580.00,4.3916
579.00,4.6125
578.00,4.1347
577.00,3.8874
576.00,3.8630
575.00,3.9649
574.00,3.9664
573.00,3.8628
572.00,3.8637
571.00,4.0086
570.00,4.2282
569.00,4.2079
568.00,4.0579
567.00,4.0334
566.00,4.0790
565.00,4.0342
564.00,3.9581
563.00,3.8300
562.00,3.7479
561.00,3.7865
560.00,3.9271
559.00,4.0918
558.00,4.1722
557.00,4.1668
556.00,4.1699
555.00,4.1063
554.00,4.0471
553.00,4.0014
552.00,3.9104
551.00,3.8936
550.00,3.9475
549.00,3.9049
548.00,3.7569
547.00,3.6493
546.00,3.6208
545.00,3.6614
544.00,3.7477
543.00,3.8019
542.00,3.7034
541.00,3.5636
540.00,3.4714
539.00,3.4166
538.00,3.3684
537.00,3.3233
536.00,3.3109
535.00,3.3535
534.00,3.4416
533.00,3.5200
532.00,3.5214
531.00,3.4715
530.00,3.4290
529.00,3.4131
528.00,3.4266
527.00,3.4597
526.00,3.5132
525.00,3.5952
524.00,3.6193
523.00,3.5693
522.00,3.5037
521.00,3.4014
520.00,3.2944
519.00,3.2330
518.00,3.2445
517.00,3.3416
516.00,3.5435
515.00,3.8868
514.00,4.1337
513.00,3.9382
512.00,3.6733
511.00,3.5081
510.00,3.4412
509.00,3.4228
508.00,3.4153
507.00,3.3951
506.00,3.3704
505.00,3.3636
504.00,3.3820
503.00,3.4307
502.00,3.5000
501.00,3.5418
500.00,3.5215
499.00,3.4888
498.00,3.4955
497.00,3.5267
496.00,3.5339
495.00,3.5006
494.00,3.4778
493.00,3.5320
492.00,3.5987
491.00,3.5107
490.00,3.4081
489.00,3.3601
488.00,3.3383
487.00,3.2978
486.00,3.2240
485.00,3.1492
484.00,3.1025
483.00,3.0824
482.00,3.0802
481.00,3.0978
480.00,3.1268
479.00,3.1370
478.00,3.1097
477.00,3.0670
476.00,3.0349
475.00,3.0216
474.00,3.0311
473.00,3.0693
472.00,3.1406
471.00,3.2349
470.00,3.3327
469.00,3.4001
468.00,3.3695
467.00,3.2478
466.00,3.1264
465.00,3.0545
464.00,3.0291
463.00,3.0325
462.00,3.0478
461.00,3.0651
460.00,3.0826
459.00,3.1039
458.00,3.1282
457.00,3.1382
456.00,3.1114
455.00,3.0622
454.00,3.0222
453.00,3.0047
452.00,3.0291
451.00,3.1129
450.00,3.1936
449.00,3.1841
448.00,3.1614
447.00,3.1819
446.00,3.2476
445.00,3.2746
444.00,3.2071
443.00,3.1626
442.00,3.1869
441.00,3.2439
440.00,3.2582
439.00,3.2342
438.00,3.2407
437.00,3.3141
436.00,3.4791
435.00,3.6125
434.00,3.4163
433.00,3.2728
432.00,3.2761
431.00,3.4530
430.00,3.8533
429.00,3.6913
428.00,3.4469
427.00,3.3677
426.00,3.3820
425.00,3.3083
424.00,3.1826
423.00,3.1437
422.00,3.1866
421.00,3.2716
420.00,3.3560
419.00,3.4070
418.00,3.5872
417.00,4.0180
416.00,3.8316
415.00,3.8684
414.00,3.8133
413.00,3.6548
412.00,3.4674
411.00,3.3439
410.00,3.3063
409.00,3.2829
408.00,3.2154
407.00,3.1082
406.00,3.0078
405.00,2.9394
404.00,2.9006
403.00,2.9153
402.00,2.9921
401.00,2.9333
400.00,2.7787
