Created as New Dataset,Sample 169 By Administrator Date Friday, November 26 2021
cm-1,A
7000.00,0.8709
6999.00,0.8758
6998.00,0.8809
6997.00,0.8858
6996.00,0.8906
6995.00,0.8954
6994.00,0.9004
6993.00,0.9054
6992.00,0.9103
6991.00,0.9151
6990.00,0.9200
6989.00,0.9252
6988.00,0.9304
6987.00,0.9353
6986.00,0.9401
6985.00,0.9448
6984.00,0.9496
6983.00,0.9544
6982.00,0.9591
6981.00,0.9637
6980.00,0.9684
6979.00,0.9729
6978.00,0.9773
6977.00,0.9818
6976.00,0.9863
6975.00,0.9908
6974.00,0.9953
6973.00,0.9998
6972.00,1.0044
6971.00,1.0091
6970.00,1.0137
6969.00,1.0182
6968.00,1.0227
6967.00,1.0275
6966.00,1.0323
6965.00,1.0370
6964.00,1.0416
6963.00,1.0461
6962.00,1.0504
6961.00,1.0546
6960.00,1.0585
6959.00,1.0620
6958.00,1.0655
6957.00,1.0690
6956.00,1.0726
6955.00,1.0764
6954.00,1.0802
6953.00,1.0841
6952.00,1.0881
6951.00,1.0921
6950.00,1.0960
6949.00,1.0997
6948.00,1.1032
6947.00,1.1066
6946.00,1.1099
6945.00,1.1133
6944.00,1.1166
6943.00,1.1201
6942.00,1.1236
6941.00,1.1269
6940.00,1.1298
6939.00,1.1325
6938.00,1.1353
6937.00,1.1384
6936.00,1.1416
6935.00,1.1446
6934.00,1.1475
6933.00,1.1505
6932.00,1.1536
6931.00,1.1565
6930.00,1.1592
6929.00,1.1614
6928.00,1.1632
6927.00,1.1650
6926.00,1.1671
6925.00,1.1695
6924.00,1.1719
6923.00,1.1740
6922.00,1.1760
6921.00,1.1783
6920.00,1.1807
6919.00,1.1828
6918.00,1.1845
6917.00,1.1860
6916.00,1.1875
6915.00,1.1891
6914.00,1.1909
6913.00,1.1927
6912.00,1.1942
6911.00,1.1955
6910.00,1.1968
6909.00,1.1982
6908.00,1.1998
6907.00,1.2012
6906.00,1.2025
6905.00,1.2040
6904.00,1.2055
6903.00,1.2067
6902.00,1.2074
6901.00,1.2080
6900.00,1.2087
6899.00,1.2096
6898.00,1.2105
6897.00,1.2112
6896.00,1.2119
6895.00,1.2126
6894.00,1.2132
6893.00,1.2137
6892.00,1.2140
6891.00,1.2139
6890.00,1.2139
6889.00,1.2141
6888.00,1.2146
6887.00,1.2150
6886.00,1.2152
6885.00,1.2154
6884.00,1.2158
6883.00,1.2162
6882.00,1.2164
6881.00,1.2164
6880.00,1.2162
6879.00,1.2158
6878.00,1.2151
6877.00,1.2143
6876.00,1.2134
6875.00,1.2124
6874.00,1.2113
6873.00,1.2104
6872.00,1.2098
6871.00,1.2096
6870.00,1.2094
6869.00,1.2090
6868.00,1.2084
6867.00,1.2078
6866.00,1.2070
6865.00,1.2060
6864.00,1.2045
6863.00,1.2028
6862.00,1.2012
6861.00,1.1998
6860.00,1.1986
6859.00,1.1972
6858.00,1.1956
6857.00,1.1941
6856.00,1.1928
6855.00,1.1914
6854.00,1.1897
6853.00,1.1878
6852.00,1.1860
6851.00,1.1844
6850.00,1.1830
6849.00,1.1815
6848.00,1.1797
6847.00,1.1777
6846.00,1.1758
6845.00,1.1738
6844.00,1.1717
6843.00,1.1695
6842.00,1.1673
6841.00,1.1651
6840.00,1.1627
6839.00,1.1600
6838.00,1.1569
6837.00,1.1537
6836.00,1.1506
6835.00,1.1477
6834.00,1.1450
6833.00,1.1425
6832.00,1.1401
6831.00,1.1377
6830.00,1.1353
6829.00,1.1327
6828.00,1.1300
6827.00,1.1272
6826.00,1.1243
6825.00,1.1215
6824.00,1.1187
6823.00,1.1157
6822.00,1.1125
6821.00,1.1092
6820.00,1.1061
6819.00,1.1029
6818.00,1.0995
6817.00,1.0958
6816.00,1.0920
6815.00,1.0885
6814.00,1.0853
6813.00,1.0822
6812.00,1.0790
6811.00,1.0756
6810.00,1.0719
6809.00,1.0680
6808.00,1.0638
6807.00,1.0594
6806.00,1.0551
6805.00,1.0508
6804.00,1.0466
6803.00,1.0423
6802.00,1.0382
6801.00,1.0339
6800.00,1.0295
6799.00,1.0248
6798.00,1.0199
6797.00,1.0151
6796.00,1.0103
6795.00,1.0056
6794.00,1.0008
6793.00,0.9960
6792.00,0.9911
6791.00,0.9860
6790.00,0.9809
6789.00,0.9756
6788.00,0.9705
6787.00,0.9654
6786.00,0.9604
6785.00,0.9555
6784.00,0.9506
6783.00,0.9457
6782.00,0.9406
6781.00,0.9354
6780.00,0.9300
6779.00,0.9244
6778.00,0.9189
6777.00,0.9135
6776.00,0.9082
6775.00,0.9030
6774.00,0.8977
6773.00,0.8922
6772.00,0.8867
6771.00,0.8812
6770.00,0.8757
6769.00,0.8704
6768.00,0.8650
6767.00,0.8595
6766.00,0.8541
6765.00,0.8488
6764.00,0.8436
6763.00,0.8384
6762.00,0.8332
6761.00,0.8280
6760.00,0.8230
6759.00,0.8181
6758.00,0.8133
6757.00,0.8085
6756.00,0.8036
6755.00,0.7987
6754.00,0.7939
6753.00,0.7892
6752.00,0.7845
6751.00,0.7798
6750.00,0.7752
6749.00,0.7707
6748.00,0.7664
6747.00,0.7621
6746.00,0.7581
6745.00,0.7542
6744.00,0.7503
6743.00,0.7466
6742.00,0.7429
6741.00,0.7394
6740.00,0.7360
6739.00,0.7326
6738.00,0.7294
6737.00,0.7263
6736.00,0.7232
6735.00,0.7203
6734.00,0.7176
6733.00,0.7151
6732.00,0.7127
6731.00,0.7103
6730.00,0.7081
6729.00,0.7061
6728.00,0.7042
6727.00,0.7023
6726.00,0.7006
6725.00,0.6991
6724.00,0.6977
6723.00,0.6965
6722.00,0.6955
6721.00,0.6947
6720.00,0.6940
6719.00,0.6933
6718.00,0.6928
6717.00,0.6926
6716.00,0.6925
6715.00,0.6926
6714.00,0.6928
6713.00,0.6932
6712.00,0.6937
6711.00,0.6943
6710.00,0.6950
6709.00,0.6958
6708.00,0.6968
6707.00,0.6980
6706.00,0.6992
6705.00,0.7007
6704.00,0.7023
6703.00,0.7040
6702.00,0.7057
6701.00,0.7076
6700.00,0.7097
6699.00,0.7121
6698.00,0.7146
6697.00,0.7171
6696.00,0.7197
6695.00,0.7224
6694.00,0.7252
6693.00,0.7282
6692.00,0.7313
6691.00,0.7345
6690.00,0.7379
6689.00,0.7415
6688.00,0.7451
6687.00,0.7487
6686.00,0.7523
6685.00,0.7558
6684.00,0.7595
6683.00,0.7633
6682.00,0.7674
6681.00,0.7716
6680.00,0.7759
6679.00,0.7802
6678.00,0.7846
6677.00,0.7890
6676.00,0.7934
6675.00,0.7979
6674.00,0.8024
6673.00,0.8071
6672.00,0.8119
6671.00,0.8167
6670.00,0.8217
6669.00,0.8267
6668.00,0.8318
6667.00,0.8368
6666.00,0.8417
6665.00,0.8467
6664.00,0.8517
6663.00,0.8568
6662.00,0.8620
6661.00,0.8671
6660.00,0.8723
6659.00,0.8773
6658.00,0.8824
6657.00,0.8875
6656.00,0.8925
6655.00,0.8976
6654.00,0.9028
6653.00,0.9082
6652.00,0.9136
6651.00,0.9190
6650.00,0.9245
6649.00,0.9299
6648.00,0.9353
6647.00,0.9406
6646.00,0.9458
6645.00,0.9511
6644.00,0.9562
6643.00,0.9613
6642.00,0.9663
6641.00,0.9714
6640.00,0.9763
6639.00,0.9813
6638.00,0.9864
6637.00,0.9916
6636.00,0.9969
6635.00,1.0019
6634.00,1.0068
6633.00,1.0117
6632.00,1.0166
6631.00,1.0214
6630.00,1.0262
6629.00,1.0311
6628.00,1.0360
6627.00,1.0409
6626.00,1.0457
6625.00,1.0505
6624.00,1.0552
6623.00,1.0597
6622.00,1.0640
6621.00,1.0682
6620.00,1.0725
6619.00,1.0767
6618.00,1.0807
6617.00,1.0846
6616.00,1.0885
6615.00,1.0925
6614.00,1.0967
6613.00,1.1011
6612.00,1.1054
6611.00,1.1094
6610.00,1.1133
6609.00,1.1171
6608.00,1.1210
6607.00,1.1247
6606.00,1.1285
6605.00,1.1323
6604.00,1.1362
6603.00,1.1401
6602.00,1.1438
6601.00,1.1473
6600.00,1.1506
6599.00,1.1539
6598.00,1.1572
6597.00,1.1604
6596.00,1.1637
6595.00,1.1670
6594.00,1.1702
6593.00,1.1732
6592.00,1.1761
6591.00,1.1789
6590.00,1.1818
6589.00,1.1846
6588.00,1.1872
6587.00,1.1898
6586.00,1.1925
6585.00,1.1953
6584.00,1.1979
6583.00,1.2001
6582.00,1.2024
6581.00,1.2049
6580.00,1.2074
6579.00,1.2095
6578.00,1.2113
6577.00,1.2131
6576.00,1.2152
6575.00,1.2171
6574.00,1.2189
6573.00,1.2205
6572.00,1.2222
6571.00,1.2240
6570.00,1.2258
6569.00,1.2274
6568.00,1.2290
6567.00,1.2308
6566.00,1.2329
6565.00,1.2351
6564.00,1.2369
6563.00,1.2383
6562.00,1.2394
6561.00,1.2403
6560.00,1.2411
6559.00,1.2417
6558.00,1.2424
6557.00,1.2432
6556.00,1.2442
6555.00,1.2453
6554.00,1.2465
6553.00,1.2477
6552.00,1.2485
6551.00,1.2491
6550.00,1.2495
6549.00,1.2501
6548.00,1.2507
6547.00,1.2514
6546.00,1.2520
6545.00,1.2525
6544.00,1.2528
6543.00,1.2529
6542.00,1.2528
6541.00,1.2529
6540.00,1.2531
6539.00,1.2535
6538.00,1.2539
6537.00,1.2543
6536.00,1.2544
6535.00,1.2543
6534.00,1.2537
6533.00,1.2527
6532.00,1.2516
6531.00,1.2507
6530.00,1.2500
6529.00,1.2492
6528.00,1.2482
6527.00,1.2472
6526.00,1.2463
6525.00,1.2458
6524.00,1.2453
6523.00,1.2448
6522.00,1.2443
6521.00,1.2436
6520.00,1.2426
6519.00,1.2414
6518.00,1.2400
6517.00,1.2388
6516.00,1.2375
6515.00,1.2362
6514.00,1.2348
6513.00,1.2334
6512.00,1.2320
6511.00,1.2303
6510.00,1.2284
6509.00,1.2264
6508.00,1.2245
6507.00,1.2228
6506.00,1.2209
6505.00,1.2188
6504.00,1.2166
6503.00,1.2145
6502.00,1.2127
6501.00,1.2110
6500.00,1.2089
6499.00,1.2066
6498.00,1.2043
6497.00,1.2020
6496.00,1.1995
6495.00,1.1968
6494.00,1.1939
6493.00,1.1913
6492.00,1.1888
6491.00,1.1862
6490.00,1.1836
6489.00,1.1811
6488.00,1.1786
6487.00,1.1758
6486.00,1.1726
6485.00,1.1692
6484.00,1.1656
6483.00,1.1617
6482.00,1.1578
6481.00,1.1539
6480.00,1.1502
6479.00,1.1467
6478.00,1.1434
6477.00,1.1401
6476.00,1.1367
6475.00,1.1332
6474.00,1.1296
6473.00,1.1259
6472.00,1.1219
6471.00,1.1177
6470.00,1.1134
6469.00,1.1090
6468.00,1.1048
6467.00,1.1007
6466.00,1.0964
6465.00,1.0922
6464.00,1.0878
6463.00,1.0834
6462.00,1.0790
6461.00,1.0746
6460.00,1.0701
6459.00,1.0657
6458.00,1.0614
6457.00,1.0569
6456.00,1.0522
6455.00,1.0473
6454.00,1.0422
6453.00,1.0370
6452.00,1.0319
6451.00,1.0268
6450.00,1.0217
6449.00,1.0167
6448.00,1.0117
6447.00,1.0066
6446.00,1.0015
6445.00,0.9963
6444.00,0.9908
6443.00,0.9851
6442.00,0.9795
6441.00,0.9741
6440.00,0.9687
6439.00,0.9634
6438.00,0.9579
6437.00,0.9525
6436.00,0.9470
6435.00,0.9415
6434.00,0.9359
6433.00,0.9304
6432.00,0.9248
6431.00,0.9192
6430.00,0.9136
6429.00,0.9078
6428.00,0.9020
6427.00,0.8963
6426.00,0.8906
6425.00,0.8850
6424.00,0.8796
6423.00,0.8741
6422.00,0.8687
6421.00,0.8633
6420.00,0.8578
6419.00,0.8523
6418.00,0.8468
6417.00,0.8414
6416.00,0.8361
6415.00,0.8308
6414.00,0.8257
6413.00,0.8206
6412.00,0.8157
6411.00,0.8107
6410.00,0.8058
6409.00,0.8010
6408.00,0.7963
6407.00,0.7917
6406.00,0.7871
6405.00,0.7826
6404.00,0.7783
6403.00,0.7741
6402.00,0.7700
6401.00,0.7659
6400.00,0.7619
6399.00,0.7581
6398.00,0.7545
6397.00,0.7510
6396.00,0.7476
6395.00,0.7443
6394.00,0.7412
6393.00,0.7384
6392.00,0.7357
6391.00,0.7330
6390.00,0.7303
6389.00,0.7278
6388.00,0.7255
6387.00,0.7233
6386.00,0.7212
6385.00,0.7195
6384.00,0.7179
6383.00,0.7166
6382.00,0.7154
6381.00,0.7143
6380.00,0.7134
6379.00,0.7126
6378.00,0.7120
6377.00,0.7117
6376.00,0.7117
6375.00,0.7118
6374.00,0.7121
6373.00,0.7125
6372.00,0.7131
6371.00,0.7138
6370.00,0.7146
6369.00,0.7157
6368.00,0.7169
6367.00,0.7183
6366.00,0.7199
6365.00,0.7216
6364.00,0.7234
6363.00,0.7254
6362.00,0.7277
6361.00,0.7302
6360.00,0.7328
6359.00,0.7356
6358.00,0.7385
6357.00,0.7415
6356.00,0.7446
6355.00,0.7477
6354.00,0.7510
6353.00,0.7544
6352.00,0.7580
6351.00,0.7616
6350.00,0.7654
6349.00,0.7693
6348.00,0.7733
6347.00,0.7775
6346.00,0.7818
6345.00,0.7863
6344.00,0.7907
6343.00,0.7952
6342.00,0.7998
6341.00,0.8046
6340.00,0.8094
6339.00,0.8143
6338.00,0.8193
6337.00,0.8243
6336.00,0.8293
6335.00,0.8343
6334.00,0.8393
6333.00,0.8445
6332.00,0.8498
6331.00,0.8553
6330.00,0.8608
6329.00,0.8663
6328.00,0.8718
6327.00,0.8772
6326.00,0.8825
6325.00,0.8879
6324.00,0.8933
6323.00,0.8987
6322.00,0.9042
6321.00,0.9098
6320.00,0.9156
6319.00,0.9214
6318.00,0.9271
6317.00,0.9329
6316.00,0.9386
6315.00,0.9440
6314.00,0.9493
6313.00,0.9546
6312.00,0.9599
6311.00,0.9653
6310.00,0.9709
6309.00,0.9767
6308.00,0.9825
6307.00,0.9880
6306.00,0.9934
6305.00,0.9986
6304.00,1.0039
6303.00,1.0092
6302.00,1.0145
6301.00,1.0198
6300.00,1.0250
6299.00,1.0302
6298.00,1.0352
6297.00,1.0400
6296.00,1.0447
6295.00,1.0496
6294.00,1.0546
6293.00,1.0596
6292.00,1.0647
6291.00,1.0697
6290.00,1.0746
6289.00,1.0797
6288.00,1.0846
6287.00,1.0893
6286.00,1.0936
6285.00,1.0978
6284.00,1.1020
6283.00,1.1062
6282.00,1.1105
6281.00,1.1148
6280.00,1.1189
6279.00,1.1230
6278.00,1.1271
6277.00,1.1311
6276.00,1.1350
6275.00,1.1389
6274.00,1.1430
6273.00,1.1473
6272.00,1.1515
6271.00,1.1555
6270.00,1.1591
6269.00,1.1625
6268.00,1.1661
6267.00,1.1697
6266.00,1.1732
6265.00,1.1767
6264.00,1.1800
6263.00,1.1831
6262.00,1.1860
6261.00,1.1890
6260.00,1.1921
6259.00,1.1954
6258.00,1.1988
6257.00,1.2021
6256.00,1.2052
6255.00,1.2078
6254.00,1.2103
6253.00,1.2125
6252.00,1.2145
6251.00,1.2166
6250.00,1.2189
6249.00,1.2214
6248.00,1.2238
6247.00,1.2258
6246.00,1.2279
6245.00,1.2301
6244.00,1.2326
6243.00,1.2351
6242.00,1.2374
6241.00,1.2396
6240.00,1.2415
6239.00,1.2431
6238.00,1.2443
6237.00,1.2455
6236.00,1.2467
6235.00,1.2481
6234.00,1.2496
6233.00,1.2511
6232.00,1.2527
6231.00,1.2542
6230.00,1.2555
6229.00,1.2566
6228.00,1.2575
6227.00,1.2582
6226.00,1.2588
6225.00,1.2595
6224.00,1.2601
6223.00,1.2607
6222.00,1.2612
6221.00,1.2617
6220.00,1.2622
6219.00,1.2628
6218.00,1.2632
6217.00,1.2635
6216.00,1.2639
6215.00,1.2645
6214.00,1.2651
6213.00,1.2657
6212.00,1.2660
6211.00,1.2663
6210.00,1.2665
6209.00,1.2666
6208.00,1.2664
6207.00,1.2657
6206.00,1.2649
6205.00,1.2643
6204.00,1.2638
6203.00,1.2634
6202.00,1.2629
6201.00,1.2624
6200.00,1.2619
6199.00,1.2613
6198.00,1.2606
6197.00,1.2597
6196.00,1.2586
6195.00,1.2575
6194.00,1.2567
6193.00,1.2560
6192.00,1.2551
6191.00,1.2540
6190.00,1.2527
6189.00,1.2513
6188.00,1.2498
6187.00,1.2481
6186.00,1.2463
6185.00,1.2445
6184.00,1.2426
6183.00,1.2407
6182.00,1.2388
6181.00,1.2368
6180.00,1.2347
6179.00,1.2326
6178.00,1.2306
6177.00,1.2288
6176.00,1.2268
6175.00,1.2245
6174.00,1.2219
6173.00,1.2192
6172.00,1.2165
6171.00,1.2136
6170.00,1.2108
6169.00,1.2081
6168.00,1.2056
6167.00,1.2034
6166.00,1.2010
6165.00,1.1985
6164.00,1.1957
6163.00,1.1928
6162.00,1.1898
6161.00,1.1868
6160.00,1.1837
6159.00,1.1805
6158.00,1.1773
6157.00,1.1741
6156.00,1.1708
6155.00,1.1672
6154.00,1.1635
6153.00,1.1599
6152.00,1.1562
6151.00,1.1524
6150.00,1.1484
6149.00,1.1443
6148.00,1.1402
6147.00,1.1361
6146.00,1.1320
6145.00,1.1280
6144.00,1.1241
6143.00,1.1201
6142.00,1.1160
6141.00,1.1117
6140.00,1.1074
6139.00,1.1029
6138.00,1.0985
6137.00,1.0942
6136.00,1.0901
6135.00,1.0861
6134.00,1.0821
6133.00,1.0781
6132.00,1.0740
6131.00,1.0698
6130.00,1.0653
6129.00,1.0608
6128.00,1.0563
6127.00,1.0518
6126.00,1.0471
6125.00,1.0425
6124.00,1.0379
6123.00,1.0333
6122.00,1.0287
6121.00,1.0241
6120.00,1.0195
6119.00,1.0150
6118.00,1.0105
6117.00,1.0061
6116.00,1.0018
6115.00,0.9976
6114.00,0.9934
6113.00,0.9890
6112.00,0.9846
6111.00,0.9799
6110.00,0.9750
6109.00,0.9701
6108.00,0.9652
6107.00,0.9606
6106.00,0.9561
6105.00,0.9515
6104.00,0.9470
6103.00,0.9423
6102.00,0.9376
6101.00,0.9328
6100.00,0.9279
6099.00,0.9230
6098.00,0.9181
6097.00,0.9131
6096.00,0.9080
6095.00,0.9029
6094.00,0.8978
6093.00,0.8927
6092.00,0.8876
6091.00,0.8826
6090.00,0.8776
6089.00,0.8726
6088.00,0.8675
6087.00,0.8624
6086.00,0.8572
6085.00,0.8519
6084.00,0.8466
6083.00,0.8413
6082.00,0.8361
6081.00,0.8310
6080.00,0.8259
6079.00,0.8209
6078.00,0.8159
6077.00,0.8109
6076.00,0.8059
6075.00,0.8008
6074.00,0.7959
6073.00,0.7910
6072.00,0.7862
6071.00,0.7814
6070.00,0.7767
6069.00,0.7721
6068.00,0.7675
6067.00,0.7630
6066.00,0.7587
6065.00,0.7546
6064.00,0.7507
6063.00,0.7468
6062.00,0.7430
6061.00,0.7393
6060.00,0.7357
6059.00,0.7322
6058.00,0.7288
6057.00,0.7256
6056.00,0.7225
6055.00,0.7195
6054.00,0.7167
6053.00,0.7142
6052.00,0.7118
6051.00,0.7097
6050.00,0.7078
6049.00,0.7060
6048.00,0.7043
6047.00,0.7027
6046.00,0.7013
6045.00,0.7002
6044.00,0.6994
6043.00,0.6987
6042.00,0.6982
6041.00,0.6978
6040.00,0.6976
6039.00,0.6977
6038.00,0.6979
6037.00,0.6984
6036.00,0.6990
6035.00,0.6999
6034.00,0.7009
6033.00,0.7020
6032.00,0.7033
6031.00,0.7049
6030.00,0.7066
6029.00,0.7086
6028.00,0.7108
6027.00,0.7130
6026.00,0.7154
6025.00,0.7181
6024.00,0.7209
6023.00,0.7239
6022.00,0.7271
6021.00,0.7304
6020.00,0.7339
6019.00,0.7374
6018.00,0.7409
6017.00,0.7446
6016.00,0.7485
6015.00,0.7525
6014.00,0.7568
6013.00,0.7611
6012.00,0.7656
6011.00,0.7703
6010.00,0.7750
6009.00,0.7799
6008.00,0.7849
6007.00,0.7899
6006.00,0.7950
6005.00,0.8002
6004.00,0.8056
6003.00,0.8110
6002.00,0.8164
6001.00,0.8220
6000.00,0.8275
5999.00,0.8331
5998.00,0.8388
5997.00,0.8446
5996.00,0.8505
5995.00,0.8564
5994.00,0.8623
5993.00,0.8683
5992.00,0.8743
5991.00,0.8804
5990.00,0.8866
5989.00,0.8928
5988.00,0.8989
5987.00,0.9049
5986.00,0.9108
5985.00,0.9166
5984.00,0.9226
5983.00,0.9287
5982.00,0.9348
5981.00,0.9411
5980.00,0.9474
5979.00,0.9536
5978.00,0.9597
5977.00,0.9659
5976.00,0.9721
5975.00,0.9782
5974.00,0.9843
5973.00,0.9903
5972.00,0.9963
5971.00,1.0022
5970.00,1.0082
5969.00,1.0141
5968.00,1.0201
5967.00,1.0260
5966.00,1.0319
5965.00,1.0377
5964.00,1.0435
5963.00,1.0492
5962.00,1.0549
5961.00,1.0605
5960.00,1.0661
5959.00,1.0715
5958.00,1.0770
5957.00,1.0825
5956.00,1.0880
5955.00,1.0934
5954.00,1.0987
5953.00,1.1038
5952.00,1.1087
5951.00,1.1136
5950.00,1.1184
5949.00,1.1233
5948.00,1.1283
5947.00,1.1334
5946.00,1.1386
5945.00,1.1437
5944.00,1.1487
5943.00,1.1537
5942.00,1.1586
5941.00,1.1633
5940.00,1.1678
5939.00,1.1723
5938.00,1.1768
5937.00,1.1812
5936.00,1.1856
5935.00,1.1897
5934.00,1.1937
5933.00,1.1976
5932.00,1.2013
5931.00,1.2052
5930.00,1.2091
5929.00,1.2131
5928.00,1.2172
5927.00,1.2211
5926.00,1.2249
5925.00,1.2284
5924.00,1.2318
5923.00,1.2353
5922.00,1.2387
5921.00,1.2419
5920.00,1.2450
5919.00,1.2480
5918.00,1.2510
5917.00,1.2540
5916.00,1.2570
5915.00,1.2600
5914.00,1.2629
5913.00,1.2657
5912.00,1.2682
5911.00,1.2707
5910.00,1.2732
5909.00,1.2757
5908.00,1.2783
5907.00,1.2807
5906.00,1.2830
5905.00,1.2853
5904.00,1.2875
5903.00,1.2899
5902.00,1.2923
5901.00,1.2949
5900.00,1.2973
5899.00,1.2995
5898.00,1.3011
5897.00,1.3024
5896.00,1.3036
5895.00,1.3051
5894.00,1.3068
5893.00,1.3087
5892.00,1.3105
5891.00,1.3120
5890.00,1.3134
5889.00,1.3146
5888.00,1.3157
5887.00,1.3166
5886.00,1.3176
5885.00,1.3187
5884.00,1.3197
5883.00,1.3206
5882.00,1.3213
5881.00,1.3220
5880.00,1.3228
5879.00,1.3238
5878.00,1.3248
5877.00,1.3258
5876.00,1.3267
5875.00,1.3273
5874.00,1.3278
5873.00,1.3281
5872.00,1.3283
5871.00,1.3283
5870.00,1.3284
5869.00,1.3285
5868.00,1.3287
5867.00,1.3288
5866.00,1.3288
5865.00,1.3289
5864.00,1.3290
5863.00,1.3291
5862.00,1.3289
5861.00,1.3287
5860.00,1.3283
5859.00,1.3277
5858.00,1.3269
5857.00,1.3260
5856.00,1.3250
5855.00,1.3241
5854.00,1.3233
5853.00,1.3224
5852.00,1.3215
5851.00,1.3205
5850.00,1.3195
5849.00,1.3183
5848.00,1.3170
5847.00,1.3155
5846.00,1.3140
5845.00,1.3127
5844.00,1.3113
5843.00,1.3099
5842.00,1.3086
5841.00,1.3072
5840.00,1.3059
5839.00,1.3043
5838.00,1.3025
5837.00,1.3004
5836.00,1.2982
5835.00,1.2957
5834.00,1.2930
5833.00,1.2903
5832.00,1.2877
5831.00,1.2852
5830.00,1.2828
5829.00,1.2806
5828.00,1.2785
5827.00,1.2764
5826.00,1.2743
5825.00,1.2718
5824.00,1.2692
5823.00,1.2663
5822.00,1.2633
5821.00,1.2602
5820.00,1.2573
5819.00,1.2544
5818.00,1.2516
5817.00,1.2489
5816.00,1.2461
5815.00,1.2431
5814.00,1.2398
5813.00,1.2365
5812.00,1.2332
5811.00,1.2298
5810.00,1.2263
5809.00,1.2226
5808.00,1.2187
5807.00,1.2148
5806.00,1.2107
5805.00,1.2067
5804.00,1.2027
5803.00,1.1988
5802.00,1.1950
5801.00,1.1911
5800.00,1.1872
5799.00,1.1831
5798.00,1.1789
5797.00,1.1746
5796.00,1.1705
5795.00,1.1664
5794.00,1.1620
5793.00,1.1574
5792.00,1.1526
5791.00,1.1478
5790.00,1.1429
5789.00,1.1379
5788.00,1.1327
5787.00,1.1276
5786.00,1.1225
5785.00,1.1175
5784.00,1.1124
5783.00,1.1071
5782.00,1.1017
5781.00,1.0963
5780.00,1.0907
5779.00,1.0851
5778.00,1.0793
5777.00,1.0735
5776.00,1.0678
5775.00,1.0622
5774.00,1.0565
5773.00,1.0506
5772.00,1.0447
5771.00,1.0388
5770.00,1.0329
5769.00,1.0269
5768.00,1.0208
5767.00,1.0148
5766.00,1.0088
5765.00,1.0027
5764.00,0.9965
5763.00,0.9903
5762.00,0.9841
5761.00,0.9779
5760.00,0.9717
5759.00,0.9654
5758.00,0.9592
5757.00,0.9529
5756.00,0.9465
5755.00,0.9399
5754.00,0.9334
5753.00,0.9268
5752.00,0.9203
5751.00,0.9139
5750.00,0.9075
5749.00,0.9013
5748.00,0.8951
5747.00,0.8888
5746.00,0.8826
5745.00,0.8764
5744.00,0.8702
5743.00,0.8640
5742.00,0.8578
5741.00,0.8517
5740.00,0.8457
5739.00,0.8397
5738.00,0.8337
5737.00,0.8279
5736.00,0.8221
5735.00,0.8163
5734.00,0.8106
5733.00,0.8050
5732.00,0.7995
5731.00,0.7941
5730.00,0.7888
5729.00,0.7835
5728.00,0.7783
5727.00,0.7732
5726.00,0.7684
5725.00,0.7637
5724.00,0.7592
5723.00,0.7548
5722.00,0.7505
5721.00,0.7464
5720.00,0.7424
5719.00,0.7385
5718.00,0.7349
5717.00,0.7314
5716.00,0.7281
5715.00,0.7250
5714.00,0.7221
5713.00,0.7194
5712.00,0.7168
5711.00,0.7145
5710.00,0.7124
5709.00,0.7105
5708.00,0.7088
5707.00,0.7073
5706.00,0.7060
5705.00,0.7050
5704.00,0.7042
5703.00,0.7037
5702.00,0.7033
5701.00,0.7033
5700.00,0.7034
5699.00,0.7037
5698.00,0.7043
5697.00,0.7051
5696.00,0.7062
5695.00,0.7075
5694.00,0.7090
5693.00,0.7107
5692.00,0.7126
5691.00,0.7146
5690.00,0.7168
5689.00,0.7192
5688.00,0.7219
5687.00,0.7247
5686.00,0.7279
5685.00,0.7312
5684.00,0.7348
5683.00,0.7384
5682.00,0.7422
5681.00,0.7461
5680.00,0.7502
5679.00,0.7544
5678.00,0.7589
5677.00,0.7637
5676.00,0.7685
5675.00,0.7734
5674.00,0.7784
5673.00,0.7836
5672.00,0.7888
5671.00,0.7942
5670.00,0.7997
5669.00,0.8052
5668.00,0.8108
5667.00,0.8165
5666.00,0.8224
5665.00,0.8284
5664.00,0.8346
5663.00,0.8408
5662.00,0.8470
5661.00,0.8532
5660.00,0.8594
5659.00,0.8656
5658.00,0.8719
5657.00,0.8784
5656.00,0.8849
5655.00,0.8914
5654.00,0.8980
5653.00,0.9045
5652.00,0.9111
5651.00,0.9176
5650.00,0.9241
5649.00,0.9306
5648.00,0.9372
5647.00,0.9437
5646.00,0.9503
5645.00,0.9570
5644.00,0.9636
5643.00,0.9703
5642.00,0.9770
5641.00,0.9837
5640.00,0.9902
5639.00,0.9968
5638.00,1.0033
5637.00,1.0098
5636.00,1.0163
5635.00,1.0226
5634.00,1.0289
5633.00,1.0351
5632.00,1.0413
5631.00,1.0474
5630.00,1.0535
5629.00,1.0595
5628.00,1.0655
5627.00,1.0715
5626.00,1.0775
5625.00,1.0836
5624.00,1.0897
5623.00,1.0958
5622.00,1.1018
5621.00,1.1076
5620.00,1.1133
5619.00,1.1189
5618.00,1.1244
5617.00,1.1299
5616.00,1.1352
5615.00,1.1404
5614.00,1.1455
5613.00,1.1506
5612.00,1.1558
5611.00,1.1609
5610.00,1.1662
5609.00,1.1714
5608.00,1.1766
5607.00,1.1816
5606.00,1.1866
5605.00,1.1914
5604.00,1.1961
5603.00,1.2008
5602.00,1.2055
5601.00,1.2101
5600.00,1.2145
5599.00,1.2187
5598.00,1.2227
5597.00,1.2267
5596.00,1.2307
5595.00,1.2347
5594.00,1.2388
5593.00,1.2430
5592.00,1.2472
5591.00,1.2513
5590.00,1.2553
5589.00,1.2591
5588.00,1.2628
5587.00,1.2663
5586.00,1.2696
5585.00,1.2728
5584.00,1.2760
5583.00,1.2793
5582.00,1.2827
5581.00,1.2861
5580.00,1.2893
5579.00,1.2925
5578.00,1.2954
5577.00,1.2983
5576.00,1.3011
5575.00,1.3039
5574.00,1.3068
5573.00,1.3097
5572.00,1.3122
5571.00,1.3146
5570.00,1.3169
5569.00,1.3192
5568.00,1.3216
5567.00,1.3239
5566.00,1.3263
5565.00,1.3285
5564.00,1.3306
5563.00,1.3324
5562.00,1.3342
5561.00,1.3359
5560.00,1.3377
5559.00,1.3395
5558.00,1.3414
5557.00,1.3434
5556.00,1.3454
5555.00,1.3473
5554.00,1.3489
5553.00,1.3503
5552.00,1.3516
5551.00,1.3528
5550.00,1.3540
5549.00,1.3551
5548.00,1.3562
5547.00,1.3571
5546.00,1.3578
5545.00,1.3584
5544.00,1.3589
5543.00,1.3597
5542.00,1.3607
5541.00,1.3617
5540.00,1.3627
5539.00,1.3636
5538.00,1.3645
5537.00,1.3650
5536.00,1.3654
5535.00,1.3655
5534.00,1.3656
5533.00,1.3656
5532.00,1.3654
5531.00,1.3650
5530.00,1.3647
5529.00,1.3645
5528.00,1.3644
5527.00,1.3646
5526.00,1.3650
5525.00,1.3651
5524.00,1.3649
5523.00,1.3643
5522.00,1.3635
5521.00,1.3627
5520.00,1.3620
5519.00,1.3614
5518.00,1.3609
5517.00,1.3603
5516.00,1.3594
5515.00,1.3583
5514.00,1.3572
5513.00,1.3561
5512.00,1.3551
5511.00,1.3541
5510.00,1.3531
5509.00,1.3518
5508.00,1.3503
5507.00,1.3486
5506.00,1.3469
5505.00,1.3453
5504.00,1.3437
5503.00,1.3422
5502.00,1.3406
5501.00,1.3391
5500.00,1.3376
5499.00,1.3358
5498.00,1.3339
5497.00,1.3318
5496.00,1.3294
5495.00,1.3268
5494.00,1.3241
5493.00,1.3215
5492.00,1.3191
5491.00,1.3168
5490.00,1.3146
5489.00,1.3124
5488.00,1.3099
5487.00,1.3071
5486.00,1.3039
5485.00,1.3007
5484.00,1.2975
5483.00,1.2945
5482.00,1.2917
5481.00,1.2889
5480.00,1.2860
5479.00,1.2830
5478.00,1.2797
5477.00,1.2763
5476.00,1.2728
5475.00,1.2691
5474.00,1.2652
5473.00,1.2614
5472.00,1.2577
5471.00,1.2541
5470.00,1.2505
5469.00,1.2469
5468.00,1.2431
5467.00,1.2391
5466.00,1.2348
5465.00,1.2303
5464.00,1.2257
5463.00,1.2209
5462.00,1.2162
5461.00,1.2114
5460.00,1.2067
5459.00,1.2021
5458.00,1.1974
5457.00,1.1928
5456.00,1.1882
5455.00,1.1834
5454.00,1.1785
5453.00,1.1734
5452.00,1.1682
5451.00,1.1628
5450.00,1.1573
5449.00,1.1518
5448.00,1.1463
5447.00,1.1408
5446.00,1.1353
5445.00,1.1297
5444.00,1.1239
5443.00,1.1181
5442.00,1.1123
5441.00,1.1064
5440.00,1.1005
5439.00,1.0943
5438.00,1.0880
5437.00,1.0819
5436.00,1.0758
5435.00,1.0697
5434.00,1.0633
5433.00,1.0567
5432.00,1.0500
5431.00,1.0433
5430.00,1.0366
5429.00,1.0299
5428.00,1.0232
5427.00,1.0163
5426.00,1.0093
5425.00,1.0024
5424.00,0.9956
5423.00,0.9888
5422.00,0.9820
5421.00,0.9752
5420.00,0.9683
5419.00,0.9614
5418.00,0.9543
5417.00,0.9471
5416.00,0.9398
5415.00,0.9325
5414.00,0.9251
5413.00,0.9176
5412.00,0.9102
5411.00,0.9027
5410.00,0.8954
5409.00,0.8882
5408.00,0.8809
5407.00,0.8737
5406.00,0.8667
5405.00,0.8597
5404.00,0.8528
5403.00,0.8458
5402.00,0.8389
5401.00,0.8320
5400.00,0.8252
5399.00,0.8185
5398.00,0.8118
5397.00,0.8052
5396.00,0.7986
5395.00,0.7920
5394.00,0.7855
5393.00,0.7791
5392.00,0.7729
5391.00,0.7668
5390.00,0.7609
5389.00,0.7553
5388.00,0.7499
5387.00,0.7445
5386.00,0.7394
5385.00,0.7343
5384.00,0.7295
5383.00,0.7248
5382.00,0.7205
5381.00,0.7164
5380.00,0.7125
5379.00,0.7087
5378.00,0.7052
5377.00,0.7019
5376.00,0.6987
5375.00,0.6956
5374.00,0.6929
5373.00,0.6906
5372.00,0.6887
5371.00,0.6871
5370.00,0.6857
5369.00,0.6846
5368.00,0.6837
5367.00,0.6830
5366.00,0.6826
5365.00,0.6826
5364.00,0.6828
5363.00,0.6832
5362.00,0.6838
5361.00,0.6847
5360.00,0.6858
5359.00,0.6872
5358.00,0.6889
5357.00,0.6908
5356.00,0.6930
5355.00,0.6955
5354.00,0.6981
5353.00,0.7010
5352.00,0.7041
5351.00,0.7074
5350.00,0.7109
5349.00,0.7146
5348.00,0.7185
5347.00,0.7224
5346.00,0.7266
5345.00,0.7311
5344.00,0.7359
5343.00,0.7407
5342.00,0.7457
5341.00,0.7508
5340.00,0.7562
5339.00,0.7618
5338.00,0.7676
5337.00,0.7734
5336.00,0.7793
5335.00,0.7854
5334.00,0.7916
5333.00,0.7980
5332.00,0.8045
5331.00,0.8109
5330.00,0.8174
5329.00,0.8240
5328.00,0.8307
5327.00,0.8375
5326.00,0.8444
5325.00,0.8513
5324.00,0.8583
5323.00,0.8654
5322.00,0.8725
5321.00,0.8796
5320.00,0.8868
5319.00,0.8941
5318.00,0.9015
5317.00,0.9089
5316.00,0.9163
5315.00,0.9236
5314.00,0.9309
5313.00,0.9382
5312.00,0.9454
5311.00,0.9527
5310.00,0.9601
5309.00,0.9674
5308.00,0.9747
5307.00,0.9820
5306.00,0.9893
5305.00,0.9965
5304.00,1.0037
5303.00,1.0110
5302.00,1.0183
5301.00,1.0256
5300.00,1.0328
5299.00,1.0399
5298.00,1.0470
5297.00,1.0539
5296.00,1.0606
5295.00,1.0672
5294.00,1.0737
5293.00,1.0802
5292.00,1.0867
5291.00,1.0932
5290.00,1.0999
5289.00,1.1065
5288.00,1.1130
5287.00,1.1195
5286.00,1.1258
5285.00,1.1320
5284.00,1.1381
5283.00,1.1442
5282.00,1.1503
5281.00,1.1565
5280.00,1.1626
5279.00,1.1685
5278.00,1.1743
5277.00,1.1799
5276.00,1.1856
5275.00,1.1913
5274.00,1.1970
5273.00,1.2027
5272.00,1.2081
5271.00,1.2134
5270.00,1.2186
5269.00,1.2239
5268.00,1.2291
5267.00,1.2343
5266.00,1.2393
5265.00,1.2442
5264.00,1.2490
5263.00,1.2536
5262.00,1.2582
5261.00,1.2628
5260.00,1.2674
5259.00,1.2717
5258.00,1.2759
5257.00,1.2801
5256.00,1.2844
5255.00,1.2888
5254.00,1.2932
5253.00,1.2974
5252.00,1.3014
5251.00,1.3052
5250.00,1.3090
5249.00,1.3129
5248.00,1.3169
5247.00,1.3207
5246.00,1.3243
5245.00,1.3278
5244.00,1.3311
5243.00,1.3342
5242.00,1.3373
5241.00,1.3404
5240.00,1.3437
5239.00,1.3470
5238.00,1.3503
5237.00,1.3535
5236.00,1.3566
5235.00,1.3597
5234.00,1.3625
5233.00,1.3650
5232.00,1.3674
5231.00,1.3698
5230.00,1.3723
5229.00,1.3749
5228.00,1.3773
5227.00,1.3798
5226.00,1.3820
5225.00,1.3842
5224.00,1.3861
5223.00,1.3880
5222.00,1.3898
5221.00,1.3917
5220.00,1.3938
5219.00,1.3959
5218.00,1.3979
5217.00,1.3997
5216.00,1.4013
5215.00,1.4025
5214.00,1.4036
5213.00,1.4046
5212.00,1.4057
5211.00,1.4070
5210.00,1.4083
5209.00,1.4096
5208.00,1.4107
5207.00,1.4117
5206.00,1.4124
5205.00,1.4131
5204.00,1.4139
5203.00,1.4148
5202.00,1.4157
5201.00,1.4164
5200.00,1.4169
5199.00,1.4173
5198.00,1.4178
5197.00,1.4184
5196.00,1.4190
5195.00,1.4195
5194.00,1.4199
5193.00,1.4201
5192.00,1.4201
5191.00,1.4200
5190.00,1.4197
5189.00,1.4192
5188.00,1.4187
5187.00,1.4181
5186.00,1.4177
5185.00,1.4175
5184.00,1.4174
5183.00,1.4174
5182.00,1.4172
5181.00,1.4167
5180.00,1.4160
5179.00,1.4148
5178.00,1.4134
5177.00,1.4120
5176.00,1.4108
5175.00,1.4100
5174.00,1.4093
5173.00,1.4086
5172.00,1.4076
5171.00,1.4065
5170.00,1.4051
5169.00,1.4036
5168.00,1.4022
5167.00,1.4008
5166.00,1.3993
5165.00,1.3977
5164.00,1.3957
5163.00,1.3935
5162.00,1.3913
5161.00,1.3893
5160.00,1.3873
5159.00,1.3853
5158.00,1.3832
5157.00,1.3809
5156.00,1.3784
5155.00,1.3759
5154.00,1.3734
5153.00,1.3709
5152.00,1.3683
5151.00,1.3658
5150.00,1.3631
5149.00,1.3603
5148.00,1.3575
5147.00,1.3547
5146.00,1.3519
5145.00,1.3488
5144.00,1.3456
5143.00,1.3423
5142.00,1.3389
5141.00,1.3356
5140.00,1.3322
5139.00,1.3289
5138.00,1.3254
5137.00,1.3217
5136.00,1.3178
5135.00,1.3138
5134.00,1.3097
5133.00,1.3057
5132.00,1.3016
5131.00,1.2975
5130.00,1.2933
5129.00,1.2889
5128.00,1.2845
5127.00,1.2800
5126.00,1.2756
5125.00,1.2711
5124.00,1.2666
5123.00,1.2619
5122.00,1.2570
5121.00,1.2520
5120.00,1.2468
5119.00,1.2417
5118.00,1.2366
5117.00,1.2315
5116.00,1.2265
5115.00,1.2213
5114.00,1.2160
5113.00,1.2104
5112.00,1.2047
5111.00,1.1989
5110.00,1.1930
5109.00,1.1872
5108.00,1.1813
5107.00,1.1753
5106.00,1.1692
5105.00,1.1628
5104.00,1.1564
5103.00,1.1499
5102.00,1.1434
5101.00,1.1369
5100.00,1.1305
5099.00,1.1239
5098.00,1.1173
5097.00,1.1105
5096.00,1.1036
5095.00,1.0967
5094.00,1.0896
5093.00,1.0825
5092.00,1.0753
5091.00,1.0680
5090.00,1.0606
5089.00,1.0532
5088.00,1.0458
5087.00,1.0384
5086.00,1.0308
5085.00,1.0232
5084.00,1.0155
5083.00,1.0077
5082.00,0.9999
5081.00,0.9921
5080.00,0.9842
5079.00,0.9763
5078.00,0.9684
5077.00,0.9604
5076.00,0.9525
5075.00,0.9445
5074.00,0.9365
5073.00,0.9284
5072.00,0.9204
5071.00,0.9123
5070.00,0.9043
5069.00,0.8963
5068.00,0.8883
5067.00,0.8804
5066.00,0.8724
5065.00,0.8645
5064.00,0.8567
5063.00,0.8488
5062.00,0.8411
5061.00,0.8336
5060.00,0.8261
5059.00,0.8187
5058.00,0.8115
5057.00,0.8043
5056.00,0.7973
5055.00,0.7904
5054.00,0.7836
5053.00,0.7770
5052.00,0.7706
5051.00,0.7643
5050.00,0.7583
5049.00,0.7523
5048.00,0.7466
5047.00,0.7412
5046.00,0.7359
5045.00,0.7310
5044.00,0.7263
5043.00,0.7219
5042.00,0.7177
5041.00,0.7138
5040.00,0.7102
5039.00,0.7069
5038.00,0.7039
5037.00,0.7013
5036.00,0.6989
5035.00,0.6968
5034.00,0.6950
5033.00,0.6935
5032.00,0.6923
5031.00,0.6913
5030.00,0.6907
5029.00,0.6905
5028.00,0.6906
5027.00,0.6910
5026.00,0.6917
5025.00,0.6928
5024.00,0.6942
5023.00,0.6958
5022.00,0.6977
5021.00,0.6999
5020.00,0.7024
5019.00,0.7052
5018.00,0.7083
5017.00,0.7117
5016.00,0.7153
5015.00,0.7192
5014.00,0.7233
5013.00,0.7277
5012.00,0.7323
5011.00,0.7371
5010.00,0.7421
5009.00,0.7474
5008.00,0.7529
5007.00,0.7586
5006.00,0.7645
5005.00,0.7706
5004.00,0.7769
5003.00,0.7834
5002.00,0.7900
5001.00,0.7967
5000.00,0.8035
4999.00,0.8105
4998.00,0.8176
4997.00,0.8250
4996.00,0.8325
4995.00,0.8400
4994.00,0.8477
4993.00,0.8554
4992.00,0.8632
4991.00,0.8710
4990.00,0.8789
4989.00,0.8870
4988.00,0.8950
4987.00,0.9031
4986.00,0.9112
4985.00,0.9194
4984.00,0.9277
4983.00,0.9359
4982.00,0.9441
4981.00,0.9524
4980.00,0.9606
4979.00,0.9687
4978.00,0.9769
4977.00,0.9850
4976.00,0.9931
4975.00,1.0011
4974.00,1.0092
4973.00,1.0173
4972.00,1.0254
4971.00,1.0335
4970.00,1.0416
4969.00,1.0497
4968.00,1.0576
4967.00,1.0655
4966.00,1.0732
4965.00,1.0809
4964.00,1.0886
4963.00,1.0962
4962.00,1.1038
4961.00,1.1114
4960.00,1.1189
4959.00,1.1264
4958.00,1.1339
4957.00,1.1413
4956.00,1.1485
4955.00,1.1557
4954.00,1.1628
4953.00,1.1698
4952.00,1.1768
4951.00,1.1837
4950.00,1.1905
4949.00,1.1970
4948.00,1.2034
4947.00,1.2098
4946.00,1.2162
4945.00,1.2226
4944.00,1.2290
4943.00,1.2353
4942.00,1.2415
4941.00,1.2476
4940.00,1.2536
4939.00,1.2596
4938.00,1.2655
4937.00,1.2714
4936.00,1.2770
4935.00,1.2825
4934.00,1.2879
4933.00,1.2932
4932.00,1.2984
4931.00,1.3036
4930.00,1.3088
4929.00,1.3139
4928.00,1.3190
4927.00,1.3240
4926.00,1.3289
4925.00,1.3336
4924.00,1.3383
4923.00,1.3428
4922.00,1.3473
4921.00,1.3519
4920.00,1.3564
4919.00,1.3609
4918.00,1.3653
4917.00,1.3696
4916.00,1.3737
4915.00,1.3776
4914.00,1.3813
4913.00,1.3850
4912.00,1.3886
4911.00,1.3923
4910.00,1.3958
4909.00,1.3994
4908.00,1.4028
4907.00,1.4063
4906.00,1.4098
4905.00,1.4131
4904.00,1.4163
4903.00,1.4194
4902.00,1.4226
4901.00,1.4257
4900.00,1.4288
4899.00,1.4318
4898.00,1.4344
4897.00,1.4369
4896.00,1.4393
4895.00,1.4418
4894.00,1.4444
4893.00,1.4470
4892.00,1.4495
4891.00,1.4519
4890.00,1.4542
4889.00,1.4564
4888.00,1.4586
4887.00,1.4606
4886.00,1.4625
4885.00,1.4641
4884.00,1.4657
4883.00,1.4673
4882.00,1.4689
4881.00,1.4706
4880.00,1.4722
4879.00,1.4737
4878.00,1.4752
4877.00,1.4765
4876.00,1.4779
4875.00,1.4792
4874.00,1.4804
4873.00,1.4814
4872.00,1.4824
4871.00,1.4833
4870.00,1.4844
4869.00,1.4856
4868.00,1.4866
4867.00,1.4875
4866.00,1.4880
4865.00,1.4883
4864.00,1.4885
4863.00,1.4888
4862.00,1.4893
4861.00,1.4898
4860.00,1.4902
4859.00,1.4905
4858.00,1.4905
4857.00,1.4904
4856.00,1.4901
4855.00,1.4897
4854.00,1.4894
4853.00,1.4891
4852.00,1.4889
4851.00,1.4886
4850.00,1.4883
4849.00,1.4880
4848.00,1.4875
4847.00,1.4869
4846.00,1.4863
4845.00,1.4855
4844.00,1.4846
4843.00,1.4837
4842.00,1.4827
4841.00,1.4818
4840.00,1.4808
4839.00,1.4799
4838.00,1.4790
4837.00,1.4780
4836.00,1.4767
4835.00,1.4752
4834.00,1.4735
4833.00,1.4716
4832.00,1.4697
4831.00,1.4679
4830.00,1.4661
4829.00,1.4642
4828.00,1.4623
4827.00,1.4604
4826.00,1.4586
4825.00,1.4567
4824.00,1.4547
4823.00,1.4525
4822.00,1.4500
4821.00,1.4474
4820.00,1.4447
4819.00,1.4420
4818.00,1.4392
4817.00,1.4365
4816.00,1.4338
4815.00,1.4310
4814.00,1.4281
4813.00,1.4252
4812.00,1.4222
4811.00,1.4191
4810.00,1.4158
4809.00,1.4124
4808.00,1.4090
4807.00,1.4056
4806.00,1.4023
4805.00,1.3988
4804.00,1.3953
4803.00,1.3916
4802.00,1.3878
4801.00,1.3839
4800.00,1.3799
4799.00,1.3758
4798.00,1.3717
4797.00,1.3675
4796.00,1.3631
4795.00,1.3587
4794.00,1.3542
4793.00,1.3495
4792.00,1.3447
4791.00,1.3398
4790.00,1.3348
4789.00,1.3298
4788.00,1.3248
4787.00,1.3198
4786.00,1.3147
4785.00,1.3096
4784.00,1.3044
4783.00,1.2991
4782.00,1.2937
4781.00,1.2881
4780.00,1.2824
4779.00,1.2767
4778.00,1.2709
4777.00,1.2650
4776.00,1.2588
4775.00,1.2525
4774.00,1.2459
4773.00,1.2394
4772.00,1.2329
4771.00,1.2266
4770.00,1.2202
4769.00,1.2137
4768.00,1.2070
4767.00,1.2001
4766.00,1.1930
4765.00,1.1858
4764.00,1.1785
4763.00,1.1713
4762.00,1.1640
4761.00,1.1567
4760.00,1.1493
4759.00,1.1417
4758.00,1.1340
4757.00,1.1262
4756.00,1.1182
4755.00,1.1103
4754.00,1.1023
4753.00,1.0944
4752.00,1.0864
4751.00,1.0782
4750.00,1.0698
4749.00,1.0613
4748.00,1.0527
4747.00,1.0441
4746.00,1.0355
4745.00,1.0269
4744.00,1.0182
4743.00,1.0094
4742.00,1.0006
4741.00,0.9917
4740.00,0.9828
4739.00,0.9739
4738.00,0.9649
4737.00,0.9560
4736.00,0.9469
4735.00,0.9379
4734.00,0.9289
4733.00,0.9198
4732.00,0.9108
4731.00,0.9018
4730.00,0.8928
4729.00,0.8839
4728.00,0.8750
4727.00,0.8662
4726.00,0.8574
4725.00,0.8487
4724.00,0.8401
4723.00,0.8316
4722.00,0.8232
4721.00,0.8149
4720.00,0.8068
4719.00,0.7988
4718.00,0.7910
4717.00,0.7835
4716.00,0.7761
4715.00,0.7690
4714.00,0.7620
4713.00,0.7554
4712.00,0.7489
4711.00,0.7426
4710.00,0.7367
4709.00,0.7310
4708.00,0.7256
4707.00,0.7205
4706.00,0.7158
4705.00,0.7115
4704.00,0.7075
4703.00,0.7038
4702.00,0.7006
4701.00,0.6977
4700.00,0.6951
4699.00,0.6931
4698.00,0.6914
4697.00,0.6902
4696.00,0.6895
4695.00,0.6892
4694.00,0.6893
4693.00,0.6898
4692.00,0.6907
4691.00,0.6920
4690.00,0.6936
4689.00,0.6956
4688.00,0.6980
4687.00,0.7007
4686.00,0.7038
4685.00,0.7072
4684.00,0.7109
4683.00,0.7149
4682.00,0.7191
4681.00,0.7237
4680.00,0.7284
4679.00,0.7335
4678.00,0.7387
4677.00,0.7441
4676.00,0.7498
4675.00,0.7556
4674.00,0.7617
4673.00,0.7679
4672.00,0.7744
4671.00,0.7810
4670.00,0.7878
4669.00,0.7947
4668.00,0.8018
4667.00,0.8091
4666.00,0.8165
4665.00,0.8240
4664.00,0.8317
4663.00,0.8396
4662.00,0.8476
4661.00,0.8557
4660.00,0.8639
4659.00,0.8723
4658.00,0.8809
4657.00,0.8895
4656.00,0.8983
4655.00,0.9071
4654.00,0.9159
4653.00,0.9248
4652.00,0.9338
4651.00,0.9428
4650.00,0.9519
4649.00,0.9610
4648.00,0.9702
4647.00,0.9794
4646.00,0.9886
4645.00,0.9978
4644.00,1.0071
4643.00,1.0163
4642.00,1.0256
4641.00,1.0349
4640.00,1.0440
4639.00,1.0531
4638.00,1.0621
4637.00,1.0710
4636.00,1.0800
4635.00,1.0890
4634.00,1.0980
4633.00,1.1069
4632.00,1.1158
4631.00,1.1244
4630.00,1.1330
4629.00,1.1415
4628.00,1.1499
4627.00,1.1582
4626.00,1.1665
4625.00,1.1748
4624.00,1.1830
4623.00,1.1911
4622.00,1.1991
4621.00,1.2070
4620.00,1.2148
4619.00,1.2224
4618.00,1.2300
4617.00,1.2375
4616.00,1.2449
4615.00,1.2522
4614.00,1.2594
4613.00,1.2666
4612.00,1.2736
4611.00,1.2805
4610.00,1.2873
4609.00,1.2941
4608.00,1.3008
4607.00,1.3075
4606.00,1.3142
4605.00,1.3207
4604.00,1.3270
4603.00,1.3332
4602.00,1.3395
4601.00,1.3457
4600.00,1.3518
4599.00,1.3577
4598.00,1.3634
4597.00,1.3688
4596.00,1.3741
4595.00,1.3794
4594.00,1.3849
4593.00,1.3905
4592.00,1.3958
4591.00,1.4010
4590.00,1.4059
4589.00,1.4107
4588.00,1.4156
4587.00,1.4206
4586.00,1.4255
4585.00,1.4303
4584.00,1.4349
4583.00,1.4393
4582.00,1.4437
4581.00,1.4482
4580.00,1.4526
4579.00,1.4569
4578.00,1.4609
4577.00,1.4647
4576.00,1.4684
4575.00,1.4723
4574.00,1.4762
4573.00,1.4802
4572.00,1.4841
4571.00,1.4878
4570.00,1.4912
4569.00,1.4945
4568.00,1.4978
4567.00,1.5011
4566.00,1.5044
4565.00,1.5077
4564.00,1.5110
4563.00,1.5141
4562.00,1.5170
4561.00,1.5197
4560.00,1.5222
4559.00,1.5248
4558.00,1.5274
4557.00,1.5301
4556.00,1.5328
4555.00,1.5353
4554.00,1.5377
4553.00,1.5399
4552.00,1.5420
4551.00,1.5440
4550.00,1.5460
4549.00,1.5480
4548.00,1.5498
4547.00,1.5516
4546.00,1.5533
4545.00,1.5550
4544.00,1.5566
4543.00,1.5582
4542.00,1.5600
4541.00,1.5617
4540.00,1.5633
4539.00,1.5646
4538.00,1.5656
4537.00,1.5664
4536.00,1.5673
4535.00,1.5683
4534.00,1.5694
4533.00,1.5704
4532.00,1.5713
4531.00,1.5720
4530.00,1.5726
4529.00,1.5732
4528.00,1.5738
4527.00,1.5744
4526.00,1.5750
4525.00,1.5755
4524.00,1.5759
4523.00,1.5761
4522.00,1.5763
4521.00,1.5764
4520.00,1.5765
4519.00,1.5763
4518.00,1.5760
4517.00,1.5756
4516.00,1.5752
4515.00,1.5749
4514.00,1.5746
4513.00,1.5744
4512.00,1.5742
4511.00,1.5739
4510.00,1.5736
4509.00,1.5731
4508.00,1.5723
4507.00,1.5712
4506.00,1.5700
4505.00,1.5688
4504.00,1.5675
4503.00,1.5663
4502.00,1.5652
4501.00,1.5640
4500.00,1.5628
4499.00,1.5614
4498.00,1.5599
4497.00,1.5582
4496.00,1.5566
4495.00,1.5548
4494.00,1.5531
4493.00,1.5512
4492.00,1.5493
4491.00,1.5471
4490.00,1.5449
4489.00,1.5425
4488.00,1.5402
4487.00,1.5381
4486.00,1.5359
4485.00,1.5336
4484.00,1.5311
4483.00,1.5284
4482.00,1.5255
4481.00,1.5225
4480.00,1.5195
4479.00,1.5165
4478.00,1.5137
4477.00,1.5109
4476.00,1.5081
4475.00,1.5052
4474.00,1.5020
4473.00,1.4984
4472.00,1.4946
4471.00,1.4907
4470.00,1.4867
4469.00,1.4828
4468.00,1.4790
4467.00,1.4751
4466.00,1.4712
4465.00,1.4672
4464.00,1.4631
4463.00,1.4590
4462.00,1.4547
4461.00,1.4503
4460.00,1.4457
4459.00,1.4410
4458.00,1.4364
4457.00,1.4317
4456.00,1.4270
4455.00,1.4220
4454.00,1.4168
4453.00,1.4113
4452.00,1.4059
4451.00,1.4006
4450.00,1.3952
4449.00,1.3898
4448.00,1.3843
4447.00,1.3787
4446.00,1.3729
4445.00,1.3670
4444.00,1.3610
4443.00,1.3548
4442.00,1.3486
4441.00,1.3424
4440.00,1.3361
4439.00,1.3296
4438.00,1.3229
4437.00,1.3161
4436.00,1.3092
4435.00,1.3022
4434.00,1.2952
4433.00,1.2879
4432.00,1.2806
4431.00,1.2731
4430.00,1.2656
4429.00,1.2580
4428.00,1.2504
4427.00,1.2426
4426.00,1.2346
4425.00,1.2265
4424.00,1.2184
4423.00,1.2101
4422.00,1.2017
4421.00,1.1932
4420.00,1.1847
4419.00,1.1760
4418.00,1.1673
4417.00,1.1584
4416.00,1.1495
4415.00,1.1405
4414.00,1.1314
4413.00,1.1223
4412.00,1.1131
4411.00,1.1038
4410.00,1.0944
4409.00,1.0849
4408.00,1.0753
4407.00,1.0657
4406.00,1.0560
4405.00,1.0463
4404.00,1.0366
4403.00,1.0268
4402.00,1.0171
4401.00,1.0074
4400.00,0.9976
4399.00,0.9878
4398.00,0.9781
4397.00,0.9683
4396.00,0.9586
4395.00,0.9490
4394.00,0.9394
4393.00,0.9300
4392.00,0.9206
4391.00,0.9113
4390.00,0.9023
4389.00,0.8933
4388.00,0.8845
4387.00,0.8758
4386.00,0.8673
4385.00,0.8589
4384.00,0.8508
4383.00,0.8429
4382.00,0.8353
4381.00,0.8279
4380.00,0.8208
4379.00,0.8139
4378.00,0.8073
4377.00,0.8010
4376.00,0.7949
4375.00,0.7892
4374.00,0.7838
4373.00,0.7787
4372.00,0.7739
4371.00,0.7694
4370.00,0.7651
4369.00,0.7611
4368.00,0.7574
4367.00,0.7540
4366.00,0.7508
4365.00,0.7480
4364.00,0.7454
4363.00,0.7432
4362.00,0.7412
4361.00,0.7396
4360.00,0.7384
4359.00,0.7376
4358.00,0.7371
4357.00,0.7371
4356.00,0.7374
4355.00,0.7382
4354.00,0.7394
4353.00,0.7411
4352.00,0.7433
4351.00,0.7458
4350.00,0.7488
4349.00,0.7522
4348.00,0.7559
4347.00,0.7600
4346.00,0.7644
4345.00,0.7691
4344.00,0.7741
4343.00,0.7795
4342.00,0.7852
4341.00,0.7911
4340.00,0.7974
4339.00,0.8040
4338.00,0.8108
4337.00,0.8180
4336.00,0.8254
4335.00,0.8331
4334.00,0.8411
4333.00,0.8494
4332.00,0.8579
4331.00,0.8666
4330.00,0.8756
4329.00,0.8849
4328.00,0.8944
4327.00,0.9041
4326.00,0.9139
4325.00,0.9239
4324.00,0.9339
4323.00,0.9441
4322.00,0.9545
4321.00,0.9649
4320.00,0.9753
4319.00,0.9859
4318.00,0.9964
4317.00,1.0068
4316.00,1.0172
4315.00,1.0276
4314.00,1.0380
4313.00,1.0485
4312.00,1.0589
4311.00,1.0693
4310.00,1.0796
4309.00,1.0899
4308.00,1.1001
4307.00,1.1102
4306.00,1.1202
4305.00,1.1303
4304.00,1.1403
4303.00,1.1503
4302.00,1.1603
4301.00,1.1701
4300.00,1.1798
4299.00,1.1895
4298.00,1.1991
4297.00,1.2086
4296.00,1.2181
4295.00,1.2275
4294.00,1.2367
4293.00,1.2458
4292.00,1.2547
4291.00,1.2635
4290.00,1.2722
4289.00,1.2808
4288.00,1.2893
4287.00,1.2977
4286.00,1.3059
4285.00,1.3140
4284.00,1.3221
4283.00,1.3300
4282.00,1.3378
4281.00,1.3455
4280.00,1.3531
4279.00,1.3605
4278.00,1.3678
4277.00,1.3751
4276.00,1.3822
4275.00,1.3890
4274.00,1.3957
4273.00,1.4022
4272.00,1.4086
4271.00,1.4151
4270.00,1.4216
4269.00,1.4280
4268.00,1.4343
4267.00,1.4405
4266.00,1.4467
4265.00,1.4527
4264.00,1.4585
4263.00,1.4643
4262.00,1.4701
4261.00,1.4759
4260.00,1.4818
4259.00,1.4875
4258.00,1.4930
4257.00,1.4982
4256.00,1.5032
4255.00,1.5083
4254.00,1.5134
4253.00,1.5187
4252.00,1.5240
4251.00,1.5292
4250.00,1.5340
4249.00,1.5386
4248.00,1.5431
4247.00,1.5474
4246.00,1.5519
4245.00,1.5564
4244.00,1.5610
4243.00,1.5653
4242.00,1.5693
4241.00,1.5732
4240.00,1.5772
4239.00,1.5813
4238.00,1.5854
4237.00,1.5893
4236.00,1.5930
4235.00,1.5966
4234.00,1.6000
4233.00,1.6036
4232.00,1.6072
4231.00,1.6108
4230.00,1.6144
4229.00,1.6177
4228.00,1.6208
4227.00,1.6238
4226.00,1.6267
4225.00,1.6294
4224.00,1.6321
4223.00,1.6346
4222.00,1.6370
4221.00,1.6394
4220.00,1.6417
4219.00,1.6440
4218.00,1.6463
4217.00,1.6485
4216.00,1.6507
4215.00,1.6530
4214.00,1.6553
4213.00,1.6574
4212.00,1.6595
4211.00,1.6614
4210.00,1.6630
4209.00,1.6645
4208.00,1.6660
4207.00,1.6675
4206.00,1.6692
4205.00,1.6708
4204.00,1.6721
4203.00,1.6732
4202.00,1.6740
4201.00,1.6748
4200.00,1.6758
4199.00,1.6769
4198.00,1.6780
4197.00,1.6789
4196.00,1.6796
4195.00,1.6802
4194.00,1.6808
4193.00,1.6813
4192.00,1.6818
4191.00,1.6823
4190.00,1.6826
4189.00,1.6829
4188.00,1.6832
4187.00,1.6834
4186.00,1.6836
4185.00,1.6837
4184.00,1.6837
4183.00,1.6835
4182.00,1.6834
4181.00,1.6834
4180.00,1.6835
4179.00,1.6835
4178.00,1.6832
4177.00,1.6826
4176.00,1.6818
4175.00,1.6808
4174.00,1.6800
4173.00,1.6793
4172.00,1.6787
4171.00,1.6781
4170.00,1.6771
4169.00,1.6759
4168.00,1.6746
4167.00,1.6733
4166.00,1.6720
4165.00,1.6706
4164.00,1.6691
4163.00,1.6676
4162.00,1.6660
4161.00,1.6644
4160.00,1.6627
4159.00,1.6611
4158.00,1.6594
4157.00,1.6576
4156.00,1.6557
4155.00,1.6537
4154.00,1.6516
4153.00,1.6494
4152.00,1.6470
4151.00,1.6446
4150.00,1.6420
4149.00,1.6394
4148.00,1.6367
4147.00,1.6339
4146.00,1.6312
4145.00,1.6284
4144.00,1.6257
4143.00,1.6228
4142.00,1.6195
4141.00,1.6161
4140.00,1.6125
4139.00,1.6090
4138.00,1.6055
4137.00,1.6019
4136.00,1.5984
4135.00,1.5948
4134.00,1.5911
4133.00,1.5873
4132.00,1.5835
4131.00,1.5796
4130.00,1.5756
4129.00,1.5715
4128.00,1.5672
4127.00,1.5629
4126.00,1.5585
4125.00,1.5540
4124.00,1.5494
4123.00,1.5446
4122.00,1.5397
4121.00,1.5346
4120.00,1.5295
4119.00,1.5243
4118.00,1.5189
4117.00,1.5135
4116.00,1.5081
4115.00,1.5027
4114.00,1.4973
4113.00,1.4916
4112.00,1.4856
4111.00,1.4793
4110.00,1.4730
4109.00,1.4667
4108.00,1.4604
4107.00,1.4540
4106.00,1.4476
4105.00,1.4410
4104.00,1.4342
4103.00,1.4272
4102.00,1.4201
4101.00,1.4128
4100.00,1.4055
4099.00,1.3982
4098.00,1.3907
4097.00,1.3831
4096.00,1.3753
4095.00,1.3672
4094.00,1.3591
4093.00,1.3509
4092.00,1.3426
4091.00,1.3343
4090.00,1.3259
4089.00,1.3173
4088.00,1.3087
4087.00,1.2998
4086.00,1.2909
4085.00,1.2819
4084.00,1.2727
4083.00,1.2634
4082.00,1.2539
4081.00,1.2443
4080.00,1.2345
4079.00,1.2246
4078.00,1.2146
4077.00,1.2044
4076.00,1.1941
4075.00,1.1837
4074.00,1.1731
4073.00,1.1624
4072.00,1.1516
4071.00,1.1407
4070.00,1.1297
4069.00,1.1186
4068.00,1.1073
4067.00,1.0959
4066.00,1.0844
4065.00,1.0728
4064.00,1.0612
4063.00,1.0496
4062.00,1.0380
4061.00,1.0263
4060.00,1.0145
4059.00,1.0028
4058.00,0.9912
4057.00,0.9796
4056.00,0.9681
4055.00,0.9566
4054.00,0.9452
4053.00,0.9339
4052.00,0.9227
4051.00,0.9117
4050.00,0.9008
4049.00,0.8901
4048.00,0.8795
4047.00,0.8691
4046.00,0.8590
4045.00,0.8490
4044.00,0.8393
4043.00,0.8298
4042.00,0.8206
4041.00,0.8117
4040.00,0.8032
4039.00,0.7950
4038.00,0.7872
4037.00,0.7798
4036.00,0.7727
4035.00,0.7661
4034.00,0.7600
4033.00,0.7544
4032.00,0.7493
4031.00,0.7448
4030.00,0.7409
4029.00,0.7376
4028.00,0.7349
4027.00,0.7328
4026.00,0.7314
4025.00,0.7305
4024.00,0.7303
4023.00,0.7307
4022.00,0.7318
4021.00,0.7335
4020.00,0.7358
4019.00,0.7386
4018.00,0.7420
4017.00,0.7458
4016.00,0.7501
4015.00,0.7549
4014.00,0.7601
4013.00,0.7658
4012.00,0.7719
4011.00,0.7785
4010.00,0.7855
4009.00,0.7928
4008.00,0.8006
4007.00,0.8087
4006.00,0.8171
4005.00,0.8258
4004.00,0.8348
4003.00,0.8443
4002.00,0.8540
4001.00,0.8640
4000.00,0.8743
3999.00,0.8847
3998.00,0.8954
3997.00,0.9063
3996.00,0.9175
3995.00,0.9288
3994.00,0.9404
3993.00,0.9520
3992.00,0.9639
3991.00,0.9758
3990.00,0.9879
3989.00,1.0000
3988.00,1.0122
3987.00,1.0245
3986.00,1.0367
3985.00,1.0491
3984.00,1.0614
3983.00,1.0738
3982.00,1.0861
3981.00,1.0984
3980.00,1.1106
3979.00,1.1228
3978.00,1.1348
3977.00,1.1468
3976.00,1.1587
3975.00,1.1705
3974.00,1.1823
3973.00,1.1939
3972.00,1.2054
3971.00,1.2169
3970.00,1.2282
3969.00,1.2394
3968.00,1.2505
3967.00,1.2615
3966.00,1.2722
3965.00,1.2828
3964.00,1.2932
3963.00,1.3035
3962.00,1.3139
3961.00,1.3243
3960.00,1.3344
3959.00,1.3444
3958.00,1.3541
3957.00,1.3638
3956.00,1.3734
3955.00,1.3829
3954.00,1.3921
3953.00,1.4010
3952.00,1.4097
3951.00,1.4183
3950.00,1.4268
3949.00,1.4352
3948.00,1.4435
3947.00,1.4516
3946.00,1.4597
3945.00,1.4677
3944.00,1.4756
3943.00,1.4834
3942.00,1.4911
3941.00,1.4987
3940.00,1.5061
3939.00,1.5132
3938.00,1.5203
3937.00,1.5273
3936.00,1.5342
3935.00,1.5409
3934.00,1.5475
3933.00,1.5541
3932.00,1.5609
3931.00,1.5676
3930.00,1.5743
3929.00,1.5806
3928.00,1.5865
3927.00,1.5923
3926.00,1.5983
3925.00,1.6045
3924.00,1.6107
3923.00,1.6166
3922.00,1.6221
3921.00,1.6274
3920.00,1.6326
3919.00,1.6379
3918.00,1.6431
3917.00,1.6484
3916.00,1.6536
3915.00,1.6588
3914.00,1.6640
3913.00,1.6691
3912.00,1.6739
3911.00,1.6786
3910.00,1.6832
3909.00,1.6876
3908.00,1.6917
3907.00,1.6957
3906.00,1.6997
3905.00,1.7037
3904.00,1.7077
3903.00,1.7117
3902.00,1.7154
3901.00,1.7191
3900.00,1.7229
3899.00,1.7267
3898.00,1.7305
3897.00,1.7342
3896.00,1.7378
3895.00,1.7413
3894.00,1.7448
3893.00,1.7480
3892.00,1.7512
3891.00,1.7543
3890.00,1.7572
3889.00,1.7598
3888.00,1.7621
3887.00,1.7643
3886.00,1.7668
3885.00,1.7696
3884.00,1.7727
3883.00,1.7755
3882.00,1.7781
3881.00,1.7805
3880.00,1.7828
3879.00,1.7850
3878.00,1.7871
3877.00,1.7893
3876.00,1.7913
3875.00,1.7932
3874.00,1.7948
3873.00,1.7961
3872.00,1.7973
3871.00,1.7984
3870.00,1.7998
3869.00,1.8013
3868.00,1.8026
3867.00,1.8038
3866.00,1.8050
3865.00,1.8062
3864.00,1.8076
3863.00,1.8088
3862.00,1.8099
3861.00,1.8108
3860.00,1.8117
3859.00,1.8126
3858.00,1.8132
3857.00,1.8133
3856.00,1.8129
3855.00,1.8125
3854.00,1.8127
3853.00,1.8132
3852.00,1.8136
3851.00,1.8135
3850.00,1.8135
3849.00,1.8136
3848.00,1.8139
3847.00,1.8141
3846.00,1.8143
3845.00,1.8144
3844.00,1.8144
3843.00,1.8143
3842.00,1.8139
3841.00,1.8133
3840.00,1.8125
3839.00,1.8116
3838.00,1.8105
3837.00,1.8092
3836.00,1.8077
3835.00,1.8062
3834.00,1.8050
3833.00,1.8041
3832.00,1.8033
3831.00,1.8026
3830.00,1.8015
3829.00,1.8002
3828.00,1.7985
3827.00,1.7967
3826.00,1.7951
3825.00,1.7935
3824.00,1.7917
3823.00,1.7895
3822.00,1.7872
3821.00,1.7850
3820.00,1.7828
3819.00,1.7804
3818.00,1.7780
3817.00,1.7754
3816.00,1.7727
3815.00,1.7700
3814.00,1.7675
3813.00,1.7651
3812.00,1.7625
3811.00,1.7599
3810.00,1.7570
3809.00,1.7540
3808.00,1.7506
3807.00,1.7470
3806.00,1.7434
3805.00,1.7397
3804.00,1.7360
3803.00,1.7324
3802.00,1.7289
3801.00,1.7251
3800.00,1.7209
3799.00,1.7164
3798.00,1.7120
3797.00,1.7079
3796.00,1.7039
3795.00,1.7000
3794.00,1.6961
3793.00,1.6921
3792.00,1.6879
3791.00,1.6833
3790.00,1.6785
3789.00,1.6735
3788.00,1.6684
3787.00,1.6631
3786.00,1.6579
3785.00,1.6525
3784.00,1.6470
3783.00,1.6414
3782.00,1.6357
3781.00,1.6299
3780.00,1.6240
3779.00,1.6179
3778.00,1.6116
3777.00,1.6052
3776.00,1.5987
3775.00,1.5922
3774.00,1.5857
3773.00,1.5791
3772.00,1.5721
3771.00,1.5649
3770.00,1.5576
3769.00,1.5501
3768.00,1.5425
3767.00,1.5349
3766.00,1.5271
3765.00,1.5193
3764.00,1.5113
3763.00,1.5033
3762.00,1.4953
3761.00,1.4870
3760.00,1.4785
3759.00,1.4697
3758.00,1.4608
3757.00,1.4515
3756.00,1.4420
3755.00,1.4326
3754.00,1.4232
3753.00,1.4136
3752.00,1.4035
3751.00,1.3926
3750.00,1.3809
3749.00,1.3687
3748.00,1.3567
3747.00,1.3450
3746.00,1.3333
3745.00,1.3211
3744.00,1.3085
3743.00,1.2962
3742.00,1.2844
3741.00,1.2733
3740.00,1.2623
3739.00,1.2514
3738.00,1.2405
3737.00,1.2293
3736.00,1.2177
3735.00,1.2059
3734.00,1.1937
3733.00,1.1815
3732.00,1.1693
3731.00,1.1573
3730.00,1.1456
3729.00,1.1342
3728.00,1.1224
3727.00,1.1103
3726.00,1.0977
3725.00,1.0847
3724.00,1.0709
3723.00,1.0565
3722.00,1.0415
3721.00,1.0261
3720.00,1.0104
3719.00,0.9944
3718.00,0.9783
3717.00,0.9626
3716.00,0.9478
3715.00,0.9343
3714.00,0.9213
3713.00,0.9081
3712.00,0.8947
3711.00,0.8814
3710.00,0.8688
3709.00,0.8572
3708.00,0.8468
3707.00,0.8374
3706.00,0.8288
3705.00,0.8210
3704.00,0.8136
3703.00,0.8067
3702.00,0.8000
3701.00,0.7937
3700.00,0.7878
3699.00,0.7827
3698.00,0.7784
3697.00,0.7751
3696.00,0.7727
3695.00,0.7713
3694.00,0.7706
3693.00,0.7708
3692.00,0.7719
3691.00,0.7741
3690.00,0.7772
3689.00,0.7809
3688.00,0.7851
3687.00,0.7895
3686.00,0.7945
3685.00,0.8003
3684.00,0.8072
3683.00,0.8153
3682.00,0.8241
3681.00,0.8336
3680.00,0.8434
3679.00,0.8534
3678.00,0.8636
3677.00,0.8744
3676.00,0.8868
3675.00,0.9003
3674.00,0.9136
3673.00,0.9260
3672.00,0.9381
3671.00,0.9511
3670.00,0.9656
3669.00,0.9809
3668.00,0.9960
3667.00,1.0105
3666.00,1.0247
3665.00,1.0390
3664.00,1.0533
3663.00,1.0679
3662.00,1.0824
3661.00,1.0968
3660.00,1.1110
3659.00,1.1249
3658.00,1.1387
3657.00,1.1528
3656.00,1.1676
3655.00,1.1825
3654.00,1.1965
3653.00,1.2094
3652.00,1.2218
3651.00,1.2347
3650.00,1.2486
3649.00,1.2633
3648.00,1.2779
3647.00,1.2920
3646.00,1.3054
3645.00,1.3183
3644.00,1.3308
3643.00,1.3430
3642.00,1.3550
3641.00,1.3670
3640.00,1.3790
3639.00,1.3910
3638.00,1.4030
3637.00,1.4148
3636.00,1.4265
3635.00,1.4382
3634.00,1.4498
3633.00,1.4611
3632.00,1.4717
3631.00,1.4821
3630.00,1.4928
3629.00,1.5046
3628.00,1.5172
3627.00,1.5296
3626.00,1.5410
3625.00,1.5516
3624.00,1.5615
3623.00,1.5709
3622.00,1.5797
3621.00,1.5881
3620.00,1.5966
3619.00,1.6052
3618.00,1.6135
3617.00,1.6212
3616.00,1.6284
3615.00,1.6353
3614.00,1.6424
3613.00,1.6497
3612.00,1.6570
3611.00,1.6641
3610.00,1.6711
3609.00,1.6784
3608.00,1.6864
3607.00,1.6948
3606.00,1.7031
3605.00,1.7111
3604.00,1.7190
3603.00,1.7267
3602.00,1.7341
3601.00,1.7409
3600.00,1.7473
3599.00,1.7532
3598.00,1.7588
3597.00,1.7643
3596.00,1.7700
3595.00,1.7759
3594.00,1.7814
3593.00,1.7866
3592.00,1.7913
3591.00,1.7958
3590.00,1.8002
3589.00,1.8047
3588.00,1.8097
3587.00,1.8149
3586.00,1.8200
3585.00,1.8247
3584.00,1.8292
3583.00,1.8338
3582.00,1.8383
3581.00,1.8430
3580.00,1.8477
3579.00,1.8522
3578.00,1.8564
3577.00,1.8604
3576.00,1.8645
3575.00,1.8687
3574.00,1.8728
3573.00,1.8769
3572.00,1.8807
3571.00,1.8842
3570.00,1.8875
3569.00,1.8908
3568.00,1.8943
3567.00,1.8980
3566.00,1.9015
3565.00,1.9048
3564.00,1.9082
3563.00,1.9115
3562.00,1.9146
3561.00,1.9176
3560.00,1.9206
3559.00,1.9236
3558.00,1.9264
3557.00,1.9289
3556.00,1.9314
3555.00,1.9341
3554.00,1.9367
3553.00,1.9390
3552.00,1.9411
3551.00,1.9430
3550.00,1.9447
3549.00,1.9464
3548.00,1.9483
3547.00,1.9504
3546.00,1.9527
3545.00,1.9548
3544.00,1.9567
3543.00,1.9582
3542.00,1.9594
3541.00,1.9607
3540.00,1.9622
3539.00,1.9638
3538.00,1.9652
3537.00,1.9667
3536.00,1.9681
3535.00,1.9695
3534.00,1.9706
3533.00,1.9715
3532.00,1.9721
3531.00,1.9726
3530.00,1.9731
3529.00,1.9735
3528.00,1.9738
3527.00,1.9740
3526.00,1.9739
3525.00,1.9740
3524.00,1.9745
3523.00,1.9751
3522.00,1.9755
3521.00,1.9756
3520.00,1.9757
3519.00,1.9758
3518.00,1.9757
3517.00,1.9758
3516.00,1.9761
3515.00,1.9765
3514.00,1.9767
3513.00,1.9767
3512.00,1.9767
3511.00,1.9767
3510.00,1.9768
3509.00,1.9767
3508.00,1.9764
3507.00,1.9759
3506.00,1.9753
3505.00,1.9748
3504.00,1.9747
3503.00,1.9745
3502.00,1.9738
3501.00,1.9726
3500.00,1.9712
3499.00,1.9699
3498.00,1.9685
3497.00,1.9671
3496.00,1.9656
3495.00,1.9638
3494.00,1.9616
3493.00,1.9595
3492.00,1.9577
3491.00,1.9561
3490.00,1.9544
3489.00,1.9527
3488.00,1.9507
3487.00,1.9484
3486.00,1.9459
3485.00,1.9434
3484.00,1.9409
3483.00,1.9384
3482.00,1.9355
3481.00,1.9324
3480.00,1.9293
3479.00,1.9262
3478.00,1.9231
3477.00,1.9201
3476.00,1.9170
3475.00,1.9138
3474.00,1.9102
3473.00,1.9065
3472.00,1.9026
3471.00,1.8986
3470.00,1.8945
3469.00,1.8905
3468.00,1.8867
3467.00,1.8828
3466.00,1.8785
3465.00,1.8741
3464.00,1.8695
3463.00,1.8649
3462.00,1.8601
3461.00,1.8549
3460.00,1.8495
3459.00,1.8441
3458.00,1.8387
3457.00,1.8334
3456.00,1.8282
3455.00,1.8229
3454.00,1.8174
3453.00,1.8118
3452.00,1.8060
3451.00,1.7999
3450.00,1.7936
3449.00,1.7874
3448.00,1.7812
3447.00,1.7749
3446.00,1.7682
3445.00,1.7612
3444.00,1.7541
3443.00,1.7470
3442.00,1.7400
3441.00,1.7329
3440.00,1.7257
3439.00,1.7183
3438.00,1.7107
3437.00,1.7029
3436.00,1.6950
3435.00,1.6868
3434.00,1.6786
3433.00,1.6704
3432.00,1.6622
3431.00,1.6540
3430.00,1.6455
3429.00,1.6368
3428.00,1.6279
3427.00,1.6192
3426.00,1.6104
3425.00,1.6017
3424.00,1.5931
3423.00,1.5845
3422.00,1.5759
3421.00,1.5673
3420.00,1.5588
3419.00,1.5503
3418.00,1.5420
3417.00,1.5339
3416.00,1.5260
3415.00,1.5183
3414.00,1.5107
3413.00,1.5033
3412.00,1.4960
3411.00,1.4888
3410.00,1.4816
3409.00,1.4745
3408.00,1.4673
3407.00,1.4599
3406.00,1.4522
3405.00,1.4441
3404.00,1.4356
3403.00,1.4266
3402.00,1.4168
3401.00,1.4064
3400.00,1.3953
3399.00,1.3836
3398.00,1.3713
3397.00,1.3584
3396.00,1.3449
3395.00,1.3309
3394.00,1.3164
3393.00,1.3015
3392.00,1.2863
3391.00,1.2709
3390.00,1.2553
3389.00,1.2396
3388.00,1.2238
3387.00,1.2080
3386.00,1.1921
3385.00,1.1762
3384.00,1.1602
3383.00,1.1443
3382.00,1.1286
3381.00,1.1130
3380.00,1.0977
3379.00,1.0828
3378.00,1.0682
3377.00,1.0540
3376.00,1.0402
3375.00,1.0269
3374.00,1.0142
3373.00,1.0020
3372.00,0.9906
3371.00,0.9798
3370.00,0.9698
3369.00,0.9606
3368.00,0.9521
3367.00,0.9446
3366.00,0.9379
3365.00,0.9320
3364.00,0.9271
3363.00,0.9230
3362.00,0.9199
3361.00,0.9177
3360.00,0.9163
3359.00,0.9159
3358.00,0.9164
3357.00,0.9178
3356.00,0.9201
3355.00,0.9232
3354.00,0.9271
3353.00,0.9318
3352.00,0.9373
3351.00,0.9436
3350.00,0.9506
3349.00,0.9583
3348.00,0.9666
3347.00,0.9755
3346.00,0.9850
3345.00,0.9950
3344.00,1.0056
3343.00,1.0166
3342.00,1.0280
3341.00,1.0398
3340.00,1.0519
3339.00,1.0645
3338.00,1.0775
3337.00,1.0908
3336.00,1.1045
3335.00,1.1186
3334.00,1.1327
3333.00,1.1470
3332.00,1.1613
3331.00,1.1758
3330.00,1.1905
3329.00,1.2052
3328.00,1.2201
3327.00,1.2350
3326.00,1.2497
3325.00,1.2644
3324.00,1.2791
3323.00,1.2939
3322.00,1.3087
3321.00,1.3234
3320.00,1.3380
3319.00,1.3525
3318.00,1.3668
3317.00,1.3810
3316.00,1.3950
3315.00,1.4089
3314.00,1.4228
3313.00,1.4367
3312.00,1.4505
3311.00,1.4641
3310.00,1.4774
3309.00,1.4904
3308.00,1.5033
3307.00,1.5160
3306.00,1.5286
3305.00,1.5410
3304.00,1.5530
3303.00,1.5648
3302.00,1.5765
3301.00,1.5880
3300.00,1.5995
3299.00,1.6108
3298.00,1.6218
3297.00,1.6328
3296.00,1.6436
3295.00,1.6543
3294.00,1.6648
3293.00,1.6751
3292.00,1.6851
3291.00,1.6948
3290.00,1.7041
3289.00,1.7133
3288.00,1.7225
3287.00,1.7316
3286.00,1.7406
3285.00,1.7495
3284.00,1.7583
3283.00,1.7670
3282.00,1.7754
3281.00,1.7839
3280.00,1.7923
3279.00,1.8007
3278.00,1.8088
3277.00,1.8168
3276.00,1.8247
3275.00,1.8325
3274.00,1.8402
3273.00,1.8478
3272.00,1.8555
3271.00,1.8632
3270.00,1.8706
3269.00,1.8775
3268.00,1.8840
3267.00,1.8901
3266.00,1.8960
3265.00,1.9020
3264.00,1.9081
3263.00,1.9141
3262.00,1.9198
3261.00,1.9255
3260.00,1.9312
3259.00,1.9370
3258.00,1.9428
3257.00,1.9487
3256.00,1.9547
3255.00,1.9604
3254.00,1.9658
3253.00,1.9709
3252.00,1.9761
3251.00,1.9813
3250.00,1.9864
3249.00,1.9913
3248.00,1.9962
3247.00,2.0011
3246.00,2.0060
3245.00,2.0106
3244.00,2.0150
3243.00,2.0192
3242.00,2.0233
3241.00,2.0274
3240.00,2.0313
3239.00,2.0350
3238.00,2.0387
3237.00,2.0425
3236.00,2.0466
3235.00,2.0508
3234.00,2.0548
3233.00,2.0584
3232.00,2.0618
3231.00,2.0649
3230.00,2.0679
3229.00,2.0709
3228.00,2.0738
3227.00,2.0766
3226.00,2.0793
3225.00,2.0821
3224.00,2.0850
3223.00,2.0879
3222.00,2.0905
3221.00,2.0928
3220.00,2.0951
3219.00,2.0973
3218.00,2.0994
3217.00,2.1011
3216.00,2.1027
3215.00,2.1044
3214.00,2.1062
3213.00,2.1083
3212.00,2.1104
3211.00,2.1123
3210.00,2.1139
3209.00,2.1152
3208.00,2.1165
3207.00,2.1180
3206.00,2.1196
3205.00,2.1211
3204.00,2.1223
3203.00,2.1233
3202.00,2.1241
3201.00,2.1251
3200.00,2.1260
3199.00,2.1266
3198.00,2.1268
3197.00,2.1271
3196.00,2.1278
3195.00,2.1287
3194.00,2.1295
3193.00,2.1300
3192.00,2.1303
3191.00,2.1304
3190.00,2.1302
3189.00,2.1296
3188.00,2.1285
3187.00,2.1273
3186.00,2.1263
3185.00,2.1259
3184.00,2.1261
3183.00,2.1265
3182.00,2.1265
3181.00,2.1262
3180.00,2.1253
3179.00,2.1242
3178.00,2.1228
3177.00,2.1213
3176.00,2.1201
3175.00,2.1191
3174.00,2.1183
3173.00,2.1174
3172.00,2.1160
3171.00,2.1141
3170.00,2.1118
3169.00,2.1094
3168.00,2.1073
3167.00,2.1055
3166.00,2.1037
3165.00,2.1021
3164.00,2.1004
3163.00,2.0983
3162.00,2.0957
3161.00,2.0928
3160.00,2.0899
3159.00,2.0869
3158.00,2.0839
3157.00,2.0807
3156.00,2.0773
3155.00,2.0737
3154.00,2.0700
3153.00,2.0667
3152.00,2.0639
3151.00,2.0616
3150.00,2.0589
3149.00,2.0554
3148.00,2.0513
3147.00,2.0468
3146.00,2.0424
3145.00,2.0381
3144.00,2.0340
3143.00,2.0298
3142.00,2.0255
3141.00,2.0211
3140.00,2.0167
3139.00,2.0121
3138.00,2.0073
3137.00,2.0022
3136.00,1.9969
3135.00,1.9916
3134.00,1.9862
3133.00,1.9805
3132.00,1.9745
3131.00,1.9683
3130.00,1.9619
3129.00,1.9555
3128.00,1.9491
3127.00,1.9428
3126.00,1.9365
3125.00,1.9301
3124.00,1.9235
3123.00,1.9167
3122.00,1.9095
3121.00,1.9021
3120.00,1.8943
3119.00,1.8864
3118.00,1.8782
3117.00,1.8700
3116.00,1.8618
3115.00,1.8535
3114.00,1.8449
3113.00,1.8361
3112.00,1.8271
3111.00,1.8178
3110.00,1.8082
3109.00,1.7983
3108.00,1.7883
3107.00,1.7781
3106.00,1.7679
3105.00,1.7575
3104.00,1.7469
3103.00,1.7360
3102.00,1.7248
3101.00,1.7134
3100.00,1.7017
3099.00,1.6899
3098.00,1.6778
3097.00,1.6653
3096.00,1.6524
3095.00,1.6390
3094.00,1.6253
3093.00,1.6114
3092.00,1.5974
3091.00,1.5831
3090.00,1.5684
3089.00,1.5535
3088.00,1.5383
3087.00,1.5228
3086.00,1.5069
3085.00,1.4908
3084.00,1.4743
3083.00,1.4577
3082.00,1.4409
3081.00,1.4237
3080.00,1.4063
3079.00,1.3885
3078.00,1.3704
3077.00,1.3521
3076.00,1.3336
3075.00,1.3150
3074.00,1.2965
3073.00,1.2779
3072.00,1.2594
3071.00,1.2408
3070.00,1.2224
3069.00,1.2041
3068.00,1.1860
3067.00,1.1683
3066.00,1.1511
3065.00,1.1343
3064.00,1.1181
3063.00,1.1024
3062.00,1.0875
3061.00,1.0733
3060.00,1.0601
3059.00,1.0479
3058.00,1.0369
3057.00,1.0270
3056.00,1.0184
3055.00,1.0111
3054.00,1.0050
3053.00,1.0002
3052.00,0.9966
3051.00,0.9945
3050.00,0.9937
3049.00,0.9943
3048.00,0.9964
3047.00,1.0000
3046.00,1.0052
3045.00,1.0120
3044.00,1.0206
3043.00,1.0309
3042.00,1.0428
3041.00,1.0563
3040.00,1.0712
3039.00,1.0876
3038.00,1.1052
3037.00,1.1239
3036.00,1.1436
3035.00,1.1642
3034.00,1.1854
3033.00,1.2072
3032.00,1.2295
3031.00,1.2521
3030.00,1.2749
3029.00,1.2978
3028.00,1.3208
3027.00,1.3438
3026.00,1.3668
3025.00,1.3898
3024.00,1.4128
3023.00,1.4357
3022.00,1.4587
3021.00,1.4816
3020.00,1.5045
3019.00,1.5272
3018.00,1.5496
3017.00,1.5719
3016.00,1.5941
3015.00,1.6159
3014.00,1.6376
3013.00,1.6591
3012.00,1.6805
3011.00,1.7017
3010.00,1.7227
3009.00,1.7436
3008.00,1.7641
3007.00,1.7845
3006.00,1.8046
3005.00,1.8245
3004.00,1.8442
3003.00,1.8636
3002.00,1.8827
3001.00,1.9017
3000.00,1.9207
2999.00,1.9394
2998.00,1.9578
2997.00,1.9759
2996.00,1.9938
2995.00,2.0116
2994.00,2.0291
2993.00,2.0462
2992.00,2.0628
2991.00,2.0791
2990.00,2.0953
2989.00,2.1118
2988.00,2.1285
2987.00,2.1448
2986.00,2.1604
2985.00,2.1755
2984.00,2.1907
2983.00,2.2062
2982.00,2.2219
2981.00,2.2376
2980.00,2.2534
2979.00,2.2695
2978.00,2.2858
2977.00,2.3021
2976.00,2.3183
2975.00,2.3347
2974.00,2.3518
2973.00,2.3705
2972.00,2.3908
2971.00,2.4122
2970.00,2.4344
2969.00,2.4577
2968.00,2.4825
2967.00,2.5090
2966.00,2.5368
2965.00,2.5659
2964.00,2.5964
2963.00,2.6282
2962.00,2.6616
2961.00,2.6964
2960.00,2.7311
2959.00,2.7640
2958.00,2.7938
2957.00,2.8212
2956.00,2.8471
2955.00,2.8717
2954.00,2.8950
2953.00,2.9176
2952.00,2.9405
2951.00,2.9644
2950.00,2.9900
2949.00,3.0181
2948.00,3.0487
2947.00,3.0808
2946.00,3.1135
2945.00,3.1463
2944.00,3.1770
2943.00,3.2019
2942.00,3.2199
2941.00,3.2338
2940.00,3.2461
2939.00,3.2569
2938.00,3.2653
2937.00,3.2693
2936.00,3.2643
2935.00,3.2460
2934.00,3.2170
2933.00,3.1846
2932.00,3.1521
2931.00,3.1163
2930.00,3.0738
2929.00,3.0257
2928.00,2.9754
2927.00,2.9248
2926.00,2.8741
2925.00,2.8231
2924.00,2.7716
2923.00,2.7198
2922.00,2.6682
2921.00,2.6175
2920.00,2.5680
2919.00,2.5199
2918.00,2.4740
2917.00,2.4317
2916.00,2.3939
2915.00,2.3610
2914.00,2.3332
2913.00,2.3105
2912.00,2.2925
2911.00,2.2784
2910.00,2.2676
2909.00,2.2598
2908.00,2.2544
2907.00,2.2505
2906.00,2.2475
2905.00,2.2450
2904.00,2.2432
2903.00,2.2419
2902.00,2.2413
2901.00,2.2413
2900.00,2.2419
2899.00,2.2433
2898.00,2.2454
2897.00,2.2487
2896.00,2.2528
2895.00,2.2576
2894.00,2.2628
2893.00,2.2685
2892.00,2.2746
2891.00,2.2812
2890.00,2.2883
2889.00,2.2964
2888.00,2.3056
2887.00,2.3153
2886.00,2.3253
2885.00,2.3356
2884.00,2.3465
2883.00,2.3582
2882.00,2.3705
2881.00,2.3835
2880.00,2.3972
2879.00,2.4115
2878.00,2.4262
2877.00,2.4417
2876.00,2.4580
2875.00,2.4752
2874.00,2.4933
2873.00,2.5127
2872.00,2.5341
2871.00,2.5577
2870.00,2.5831
2869.00,2.6105
2868.00,2.6389
2867.00,2.6659
2866.00,2.6880
2865.00,2.7025
2864.00,2.7084
2863.00,2.7058
2862.00,2.6949
2861.00,2.6765
2860.00,2.6515
2859.00,2.6203
2858.00,2.5834
2857.00,2.5420
2856.00,2.4980
2855.00,2.4535
2854.00,2.4108
2853.00,2.3716
2852.00,2.3370
2851.00,2.3075
2850.00,2.2836
2849.00,2.2654
2848.00,2.2530
2847.00,2.2455
2846.00,2.2421
2845.00,2.2421
2844.00,2.2448
2843.00,2.2494
2842.00,2.2552
2841.00,2.2618
2840.00,2.2689
2839.00,2.2761
2838.00,2.2828
2837.00,2.2892
2836.00,2.2955
2835.00,2.3019
2834.00,2.3084
2833.00,2.3148
2832.00,2.3211
2831.00,2.3269
2830.00,2.3317
2829.00,2.3353
2828.00,2.3382
2827.00,2.3408
2826.00,2.3432
2825.00,2.3456
2824.00,2.3479
2823.00,2.3500
2822.00,2.3520
2821.00,2.3538
2820.00,2.3556
2819.00,2.3570
2818.00,2.3580
2817.00,2.3586
2816.00,2.3589
2815.00,2.3590
2814.00,2.3592
2813.00,2.3599
2812.00,2.3614
2811.00,2.3634
2810.00,2.3651
2809.00,2.3660
2808.00,2.3661
2807.00,2.3659
2806.00,2.3660
2805.00,2.3663
2804.00,2.3667
2803.00,2.3666
2802.00,2.3661
2801.00,2.3658
2800.00,2.3658
2799.00,2.3658
2798.00,2.3652
2797.00,2.3642
2796.00,2.3629
2795.00,2.3613
2794.00,2.3592
2793.00,2.3567
2792.00,2.3541
2791.00,2.3518
2790.00,2.3500
2789.00,2.3486
2788.00,2.3473
2787.00,2.3456
2786.00,2.3435
2785.00,2.3411
2784.00,2.3384
2783.00,2.3354
2782.00,2.3322
2781.00,2.3289
2780.00,2.3258
2779.00,2.3227
2778.00,2.3192
2777.00,2.3158
2776.00,2.3127
2775.00,2.3097
2774.00,2.3061
2773.00,2.3016
2772.00,2.2965
2771.00,2.2915
2770.00,2.2869
2769.00,2.2827
2768.00,2.2786
2767.00,2.2742
2766.00,2.2696
2765.00,2.2650
2764.00,2.2602
2763.00,2.2548
2762.00,2.2491
2761.00,2.2433
2760.00,2.2379
2759.00,2.2329
2758.00,2.2277
2757.00,2.2222
2756.00,2.2162
2755.00,2.2097
2754.00,2.2030
2753.00,2.1962
2752.00,2.1891
2751.00,2.1820
2750.00,2.1747
2749.00,2.1675
2748.00,2.1605
2747.00,2.1535
2746.00,2.1463
2745.00,2.1387
2744.00,2.1309
2743.00,2.1226
2742.00,2.1141
2741.00,2.1054
2740.00,2.0964
2739.00,2.0870
2738.00,2.0772
2737.00,2.0673
2736.00,2.0576
2735.00,2.0480
2734.00,2.0384
2733.00,2.0286
2732.00,2.0185
2731.00,2.0080
2730.00,1.9971
2729.00,1.9859
2728.00,1.9746
2727.00,1.9631
2726.00,1.9512
2725.00,1.9391
2724.00,1.9267
2723.00,1.9141
2722.00,1.9012
2721.00,1.8880
2720.00,1.8746
2719.00,1.8608
2718.00,1.8469
2717.00,1.8328
2716.00,1.8186
2715.00,1.8040
2714.00,1.7890
2713.00,1.7735
2712.00,1.7575
2711.00,1.7412
2710.00,1.7246
2709.00,1.7076
2708.00,1.6902
2707.00,1.6724
2706.00,1.6542
2705.00,1.6355
2704.00,1.6166
2703.00,1.5975
2702.00,1.5780
2701.00,1.5579
2700.00,1.5375
2699.00,1.5167
2698.00,1.4957
2697.00,1.4746
2696.00,1.4533
2695.00,1.4319
2694.00,1.4102
2693.00,1.3884
2692.00,1.3665
2691.00,1.3446
2690.00,1.3229
2689.00,1.3015
2688.00,1.2808
2687.00,1.2611
2686.00,1.2426
2685.00,1.2256
2684.00,1.2106
2683.00,1.1977
2682.00,1.1872
2681.00,1.1791
2680.00,1.1733
2679.00,1.1693
2678.00,1.1667
2677.00,1.1649
2676.00,1.1632
2675.00,1.1614
2674.00,1.1592
2673.00,1.1570
2672.00,1.1548
2671.00,1.1528
2670.00,1.1509
2669.00,1.1487
2668.00,1.1457
2667.00,1.1417
2666.00,1.1369
2665.00,1.1321
2664.00,1.1280
2663.00,1.1255
2662.00,1.1253
2661.00,1.1278
2660.00,1.1331
2659.00,1.1411
2658.00,1.1516
2657.00,1.1641
2656.00,1.1784
2655.00,1.1940
2654.00,1.2107
2653.00,1.2281
2652.00,1.2460
2651.00,1.2642
2650.00,1.2824
2649.00,1.3008
2648.00,1.3191
2647.00,1.3375
2646.00,1.3561
2645.00,1.3747
2644.00,1.3936
2643.00,1.4127
2642.00,1.4320
2641.00,1.4515
2640.00,1.4715
2639.00,1.4917
2638.00,1.5120
2637.00,1.5326
2636.00,1.5532
2635.00,1.5740
2634.00,1.5948
2633.00,1.6156
2632.00,1.6363
2631.00,1.6566
2630.00,1.6765
2629.00,1.6961
2628.00,1.7155
2627.00,1.7347
2626.00,1.7534
2625.00,1.7716
2624.00,1.7895
2623.00,1.8069
2622.00,1.8240
2621.00,1.8406
2620.00,1.8569
2619.00,1.8727
2618.00,1.8877
2617.00,1.9023
2616.00,1.9165
2615.00,1.9303
2614.00,1.9439
2613.00,1.9571
2612.00,1.9701
2611.00,1.9830
2610.00,1.9955
2609.00,2.0077
2608.00,2.0195
2607.00,2.0309
2606.00,2.0420
2605.00,2.0532
2604.00,2.0644
2603.00,2.0757
2602.00,2.0867
2601.00,2.0973
2600.00,2.1076
2599.00,2.1179
2598.00,2.1284
2597.00,2.1390
2596.00,2.1495
2595.00,2.1596
2594.00,2.1692
2593.00,2.1785
2592.00,2.1878
2591.00,2.1970
2590.00,2.2064
2589.00,2.2158
2588.00,2.2250
2587.00,2.2337
2586.00,2.2419
2585.00,2.2497
2584.00,2.2574
2583.00,2.2652
2582.00,2.2728
2581.00,2.2804
2580.00,2.2879
2579.00,2.2952
2578.00,2.3025
2577.00,2.3097
2576.00,2.3169
2575.00,2.3238
2574.00,2.3304
2573.00,2.3367
2572.00,2.3431
2571.00,2.3492
2570.00,2.3551
2569.00,2.3609
2568.00,2.3670
2567.00,2.3734
2566.00,2.3796
2565.00,2.3854
2564.00,2.3910
2563.00,2.3965
2562.00,2.4019
2561.00,2.4069
2560.00,2.4118
2559.00,2.4168
2558.00,2.4220
2557.00,2.4271
2556.00,2.4318
2555.00,2.4359
2554.00,2.4393
2553.00,2.4425
2552.00,2.4461
2551.00,2.4504
2550.00,2.4551
2549.00,2.4594
2548.00,2.4629
2547.00,2.4659
2546.00,2.4692
2545.00,2.4730
2544.00,2.4773
2543.00,2.4814
2542.00,2.4852
2541.00,2.4889
2540.00,2.4930
2539.00,2.4974
2538.00,2.5015
2537.00,2.5048
2536.00,2.5072
2535.00,2.5088
2534.00,2.5106
2533.00,2.5130
2532.00,2.5164
2531.00,2.5202
2530.00,2.5236
2529.00,2.5260
2528.00,2.5273
2527.00,2.5283
2526.00,2.5297
2525.00,2.5316
2524.00,2.5334
2523.00,2.5348
2522.00,2.5361
2521.00,2.5380
2520.00,2.5404
2519.00,2.5428
2518.00,2.5447
2517.00,2.5461
2516.00,2.5469
2515.00,2.5473
2514.00,2.5482
2513.00,2.5499
2512.00,2.5518
2511.00,2.5525
2510.00,2.5518
2509.00,2.5507
2508.00,2.5503
2507.00,2.5510
2506.00,2.5524
2505.00,2.5544
2504.00,2.5567
2503.00,2.5586
2502.00,2.5591
2501.00,2.5582
2500.00,2.5570
2499.00,2.5566
2498.00,2.5569
2497.00,2.5573
2496.00,2.5570
2495.00,2.5559
2494.00,2.5548
2493.00,2.5544
2492.00,2.5547
2491.00,2.5550
2490.00,2.5547
2489.00,2.5534
2488.00,2.5514
2487.00,2.5493
2486.00,2.5479
2485.00,2.5471
2484.00,2.5466
2483.00,2.5457
2482.00,2.5444
2481.00,2.5432
2480.00,2.5422
2479.00,2.5413
2478.00,2.5400
2477.00,2.5383
2476.00,2.5363
2475.00,2.5344
2474.00,2.5329
2473.00,2.5315
2472.00,2.5294
2471.00,2.5267
2470.00,2.5239
2469.00,2.5218
2468.00,2.5203
2467.00,2.5187
2466.00,2.5167
2465.00,2.5139
2464.00,2.5101
2463.00,2.5056
2462.00,2.5016
2461.00,2.4989
2460.00,2.4970
2459.00,2.4947
2458.00,2.4913
2457.00,2.4871
2456.00,2.4828
2455.00,2.4785
2454.00,2.4744
2453.00,2.4703
2452.00,2.4664
2451.00,2.4625
2450.00,2.4587
2449.00,2.4553
2448.00,2.4520
2447.00,2.4477
2446.00,2.4422
2445.00,2.4364
2444.00,2.4309
2443.00,2.4261
2442.00,2.4215
2441.00,2.4167
2440.00,2.4114
2439.00,2.4055
2438.00,2.3991
2437.00,2.3924
2436.00,2.3860
2435.00,2.3799
2434.00,2.3742
2433.00,2.3684
2432.00,2.3624
2431.00,2.3559
2430.00,2.3493
2429.00,2.3426
2428.00,2.3358
2427.00,2.3287
2426.00,2.3213
2425.00,2.3138
2424.00,2.3061
2423.00,2.2984
2422.00,2.2906
2421.00,2.2831
2420.00,2.2758
2419.00,2.2683
2418.00,2.2603
2417.00,2.2519
2416.00,2.2429
2415.00,2.2332
2414.00,2.2230
2413.00,2.2128
2412.00,2.2031
2411.00,2.1938
2410.00,2.1844
2409.00,2.1746
2408.00,2.1641
2407.00,2.1530
2406.00,2.1415
2405.00,2.1297
2404.00,2.1177
2403.00,2.1054
2402.00,2.0931
2401.00,2.0807
2400.00,2.0682
2399.00,2.0553
2398.00,2.0421
2397.00,2.0285
2396.00,2.0146
2395.00,2.0003
2394.00,1.9857
2393.00,1.9709
2392.00,1.9557
2391.00,1.9398
2390.00,1.9228
2389.00,1.9046
2388.00,1.8848
2387.00,1.8633
2386.00,1.8398
2385.00,1.8143
2384.00,1.7865
2383.00,1.7566
2382.00,1.7252
2381.00,1.6932
2380.00,1.6616
2379.00,1.6313
2378.00,1.6036
2377.00,1.5790
2376.00,1.5577
2375.00,1.5394
2374.00,1.5232
2373.00,1.5080
2372.00,1.4927
2371.00,1.4768
2370.00,1.4604
2369.00,1.4440
2368.00,1.4276
2367.00,1.4118
2366.00,1.3973
2365.00,1.3839
2364.00,1.3708
2363.00,1.3593
2362.00,1.3487
2361.00,1.3378
2360.00,1.3266
2359.00,1.3153
2358.00,1.3056
2357.00,1.2982
2356.00,1.2911
2355.00,1.2851
2354.00,1.2782
2353.00,1.2690
2352.00,1.2569
2351.00,1.2492
2350.00,1.2527
2349.00,1.2606
2348.00,1.2619
2347.00,1.2519
2346.00,1.2400
2345.00,1.2386
2344.00,1.2476
2343.00,1.2611
2342.00,1.2683
2341.00,1.2709
2340.00,1.2728
2339.00,1.2762
2338.00,1.2814
2337.00,1.2866
2336.00,1.2923
2335.00,1.2980
2334.00,1.3049
2333.00,1.3110
2332.00,1.3172
2331.00,1.3234
2330.00,1.3343
2329.00,1.3470
2328.00,1.3650
2327.00,1.3833
2326.00,1.4016
2325.00,1.4170
2324.00,1.4302
2323.00,1.4453
2322.00,1.4628
2321.00,1.4832
2320.00,1.5045
2319.00,1.5261
2318.00,1.5491
2317.00,1.5722
2316.00,1.5959
2315.00,1.6168
2314.00,1.6369
2313.00,1.6550
2312.00,1.6749
2311.00,1.6951
2310.00,1.7177
2309.00,1.7402
2308.00,1.7639
2307.00,1.7871
2306.00,1.8112
2305.00,1.8354
2304.00,1.8608
2303.00,1.8860
2302.00,1.9114
2301.00,1.9356
2300.00,1.9595
2299.00,1.9822
2298.00,2.0045
2297.00,2.0256
2296.00,2.0466
2295.00,2.0669
2294.00,2.0869
2293.00,2.1060
2292.00,2.1243
2291.00,2.1418
2290.00,2.1582
2289.00,2.1733
2288.00,2.1871
2287.00,2.2002
2286.00,2.2131
2285.00,2.2265
2284.00,2.2403
2283.00,2.2544
2282.00,2.2681
2281.00,2.2814
2280.00,2.2946
2279.00,2.3078
2278.00,2.3210
2277.00,2.3339
2276.00,2.3465
2275.00,2.3582
2274.00,2.3692
2273.00,2.3795
2272.00,2.3899
2271.00,2.4003
2270.00,2.4100
2269.00,2.4185
2268.00,2.4259
2267.00,2.4331
2266.00,2.4408
2265.00,2.4490
2264.00,2.4573
2263.00,2.4657
2262.00,2.4740
2261.00,2.4825
2260.00,2.4912
2259.00,2.5000
2258.00,2.5081
2257.00,2.5149
2256.00,2.5205
2255.00,2.5254
2254.00,2.5307
2253.00,2.5366
2252.00,2.5427
2251.00,2.5484
2250.00,2.5542
2249.00,2.5608
2248.00,2.5687
2247.00,2.5772
2246.00,2.5852
2245.00,2.5924
2244.00,2.5989
2243.00,2.6048
2242.00,2.6101
2241.00,2.6149
2240.00,2.6198
2239.00,2.6251
2238.00,2.6307
2237.00,2.6362
2236.00,2.6413
2235.00,2.6459
2234.00,2.6503
2233.00,2.6546
2232.00,2.6586
2231.00,2.6623
2230.00,2.6657
2229.00,2.6698
2228.00,2.6753
2227.00,2.6816
2226.00,2.6866
2225.00,2.6896
2224.00,2.6911
2223.00,2.6928
2222.00,2.6955
2221.00,2.6993
2220.00,2.7034
2219.00,2.7074
2218.00,2.7107
2217.00,2.7135
2216.00,2.7168
2215.00,2.7212
2214.00,2.7264
2213.00,2.7317
2212.00,2.7367
2211.00,2.7409
2210.00,2.7438
2209.00,2.7451
2208.00,2.7454
2207.00,2.7460
2206.00,2.7477
2205.00,2.7503
2204.00,2.7528
2203.00,2.7550
2202.00,2.7571
2201.00,2.7595
2200.00,2.7620
2199.00,2.7640
2198.00,2.7657
2197.00,2.7675
2196.00,2.7695
2195.00,2.7713
2194.00,2.7724
2193.00,2.7728
2192.00,2.7731
2191.00,2.7742
2190.00,2.7763
2189.00,2.7790
2188.00,2.7811
2187.00,2.7820
2186.00,2.7818
2185.00,2.7814
2184.00,2.7811
2183.00,2.7811
2182.00,2.7813
2181.00,2.7822
2180.00,2.7836
2179.00,2.7849
2178.00,2.7857
2177.00,2.7866
2176.00,2.7875
2175.00,2.7880
2174.00,2.7876
2173.00,2.7868
2172.00,2.7865
2171.00,2.7864
2170.00,2.7859
2169.00,2.7850
2168.00,2.7844
2167.00,2.7848
2166.00,2.7863
2165.00,2.7879
2164.00,2.7889
2163.00,2.7884
2162.00,2.7861
2161.00,2.7825
2160.00,2.7788
2159.00,2.7756
2158.00,2.7735
2157.00,2.7723
2156.00,2.7719
2155.00,2.7715
2154.00,2.7707
2153.00,2.7693
2152.00,2.7674
2151.00,2.7653
2150.00,2.7632
2149.00,2.7614
2148.00,2.7603
2147.00,2.7596
2146.00,2.7585
2145.00,2.7567
2144.00,2.7541
2143.00,2.7509
2142.00,2.7471
2141.00,2.7435
2140.00,2.7407
2139.00,2.7389
2138.00,2.7370
2137.00,2.7343
2136.00,2.7308
2135.00,2.7265
2134.00,2.7220
2133.00,2.7180
2132.00,2.7151
2131.00,2.7126
2130.00,2.7096
2129.00,2.7056
2128.00,2.7018
2127.00,2.6994
2126.00,2.6979
2125.00,2.6954
2124.00,2.6907
2123.00,2.6845
2122.00,2.6782
2121.00,2.6730
2120.00,2.6690
2119.00,2.6656
2118.00,2.6615
2117.00,2.6561
2116.00,2.6502
2115.00,2.6447
2114.00,2.6401
2113.00,2.6353
2112.00,2.6294
2111.00,2.6225
2110.00,2.6153
2109.00,2.6086
2108.00,2.6021
2107.00,2.5959
2106.00,2.5898
2105.00,2.5839
2104.00,2.5776
2103.00,2.5705
2102.00,2.5630
2101.00,2.5557
2100.00,2.5488
2099.00,2.5414
2098.00,2.5332
2097.00,2.5247
2096.00,2.5167
2095.00,2.5092
2094.00,2.5011
2093.00,2.4919
2092.00,2.4821
2091.00,2.4726
2090.00,2.4633
2089.00,2.4540
2088.00,2.4445
2087.00,2.4352
2086.00,2.4259
2085.00,2.4159
2084.00,2.4051
2083.00,2.3938
2082.00,2.3828
2081.00,2.3719
2080.00,2.3606
2079.00,2.3487
2078.00,2.3364
2077.00,2.3238
2076.00,2.3110
2075.00,2.2979
2074.00,2.2844
2073.00,2.2706
2072.00,2.2564
2071.00,2.2421
2070.00,2.2279
2069.00,2.2139
2068.00,2.1998
2067.00,2.1850
2066.00,2.1698
2065.00,2.1546
2064.00,2.1398
2063.00,2.1254
2062.00,2.1109
2061.00,2.0959
2060.00,2.0801
2059.00,2.0632
2058.00,2.0452
2057.00,2.0262
2056.00,2.0065
2055.00,1.9862
2054.00,1.9650
2053.00,1.9428
2052.00,1.9198
2051.00,1.8960
2050.00,1.8714
2049.00,1.8461
2048.00,1.8201
2047.00,1.7935
2046.00,1.7665
2045.00,1.7389
2044.00,1.7109
2043.00,1.6824
2042.00,1.6534
2041.00,1.6243
2040.00,1.5954
2039.00,1.5669
2038.00,1.5385
2037.00,1.5105
2036.00,1.4831
2035.00,1.4565
2034.00,1.4308
2033.00,1.4063
2032.00,1.3833
2031.00,1.3620
2030.00,1.3427
2029.00,1.3257
2028.00,1.3113
2027.00,1.2999
2026.00,1.2914
2025.00,1.2861
2024.00,1.2838
2023.00,1.2846
2022.00,1.2883
2021.00,1.2946
2020.00,1.3035
2019.00,1.3145
2018.00,1.3277
2017.00,1.3432
2016.00,1.3612
2015.00,1.3814
2014.00,1.4031
2013.00,1.4261
2012.00,1.4501
2011.00,1.4751
2010.00,1.5008
2009.00,1.5273
2008.00,1.5543
2007.00,1.5818
2006.00,1.6096
2005.00,1.6376
2004.00,1.6657
2003.00,1.6940
2002.00,1.7221
2001.00,1.7502
2000.00,1.7783
1999.00,1.8061
1998.00,1.8335
1997.00,1.8606
1996.00,1.8873
1995.00,1.9135
1994.00,1.9388
1993.00,1.9634
1992.00,1.9878
1991.00,2.0122
1990.00,2.0364
1989.00,2.0598
1988.00,2.0828
1987.00,2.1054
1986.00,2.1275
1985.00,2.1490
1984.00,2.1697
1983.00,2.1896
1982.00,2.2089
1981.00,2.2278
1980.00,2.2461
1979.00,2.2638
1978.00,2.2806
1977.00,2.2969
1976.00,2.3128
1975.00,2.3284
1974.00,2.3434
1973.00,2.3578
1972.00,2.3719
1971.00,2.3861
1970.00,2.4004
1969.00,2.4142
1968.00,2.4275
1967.00,2.4405
1966.00,2.4536
1965.00,2.4665
1964.00,2.4788
1963.00,2.4901
1962.00,2.5011
1961.00,2.5129
1960.00,2.5257
1959.00,2.5388
1958.00,2.5512
1957.00,2.5627
1956.00,2.5736
1955.00,2.5845
1954.00,2.5962
1953.00,2.6087
1952.00,2.6209
1951.00,2.6314
1950.00,2.6398
1949.00,2.6476
1948.00,2.6564
1947.00,2.6664
1946.00,2.6763
1945.00,2.6848
1944.00,2.6919
1943.00,2.6985
1942.00,2.7057
1941.00,2.7141
1940.00,2.7235
1939.00,2.7331
1938.00,2.7418
1937.00,2.7495
1936.00,2.7571
1935.00,2.7652
1934.00,2.7732
1933.00,2.7801
1932.00,2.7859
1931.00,2.7917
1930.00,2.7987
1929.00,2.8073
1928.00,2.8164
1927.00,2.8251
1926.00,2.8325
1925.00,2.8381
1924.00,2.8424
1923.00,2.8467
1922.00,2.8526
1921.00,2.8604
1920.00,2.8687
1919.00,2.8752
1918.00,2.8790
1917.00,2.8818
1916.00,2.8864
1915.00,2.8937
1914.00,2.9018
1913.00,2.9078
1912.00,2.9107
1911.00,2.9117
1910.00,2.9128
1909.00,2.9155
1908.00,2.9199
1907.00,2.9253
1906.00,2.9305
1905.00,2.9350
1904.00,2.9397
1903.00,2.9461
1902.00,2.9544
1901.00,2.9622
1900.00,2.9666
1899.00,2.9669
1898.00,2.9652
1897.00,2.9645
1896.00,2.9663
1895.00,2.9703
1894.00,2.9747
1893.00,2.9775
1892.00,2.9784
1891.00,2.9785
1890.00,2.9796
1889.00,2.9822
1888.00,2.9866
1887.00,2.9926
1886.00,2.9997
1885.00,3.0060
1884.00,3.0090
1883.00,3.0079
1882.00,3.0046
1881.00,3.0025
1880.00,3.0032
1879.00,3.0063
1878.00,3.0105
1877.00,3.0156
1876.00,3.0211
1875.00,3.0261
1874.00,3.0293
1873.00,3.0302
1872.00,3.0301
1871.00,3.0299
1870.00,3.0292
1869.00,3.0274
1868.00,3.0252
1867.00,3.0238
1866.00,3.0235
1865.00,3.0239
1864.00,3.0247
1863.00,3.0260
1862.00,3.0278
1861.00,3.0295
1860.00,3.0304
1859.00,3.0303
1858.00,3.0292
1857.00,3.0278
1856.00,3.0261
1855.00,3.0241
1854.00,3.0221
1853.00,3.0213
1852.00,3.0232
1851.00,3.0270
1850.00,3.0287
1849.00,3.0254
1848.00,3.0188
1847.00,3.0138
1846.00,3.0124
1845.00,3.0128
1844.00,3.0123
1843.00,3.0109
1842.00,3.0091
1841.00,3.0067
1840.00,3.0037
1839.00,3.0002
1838.00,2.9969
1837.00,2.9939
1836.00,2.9914
1835.00,2.9895
1834.00,2.9881
1833.00,2.9865
1832.00,2.9836
1831.00,2.9782
1830.00,2.9702
1829.00,2.9618
1828.00,2.9556
1827.00,2.9520
1826.00,2.9490
1825.00,2.9447
1824.00,2.9398
1823.00,2.9358
1822.00,2.9322
1821.00,2.9272
1820.00,2.9202
1819.00,2.9131
1818.00,2.9073
1817.00,2.9026
1816.00,2.8984
1815.00,2.8942
1814.00,2.8899
1813.00,2.8846
1812.00,2.8779
1811.00,2.8708
1810.00,2.8654
1809.00,2.8622
1808.00,2.8600
1807.00,2.8571
1806.00,2.8523
1805.00,2.8448
1804.00,2.8351
1803.00,2.8245
1802.00,2.8137
1801.00,2.8030
1800.00,2.7923
1799.00,2.7813
1798.00,2.7695
1797.00,2.7573
1796.00,2.7456
1795.00,2.7344
1794.00,2.7211
1793.00,2.7027
1792.00,2.6804
1791.00,2.6586
1790.00,2.6395
1789.00,2.6214
1788.00,2.6021
1787.00,2.5807
1786.00,2.5572
1785.00,2.5321
1784.00,2.5063
1783.00,2.4803
1782.00,2.4525
1781.00,2.4219
1780.00,2.3899
1779.00,2.3583
1778.00,2.3273
1777.00,2.2959
1776.00,2.2648
1775.00,2.2357
1774.00,2.2081
1773.00,2.1798
1772.00,2.1525
1771.00,2.1311
1770.00,2.1186
1769.00,2.1127
1768.00,2.1095
1767.00,2.1051
1766.00,2.0969
1765.00,2.0835
1764.00,2.0648
1763.00,2.0417
1762.00,2.0174
1761.00,1.9979
1760.00,1.9879
1759.00,1.9893
1758.00,2.0017
1757.00,2.0246
1756.00,2.0586
1755.00,2.1025
1754.00,2.1531
1753.00,2.2069
1752.00,2.2611
1751.00,2.3139
1750.00,2.3641
1749.00,2.4116
1748.00,2.4577
1747.00,2.5046
1746.00,2.5539
1745.00,2.6065
1744.00,2.6625
1743.00,2.7214
1742.00,2.7819
1741.00,2.8421
1740.00,2.9008
1739.00,2.9586
1738.00,3.0168
1737.00,3.0747
1736.00,3.1290
1735.00,3.1762
1734.00,3.2191
1733.00,3.2651
1732.00,3.3146
1731.00,3.3641
1730.00,3.4166
1729.00,3.4783
1728.00,3.5507
1727.00,3.6325
1726.00,3.7315
1725.00,3.8673
1724.00,4.0573
1723.00,4.2947
1722.00,4.5403
1721.00,4.6904
1720.00,4.6086
1719.00,4.5002
1718.00,4.4872
1717.00,4.6038
1716.00,4.9768
1715.00,5.0836
1714.00,4.7412
1713.00,4.6959
1712.00,4.7782
1711.00,5.0056
1710.00,5.6274
1709.00,5.2483
1708.00,4.8440
1707.00,4.7022
1706.00,4.6622
1705.00,4.6808
1704.00,4.6164
1703.00,4.4103
1702.00,4.1586
1701.00,3.9043
1700.00,3.6815
1699.00,3.5209
1698.00,3.4209
1697.00,3.3568
1696.00,3.3072
1695.00,3.2673
1694.00,3.2413
1693.00,3.2280
1692.00,3.2202
1691.00,3.2123
1690.00,3.2032
1689.00,3.1950
1688.00,3.1896
1687.00,3.1864
1686.00,3.1809
1685.00,3.1643
1684.00,3.1339
1683.00,3.1009
1682.00,3.0757
1681.00,3.0587
1680.00,3.0460
1679.00,3.0354
1678.00,3.0268
1677.00,3.0182
1676.00,3.0043
1675.00,2.9830
1674.00,2.9592
1673.00,2.9386
1672.00,2.9214
1671.00,2.9038
1670.00,2.8826
1669.00,2.8576
1668.00,2.8312
1667.00,2.8053
1666.00,2.7802
1665.00,2.7533
1664.00,2.7209
1663.00,2.6815
1662.00,2.6390
1661.00,2.5983
1660.00,2.5609
1659.00,2.5251
1658.00,2.4902
1657.00,2.4579
1656.00,2.4298
1655.00,2.4025
1654.00,2.3655
1653.00,2.3146
1652.00,2.2618
1651.00,2.2185
1650.00,2.1859
1649.00,2.1586
1648.00,2.1289
1647.00,2.0931
1646.00,2.0546
1645.00,2.0184
1644.00,1.9866
1643.00,1.9597
1642.00,1.9372
1641.00,1.9185
1640.00,1.9044
1639.00,1.8963
1638.00,1.8943
1637.00,1.8957
1636.00,1.8968
1635.00,1.8971
1634.00,1.8973
1633.00,1.8975
1632.00,1.8983
1631.00,1.8997
1630.00,1.9013
1629.00,1.9037
1628.00,1.9087
1627.00,1.9187
1626.00,1.9349
1625.00,1.9566
1624.00,1.9823
1623.00,2.0115
1622.00,2.0442
1621.00,2.0803
1620.00,2.1192
1619.00,2.1603
1618.00,2.2019
1617.00,2.2420
1616.00,2.2799
1615.00,2.3147
1614.00,2.3451
1613.00,2.3717
1612.00,2.3949
1611.00,2.4143
1610.00,2.4294
1609.00,2.4422
1608.00,2.4561
1607.00,2.4727
1606.00,2.4917
1605.00,2.5122
1604.00,2.5341
1603.00,2.5566
1602.00,2.5786
1601.00,2.6000
1600.00,2.6218
1599.00,2.6445
1598.00,2.6668
1597.00,2.6872
1596.00,2.7058
1595.00,2.7233
1594.00,2.7403
1593.00,2.7573
1592.00,2.7743
1591.00,2.7904
1590.00,2.8047
1589.00,2.8181
1588.00,2.8320
1587.00,2.8462
1586.00,2.8597
1585.00,2.8722
1584.00,2.8850
1583.00,2.8986
1582.00,2.9133
1581.00,2.9290
1580.00,2.9457
1579.00,2.9620
1578.00,2.9759
1577.00,2.9864
1576.00,2.9932
1575.00,2.9965
1574.00,2.9978
1573.00,3.0020
1572.00,3.0132
1571.00,3.0292
1570.00,3.0443
1569.00,3.0562
1568.00,3.0664
1567.00,3.0753
1566.00,3.0815
1565.00,3.0849
1564.00,3.0885
1563.00,3.0959
1562.00,3.1085
1561.00,3.1256
1560.00,3.1413
1559.00,3.1482
1558.00,3.1479
1557.00,3.1437
1556.00,3.1408
1555.00,3.1429
1554.00,3.1484
1553.00,3.1551
1552.00,3.1626
1551.00,3.1701
1550.00,3.1761
1549.00,3.1815
1548.00,3.1889
1547.00,3.1986
1546.00,3.2083
1545.00,3.2180
1544.00,3.2303
1543.00,3.2448
1542.00,3.2544
1541.00,3.2517
1540.00,3.2405
1539.00,3.2339
1538.00,3.2389
1537.00,3.2521
1536.00,3.2674
1535.00,3.2780
1534.00,3.2799
1533.00,3.2772
1532.00,3.2782
1531.00,3.2843
1530.00,3.2906
1529.00,3.2922
1528.00,3.2898
1527.00,3.2882
1526.00,3.2911
1525.00,3.2972
1524.00,3.3018
1523.00,3.3021
1522.00,3.3010
1521.00,3.3050
1520.00,3.3136
1519.00,3.3171
1518.00,3.3113
1517.00,3.3031
1516.00,3.3019
1515.00,3.3070
1514.00,3.3102
1513.00,3.3070
1512.00,3.3004
1511.00,3.2965
1510.00,3.2991
1509.00,3.3068
1508.00,3.3136
1507.00,3.3151
1506.00,3.3152
1505.00,3.3170
1504.00,3.3192
1503.00,3.3186
1502.00,3.3143
1501.00,3.3094
1500.00,3.3077
1499.00,3.3085
1498.00,3.3097
1497.00,3.3134
1496.00,3.3223
1495.00,3.3309
1494.00,3.3297
1493.00,3.3205
1492.00,3.3135
1491.00,3.3128
1490.00,3.3142
1489.00,3.3144
1488.00,3.3157
1487.00,3.3216
1486.00,3.3306
1485.00,3.3375
1484.00,3.3388
1483.00,3.3356
1482.00,3.3312
1481.00,3.3300
1480.00,3.3339
1479.00,3.3400
1478.00,3.3436
1477.00,3.3426
1476.00,3.3383
1475.00,3.3322
1474.00,3.3241
1473.00,3.3141
1472.00,3.3053
1471.00,3.2987
1470.00,3.2916
1469.00,3.2838
1468.00,3.2786
1467.00,3.2785
1466.00,3.2814
1465.00,3.2827
1464.00,3.2816
1463.00,3.2813
1462.00,3.2835
1461.00,3.2857
1460.00,3.2831
1459.00,3.2735
1458.00,3.2606
1457.00,3.2545
1456.00,3.2643
1455.00,3.2886
1454.00,3.3231
1453.00,3.3698
1452.00,3.4317
1451.00,3.5049
1450.00,3.5738
1449.00,3.6177
1448.00,3.6222
1447.00,3.5909
1446.00,3.5445
1445.00,3.5020
1444.00,3.4689
1443.00,3.4405
1442.00,3.4123
1441.00,3.3861
1440.00,3.3680
1439.00,3.3592
1438.00,3.3540
1437.00,3.3446
1436.00,3.3296
1435.00,3.3147
1434.00,3.3059
1433.00,3.3061
1432.00,3.3157
1431.00,3.3325
1430.00,3.3533
1429.00,3.3749
1428.00,3.3945
1427.00,3.4088
1426.00,3.4148
1425.00,3.4127
1424.00,3.4083
1423.00,3.4096
1422.00,3.4191
1421.00,3.4301
1420.00,3.4320
1419.00,3.4208
1418.00,3.4033
1417.00,3.3874
1416.00,3.3738
1415.00,3.3602
1414.00,3.3466
1413.00,3.3349
1412.00,3.3243
1411.00,3.3122
1410.00,3.2987
1409.00,3.2860
1408.00,3.2734
1407.00,3.2573
1406.00,3.2360
1405.00,3.2135
1404.00,3.1953
1403.00,3.1827
1402.00,3.1731
1401.00,3.1645
1400.00,3.1551
1399.00,3.1431
1398.00,3.1280
1397.00,3.1109
1396.00,3.0926
1395.00,3.0735
1394.00,3.0540
1393.00,3.0354
1392.00,3.0181
1391.00,3.0021
1390.00,2.9865
1389.00,2.9701
1388.00,2.9519
1387.00,2.9326
1386.00,2.9143
1385.00,2.8980
1384.00,2.8830
1383.00,2.8676
1382.00,2.8509
1381.00,2.8322
1380.00,2.8109
1379.00,2.7864
1378.00,2.7597
1377.00,2.7322
1376.00,2.7042
1375.00,2.6751
1374.00,2.6449
1373.00,2.6144
1372.00,2.5836
1371.00,2.5517
1370.00,2.5178
1369.00,2.4824
1368.00,2.4467
1367.00,2.4119
1366.00,2.3786
1365.00,2.3470
1364.00,2.3173
1363.00,2.2895
1362.00,2.2641
1361.00,2.2414
1360.00,2.2224
1359.00,2.2090
1358.00,2.2043
1357.00,2.2116
1356.00,2.2339
1355.00,2.2736
1354.00,2.3327
1353.00,2.4113
1352.00,2.5069
1351.00,2.6145
1350.00,2.7256
1349.00,2.8284
1348.00,2.9084
1347.00,2.9524
1346.00,2.9580
1345.00,2.9389
1344.00,2.9162
1343.00,2.9064
1342.00,2.9178
1341.00,2.9526
1340.00,3.0049
1339.00,3.0557
1338.00,3.0736
1337.00,3.0384
1336.00,2.9611
1335.00,2.8669
1334.00,2.7744
1333.00,2.6926
1332.00,2.6259
1331.00,2.5761
1330.00,2.5436
1329.00,2.5280
1328.00,2.5288
1327.00,2.5452
1326.00,2.5755
1325.00,2.6176
1324.00,2.6698
1323.00,2.7298
1322.00,2.7946
1321.00,2.8608
1320.00,2.9272
1319.00,2.9958
1318.00,3.0694
1317.00,3.1465
1316.00,3.2219
1315.00,3.2910
1314.00,3.3530
1313.00,3.4067
1312.00,3.4413
1311.00,3.4387
1310.00,3.3916
1309.00,3.3110
1308.00,3.2123
1307.00,3.1044
1306.00,2.9941
1305.00,2.8881
1304.00,2.7919
1303.00,2.7078
1302.00,2.6358
1301.00,2.5758
1300.00,2.5289
1299.00,2.4962
1298.00,2.4781
1297.00,2.4737
1296.00,2.4811
1295.00,2.4982
1294.00,2.5230
1293.00,2.5535
1292.00,2.5881
1291.00,2.6250
1290.00,2.6635
1289.00,2.7037
1288.00,2.7459
1287.00,2.7887
1286.00,2.8300
1285.00,2.8692
1284.00,2.9071
1283.00,2.9440
1282.00,2.9773
1281.00,3.0052
1280.00,3.0290
1279.00,3.0515
1278.00,3.0735
1277.00,3.0934
1276.00,3.1097
1275.00,3.1226
1274.00,3.1338
1273.00,3.1463
1272.00,3.1627
1271.00,3.1821
1270.00,3.2012
1269.00,3.2172
1268.00,3.2304
1267.00,3.2406
1266.00,3.2456
1265.00,3.2466
1264.00,3.2499
1263.00,3.2611
1262.00,3.2774
1261.00,3.2902
1260.00,3.2953
1259.00,3.2981
1258.00,3.3064
1257.00,3.3219
1256.00,3.3404
1255.00,3.3560
1254.00,3.3666
1253.00,3.3743
1252.00,3.3828
1251.00,3.3938
1250.00,3.4060
1249.00,3.4196
1248.00,3.4379
1247.00,3.4634
1246.00,3.4898
1245.00,3.5053
1244.00,3.5068
1243.00,3.5055
1242.00,3.5119
1241.00,3.5252
1240.00,3.5393
1239.00,3.5530
1238.00,3.5704
1237.00,3.5920
1236.00,3.6121
1235.00,3.6253
1234.00,3.6327
1233.00,3.6413
1232.00,3.6615
1231.00,3.6939
1230.00,3.7243
1229.00,3.7408
1228.00,3.7427
1227.00,3.7396
1226.00,3.7525
1225.00,3.7989
1224.00,3.8744
1223.00,3.9383
1222.00,3.9345
1221.00,3.8630
1220.00,3.7760
1219.00,3.7056
1218.00,3.6516
1217.00,3.6049
1216.00,3.5640
1215.00,3.5339
1214.00,3.5176
1213.00,3.5141
1212.00,3.5195
1211.00,3.5317
1210.00,3.5501
1209.00,3.5711
1208.00,3.5872
1207.00,3.5954
1206.00,3.6023
1205.00,3.6103
1204.00,3.6146
1203.00,3.6132
1202.00,3.6124
1201.00,3.6196
1200.00,3.6361
1199.00,3.6587
1198.00,3.6849
1197.00,3.7140
1196.00,3.7412
1195.00,3.7579
1194.00,3.7594
1193.00,3.7475
1192.00,3.7329
1191.00,3.7303
1190.00,3.7465
1189.00,3.7706
1188.00,3.7752
1187.00,3.7489
1186.00,3.7065
1185.00,3.6727
1184.00,3.6682
1183.00,3.6956
1182.00,3.7375
1181.00,3.7716
1180.00,3.7864
1179.00,3.7835
1178.00,3.7672
1177.00,3.7412
1176.00,3.7174
1175.00,3.7120
1174.00,3.7295
1173.00,3.7566
1172.00,3.7713
1171.00,3.7669
1170.00,3.7601
1169.00,3.7706
1168.00,3.8032
1167.00,3.8436
1166.00,3.8629
1165.00,3.8419
1164.00,3.7990
1163.00,3.7666
1162.00,3.7561
1161.00,3.7559
1160.00,3.7452
1159.00,3.7181
1158.00,3.6919
1157.00,3.6899
1156.00,3.7272
1155.00,3.8047
1154.00,3.9035
1153.00,3.9776
1152.00,3.9692
1151.00,3.8902
1150.00,3.8090
1149.00,3.7558
1148.00,3.7280
1147.00,3.7144
1146.00,3.7054
1145.00,3.6984
1144.00,3.6997
1143.00,3.7240
1142.00,3.7868
1141.00,3.8829
1140.00,3.9632
1139.00,3.9561
1138.00,3.8741
1137.00,3.8100
1136.00,3.8087
1135.00,3.8504
1134.00,3.8735
1133.00,3.8457
1132.00,3.8115
1131.00,3.8174
1130.00,3.8602
1129.00,3.9023
1128.00,3.9352
1127.00,3.9688
1126.00,3.9927
1125.00,4.0080
1124.00,4.0290
1123.00,4.0628
1122.00,4.0911
1121.00,4.0838
1120.00,4.0630
1119.00,4.0947
1118.00,4.2081
1117.00,4.3354
1116.00,4.3234
1115.00,4.2140
1114.00,4.1488
1113.00,4.1327
1112.00,4.0733
1111.00,3.9817
1110.00,3.9411
1109.00,3.9352
1108.00,3.9042
1107.00,3.8740
1106.00,3.8873
1105.00,3.9356
1104.00,3.9797
1103.00,3.9857
1102.00,3.9615
1101.00,3.9357
1100.00,3.9279
1099.00,3.9388
1098.00,3.9787
1097.00,4.0856
1096.00,4.3120
1095.00,4.8026
1094.00,5.3793
1093.00,5.0168
1092.00,4.3802
1091.00,4.0361
1090.00,3.8908
1089.00,3.8847
1088.00,3.9850
1087.00,4.1402
1086.00,4.2362
1085.00,4.1891
1084.00,4.0784
1083.00,3.9916
1082.00,3.9478
1081.00,3.9175
1080.00,3.8639
1079.00,3.7978
1078.00,3.7631
1077.00,3.7879
1076.00,3.8553
1075.00,3.8962
1074.00,3.8775
1073.00,3.8529
1072.00,3.8752
1071.00,3.9565
1070.00,4.0648
1069.00,4.1184
1068.00,4.0627
1067.00,3.9619
1066.00,3.8839
1065.00,3.8547
1064.00,3.8708
1063.00,3.9090
1062.00,3.9506
1061.00,3.9870
1060.00,3.9951
1059.00,3.9754
1058.00,3.9493
1057.00,3.9203
1056.00,3.8833
1055.00,3.8234
1054.00,3.7493
1053.00,3.6951
1052.00,3.6807
1051.00,3.6981
1050.00,3.7168
1049.00,3.7235
1048.00,3.7309
1047.00,3.7317
1046.00,3.7257
1045.00,3.7262
1044.00,3.7218
1043.00,3.6897
1042.00,3.6333
1041.00,3.5803
1040.00,3.5498
1039.00,3.5432
1038.00,3.5555
1037.00,3.5807
1036.00,3.6094
1035.00,3.6257
1034.00,3.6179
1033.00,3.5918
1032.00,3.5625
1031.00,3.5334
1030.00,3.4996
1029.00,3.4615
1028.00,3.4242
1027.00,3.3934
1026.00,3.3760
1025.00,3.3783
1024.00,3.3997
1023.00,3.4281
1022.00,3.4486
1021.00,3.4612
1020.00,3.4784
1019.00,3.5019
1018.00,3.5171
1017.00,3.5134
1016.00,3.4985
1015.00,3.4862
1014.00,3.4799
1013.00,3.4727
1012.00,3.4567
1011.00,3.4284
1010.00,3.3915
1009.00,3.3546
1008.00,3.3233
1007.00,3.2964
1006.00,3.2680
1005.00,3.2353
1004.00,3.2007
1003.00,3.1680
1002.00,3.1387
1001.00,3.1136
1000.00,3.0944
999.00,3.0834
998.00,3.0808
997.00,3.0855
996.00,3.0984
995.00,3.1234
994.00,3.1626
993.00,3.2124
992.00,3.2631
991.00,3.3053
990.00,3.3314
989.00,3.3371
988.00,3.3216
987.00,3.2914
986.00,3.2607
985.00,3.2435
984.00,3.2449
983.00,3.2609
982.00,3.2852
981.00,3.3156
980.00,3.3523
979.00,3.3942
978.00,3.4393
977.00,3.4843
976.00,3.5249
975.00,3.5593
974.00,3.5924
973.00,3.6306
972.00,3.6713
971.00,3.7038
970.00,3.7220
969.00,3.7332
968.00,3.7493
967.00,3.7708
966.00,3.7943
965.00,3.8171
964.00,3.8331
963.00,3.8344
962.00,3.8248
961.00,3.8271
960.00,3.8571
959.00,3.9019
958.00,3.9248
957.00,3.9102
956.00,3.8827
955.00,3.8622
954.00,3.8608
953.00,3.9003
952.00,3.9911
951.00,4.1187
950.00,4.2550
949.00,4.3068
948.00,4.2741
947.00,4.2576
946.00,4.2544
945.00,4.2550
944.00,4.2091
943.00,4.1282
942.00,4.0618
941.00,4.0095
940.00,3.9689
939.00,3.9549
938.00,3.9845
937.00,4.0625
936.00,4.1610
935.00,4.2003
934.00,4.1571
933.00,4.1101
932.00,4.0983
931.00,4.1003
930.00,4.0641
929.00,3.9734
928.00,3.9005
927.00,3.8929
926.00,3.9427
925.00,4.0149
924.00,4.0768
923.00,4.1251
922.00,4.1745
921.00,4.2258
920.00,4.2653
919.00,4.2678
918.00,4.2170
917.00,4.1419
916.00,4.0711
915.00,4.0217
914.00,4.0041
913.00,3.9917
912.00,3.9524
911.00,3.9022
910.00,3.8704
909.00,3.8844
908.00,3.9562
907.00,4.0639
906.00,4.1614
905.00,4.2113
904.00,4.1705
903.00,4.0743
902.00,3.9932
901.00,3.9566
900.00,3.9779
899.00,4.0627
898.00,4.2010
897.00,4.3173
896.00,4.2703
895.00,4.1388
894.00,4.0496
893.00,4.0540
892.00,4.1772
891.00,4.3796
890.00,4.4299
889.00,4.2810
888.00,4.1546
887.00,4.0875
886.00,4.0045
885.00,3.9057
884.00,3.8369
883.00,3.8175
882.00,3.8744
881.00,4.0685
880.00,4.6378
879.00,4.6772
878.00,4.4341
877.00,4.3238
876.00,4.1610
875.00,4.1506
874.00,4.2263
873.00,4.2381
872.00,4.2081
871.00,4.1820
870.00,4.1396
869.00,4.0844
868.00,4.0499
867.00,4.0856
866.00,4.2329
865.00,4.3909
864.00,4.3499
863.00,4.3455
862.00,4.3922
861.00,4.4007
860.00,4.3740
859.00,4.3203
858.00,4.2385
857.00,4.1627
856.00,4.1357
855.00,4.1619
854.00,4.2061
853.00,4.2415
852.00,4.2381
851.00,4.2065
850.00,4.2127
849.00,4.2703
848.00,4.3638
847.00,4.4895
846.00,4.6332
845.00,4.4533
844.00,4.1993
843.00,4.0726
842.00,4.0252
841.00,4.0215
840.00,4.0731
839.00,4.2430
838.00,4.7117
837.00,4.7927
836.00,4.4496
835.00,4.2660
834.00,4.1956
833.00,4.2302
832.00,4.2789
831.00,4.2609
830.00,4.2699
829.00,4.4635
828.00,4.9778
827.00,4.4211
826.00,4.2751
825.00,4.2308
824.00,4.1266
823.00,4.0707
822.00,4.0670
821.00,4.0479
820.00,4.0656
819.00,4.1865
818.00,4.4248
817.00,4.6251
816.00,4.3941
815.00,4.2233
814.00,4.1902
813.00,4.2844
812.00,4.5181
811.00,4.8697
810.00,4.5681
809.00,4.2858
808.00,4.1696
807.00,4.2045
806.00,4.4192
805.00,4.7198
804.00,4.4624
803.00,4.2990
802.00,4.2550
801.00,4.2936
800.00,4.3782
799.00,4.4732
798.00,4.5339
797.00,4.4698
796.00,4.3619
795.00,4.4097
794.00,5.0064
793.00,4.5287
792.00,4.3043
791.00,4.2928
790.00,4.3290
789.00,4.3038
788.00,4.2293
787.00,4.1883
786.00,4.1851
785.00,4.1808
784.00,4.1854
783.00,4.2305
782.00,4.2996
781.00,4.3273
780.00,4.3606
779.00,4.4783
778.00,4.5362
777.00,4.4445
776.00,4.3096
775.00,4.2210
774.00,4.2288
773.00,4.3223
772.00,4.4070
771.00,4.3703
770.00,4.3674
769.00,4.5351
768.00,5.0083
767.00,4.5934
766.00,4.3692
765.00,4.2645
764.00,4.1958
763.00,4.1364
762.00,4.1038
761.00,4.1531
760.00,4.3444
759.00,4.4445
758.00,4.3133
757.00,4.3668
756.00,4.6386
755.00,4.5837
754.00,4.3196
753.00,4.1993
752.00,4.1690
751.00,4.1813
750.00,4.1740
749.00,4.1326
748.00,4.1093
747.00,4.1396
746.00,4.2309
745.00,4.3861
744.00,4.5261
743.00,4.4345
742.00,4.2927
741.00,4.2119
740.00,4.1511
739.00,4.0686
738.00,4.0037
737.00,4.0031
736.00,4.0752
735.00,4.1876
734.00,4.2494
733.00,4.2480
732.00,4.2987
731.00,4.4261
730.00,4.5324
729.00,4.5853
728.00,4.4774
727.00,4.2683
726.00,4.1372
725.00,4.1166
724.00,4.2044
723.00,4.2929
722.00,4.1871
721.00,4.0459
720.00,3.9636
719.00,3.9467
718.00,3.9836
717.00,4.0261
716.00,4.0424
715.00,4.0828
714.00,4.1554
713.00,4.1916
712.00,4.1553
711.00,4.1140
710.00,4.1175
709.00,4.1563
708.00,4.2091
707.00,4.2477
706.00,4.1989
705.00,4.1149
704.00,4.1382
703.00,4.3580
702.00,5.2886
701.00,4.3596
700.00,4.3351
699.00,4.6745
698.00,4.2243
697.00,3.9407
696.00,3.8675
695.00,3.9249
694.00,4.0898
693.00,4.2501
692.00,4.1239
691.00,4.0273
690.00,4.0513
689.00,4.1728
688.00,4.3759
687.00,4.7266
686.00,4.8126
685.00,4.4282
684.00,4.3282
683.00,4.4330
682.00,4.8107
681.00,4.8484
680.00,4.3539
679.00,4.2008
678.00,4.1589
677.00,4.1306
676.00,4.0728
675.00,4.0090
674.00,3.9860
673.00,4.0262
672.00,4.1254
671.00,4.1937
670.00,4.0818
669.00,3.9277
668.00,3.8438
667.00,3.8120
666.00,3.7895
665.00,3.7516
664.00,3.7048
663.00,3.6836
662.00,3.7127
661.00,3.7769
660.00,3.8275
659.00,3.8296
658.00,3.8150
657.00,3.8445
656.00,3.9675
655.00,4.2453
654.00,5.0629
653.00,4.5322
652.00,4.3978
651.00,4.5121
650.00,4.3022
649.00,3.9907
648.00,3.8787
647.00,3.8868
646.00,3.9532
645.00,4.0545
644.00,4.2022
643.00,4.3625
642.00,4.3906
641.00,4.3036
640.00,4.0685
639.00,3.8399
638.00,3.7238
637.00,3.6999
636.00,3.6907
635.00,3.6517
634.00,3.6057
633.00,3.5672
632.00,3.5508
631.00,3.5688
630.00,3.6079
629.00,3.6299
628.00,3.6114
627.00,3.5792
626.00,3.5696
625.00,3.5882
624.00,3.6162
623.00,3.6401
622.00,3.6643
621.00,3.6906
620.00,3.7079
619.00,3.6961
618.00,3.6520
617.00,3.6092
616.00,3.5875
615.00,3.5767
614.00,3.5822
613.00,3.6356
612.00,3.7395
611.00,3.8237
610.00,3.7991
609.00,3.6980
608.00,3.6049
607.00,3.5566
606.00,3.5412
605.00,3.5232
604.00,3.4826
603.00,3.4413
602.00,3.4364
601.00,3.4871
600.00,3.5874
599.00,3.7027
598.00,3.7853
597.00,3.8017
596.00,3.7655
595.00,3.7156
594.00,3.6505
593.00,3.5810
592.00,3.5397
591.00,3.5208
590.00,3.5195
589.00,3.5746
588.00,3.7055
587.00,3.8251
586.00,3.8161
585.00,3.7802
584.00,3.7547
583.00,3.7179
582.00,3.6551
581.00,3.5642
580.00,3.4878
579.00,3.4738
578.00,3.5339
577.00,3.6361
576.00,3.6999
575.00,3.6833
574.00,3.6331
573.00,3.6102
572.00,3.6409
571.00,3.6980
570.00,3.7221
569.00,3.7012
568.00,3.6724
567.00,3.6599
566.00,3.6449
565.00,3.6181
564.00,3.6218
563.00,3.6979
562.00,3.8589
561.00,4.0153
560.00,3.9752
559.00,3.8276
558.00,3.6711
557.00,3.5615
556.00,3.5274
555.00,3.5639
554.00,3.6317
553.00,3.6713
552.00,3.6645
551.00,3.6483
550.00,3.6483
549.00,3.6666
548.00,3.7115
547.00,3.8123
546.00,3.9369
545.00,3.9169
544.00,3.7217
543.00,3.5163
542.00,3.4238
541.00,3.4548
540.00,3.5752
539.00,3.7021
538.00,3.7888
537.00,3.8529
536.00,3.8870
535.00,3.9492
534.00,4.1360
533.00,4.4363
532.00,4.5448
531.00,4.7200
530.00,4.0791
529.00,3.7723
528.00,3.6554
527.00,3.6986
526.00,3.8433
525.00,3.8609
524.00,3.7853
523.00,3.6376
522.00,3.5418
521.00,3.5802
520.00,3.7822
519.00,4.2961
518.00,4.3346
517.00,3.8938
516.00,3.6543
515.00,3.5290
514.00,3.5083
513.00,3.6148
512.00,3.9558
511.00,4.2555
510.00,3.6577
509.00,3.5638
508.00,3.7002
507.00,4.0874
506.00,3.9375
505.00,3.6483
504.00,3.5310
503.00,3.5177
502.00,3.5491
501.00,3.5929
500.00,3.6971
499.00,3.9029
498.00,3.9615
497.00,3.8157
496.00,3.7992
495.00,3.9891
494.00,3.9454
493.00,3.6326
492.00,3.5167
491.00,3.4684
490.00,3.4320
489.00,3.4281
488.00,3.4023
487.00,3.3157
486.00,3.2482
485.00,3.2811
484.00,3.4597
483.00,3.6971
482.00,3.6961
481.00,3.8093
480.00,4.1632
479.00,3.8976
478.00,3.8329
477.00,3.9991
476.00,4.2729
475.00,3.8398
474.00,3.5492
473.00,3.4172
472.00,3.3951
471.00,3.4484
470.00,3.5249
469.00,3.5633
468.00,3.6287
467.00,3.8695
466.00,4.3108
465.00,4.0179
464.00,3.9088
463.00,3.6866
462.00,3.5227
461.00,3.4568
460.00,3.5081
459.00,3.7023
458.00,3.9224
457.00,3.9077
456.00,3.6508
455.00,3.4117
454.00,3.2544
453.00,3.2242
452.00,3.3691
451.00,3.9444
450.00,3.5375
449.00,3.2203
448.00,3.1205
447.00,3.1399
446.00,3.2614
445.00,3.4291
444.00,3.4065
443.00,3.2936
442.00,3.2644
441.00,3.2752
440.00,3.2089
439.00,3.0950
438.00,3.0310
437.00,3.0444
436.00,3.1216
435.00,3.2295
434.00,3.2402
433.00,3.0418
432.00,2.8956
431.00,2.8759
430.00,2.9854
429.00,3.2303
428.00,3.5553
427.00,3.5415
426.00,3.3767
425.00,3.1755
424.00,3.0082
423.00,2.9216
422.00,2.8979
421.00,2.8903
420.00,2.8595
419.00,2.8239
418.00,2.8198
417.00,2.8245
416.00,2.8002
415.00,2.7575
414.00,2.7397
413.00,2.7925
412.00,2.9656
411.00,3.3289
410.00,3.5804
409.00,4.2355
408.00,3.2073
407.00,2.9061
406.00,2.8735
405.00,3.0554
404.00,3.0620
403.00,2.8727
402.00,2.7753
401.00,2.7170
400.00,2.6840
