Created as New Dataset,Sample 170 By Administrator Date Friday, November 26 2021
cm-1,A
7000.00,1.1440
6999.00,1.1415
6998.00,1.1389
6997.00,1.1363
6996.00,1.1335
6995.00,1.1307
6994.00,1.1280
6993.00,1.1254
6992.00,1.1228
6991.00,1.1200
6990.00,1.1171
6989.00,1.1141
6988.00,1.1111
6987.00,1.1079
6986.00,1.1045
6985.00,1.1010
6984.00,1.0974
6983.00,1.0940
6982.00,1.0907
6981.00,1.0874
6980.00,1.0838
6979.00,1.0801
6978.00,1.0766
6977.00,1.0732
6976.00,1.0697
6975.00,1.0661
6974.00,1.0624
6973.00,1.0590
6972.00,1.0558
6971.00,1.0526
6970.00,1.0489
6969.00,1.0447
6968.00,1.0402
6967.00,1.0357
6966.00,1.0316
6965.00,1.0276
6964.00,1.0236
6963.00,1.0196
6962.00,1.0156
6961.00,1.0114
6960.00,1.0069
6959.00,1.0020
6958.00,0.9968
6957.00,0.9917
6956.00,0.9866
6955.00,0.9817
6954.00,0.9772
6953.00,0.9730
6952.00,0.9687
6951.00,0.9641
6950.00,0.9591
6949.00,0.9542
6948.00,0.9495
6947.00,0.9449
6946.00,0.9403
6945.00,0.9356
6944.00,0.9310
6943.00,0.9264
6942.00,0.9218
6941.00,0.9171
6940.00,0.9123
6939.00,0.9072
6938.00,0.9022
6937.00,0.8973
6936.00,0.8924
6935.00,0.8876
6934.00,0.8826
6933.00,0.8776
6932.00,0.8725
6931.00,0.8676
6930.00,0.8628
6929.00,0.8580
6928.00,0.8532
6927.00,0.8484
6926.00,0.8437
6925.00,0.8392
6924.00,0.8346
6923.00,0.8298
6922.00,0.8250
6921.00,0.8204
6920.00,0.8160
6919.00,0.8116
6918.00,0.8071
6917.00,0.8027
6916.00,0.7984
6915.00,0.7942
6914.00,0.7899
6913.00,0.7857
6912.00,0.7816
6911.00,0.7775
6910.00,0.7735
6909.00,0.7696
6908.00,0.7659
6907.00,0.7623
6906.00,0.7588
6905.00,0.7554
6904.00,0.7521
6903.00,0.7488
6902.00,0.7455
6901.00,0.7423
6900.00,0.7392
6899.00,0.7362
6898.00,0.7332
6897.00,0.7306
6896.00,0.7281
6895.00,0.7257
6894.00,0.7234
6893.00,0.7212
6892.00,0.7192
6891.00,0.7171
6890.00,0.7149
6889.00,0.7128
6888.00,0.7110
6887.00,0.7092
6886.00,0.7076
6885.00,0.7061
6884.00,0.7049
6883.00,0.7039
6882.00,0.7030
6881.00,0.7022
6880.00,0.7014
6879.00,0.7007
6878.00,0.7002
6877.00,0.6999
6876.00,0.6997
6875.00,0.6996
6874.00,0.6998
6873.00,0.7002
6872.00,0.7007
6871.00,0.7013
6870.00,0.7020
6869.00,0.7026
6868.00,0.7032
6867.00,0.7039
6866.00,0.7049
6865.00,0.7061
6864.00,0.7073
6863.00,0.7087
6862.00,0.7103
6861.00,0.7121
6860.00,0.7139
6859.00,0.7156
6858.00,0.7173
6857.00,0.7192
6856.00,0.7214
6855.00,0.7239
6854.00,0.7265
6853.00,0.7292
6852.00,0.7319
6851.00,0.7346
6850.00,0.7375
6849.00,0.7405
6848.00,0.7436
6847.00,0.7466
6846.00,0.7498
6845.00,0.7531
6844.00,0.7563
6843.00,0.7596
6842.00,0.7630
6841.00,0.7666
6840.00,0.7703
6839.00,0.7740
6838.00,0.7778
6837.00,0.7818
6836.00,0.7859
6835.00,0.7900
6834.00,0.7941
6833.00,0.7983
6832.00,0.8027
6831.00,0.8071
6830.00,0.8115
6829.00,0.8159
6828.00,0.8202
6827.00,0.8243
6826.00,0.8285
6825.00,0.8328
6824.00,0.8372
6823.00,0.8417
6822.00,0.8464
6821.00,0.8513
6820.00,0.8562
6819.00,0.8612
6818.00,0.8661
6817.00,0.8709
6816.00,0.8755
6815.00,0.8800
6814.00,0.8846
6813.00,0.8893
6812.00,0.8940
6811.00,0.8988
6810.00,0.9037
6809.00,0.9087
6808.00,0.9137
6807.00,0.9187
6806.00,0.9235
6805.00,0.9283
6804.00,0.9329
6803.00,0.9375
6802.00,0.9420
6801.00,0.9466
6800.00,0.9512
6799.00,0.9557
6798.00,0.9602
6797.00,0.9648
6796.00,0.9693
6795.00,0.9737
6794.00,0.9781
6793.00,0.9828
6792.00,0.9875
6791.00,0.9922
6790.00,0.9968
6789.00,1.0014
6788.00,1.0060
6787.00,1.0103
6786.00,1.0146
6785.00,1.0190
6784.00,1.0235
6783.00,1.0280
6782.00,1.0325
6781.00,1.0367
6780.00,1.0408
6779.00,1.0448
6778.00,1.0489
6777.00,1.0533
6776.00,1.0579
6775.00,1.0624
6774.00,1.0665
6773.00,1.0704
6772.00,1.0744
6771.00,1.0785
6770.00,1.0825
6769.00,1.0864
6768.00,1.0903
6767.00,1.0941
6766.00,1.0979
6765.00,1.1014
6764.00,1.1045
6763.00,1.1075
6762.00,1.1108
6761.00,1.1145
6760.00,1.1185
6759.00,1.1226
6758.00,1.1266
6757.00,1.1303
6756.00,1.1333
6755.00,1.1360
6754.00,1.1385
6753.00,1.1413
6752.00,1.1444
6751.00,1.1478
6750.00,1.1513
6749.00,1.1550
6748.00,1.1584
6747.00,1.1614
6746.00,1.1641
6745.00,1.1667
6744.00,1.1692
6743.00,1.1718
6742.00,1.1745
6741.00,1.1773
6740.00,1.1802
6739.00,1.1828
6738.00,1.1848
6737.00,1.1864
6736.00,1.1880
6735.00,1.1900
6734.00,1.1923
6733.00,1.1949
6732.00,1.1972
6731.00,1.1994
6730.00,1.2017
6729.00,1.2040
6728.00,1.2063
6727.00,1.2082
6726.00,1.2099
6725.00,1.2116
6724.00,1.2136
6723.00,1.2155
6722.00,1.2172
6721.00,1.2184
6720.00,1.2194
6719.00,1.2204
6718.00,1.2215
6717.00,1.2227
6716.00,1.2241
6715.00,1.2255
6714.00,1.2270
6713.00,1.2286
6712.00,1.2303
6711.00,1.2316
6710.00,1.2324
6709.00,1.2327
6708.00,1.2328
6707.00,1.2332
6706.00,1.2336
6705.00,1.2341
6704.00,1.2348
6703.00,1.2359
6702.00,1.2371
6701.00,1.2382
6700.00,1.2386
6699.00,1.2386
6698.00,1.2385
6697.00,1.2386
6696.00,1.2390
6695.00,1.2393
6694.00,1.2398
6693.00,1.2404
6692.00,1.2408
6691.00,1.2409
6690.00,1.2407
6689.00,1.2402
6688.00,1.2395
6687.00,1.2386
6686.00,1.2378
6685.00,1.2373
6684.00,1.2371
6683.00,1.2366
6682.00,1.2361
6681.00,1.2357
6680.00,1.2355
6679.00,1.2350
6678.00,1.2338
6677.00,1.2324
6676.00,1.2312
6675.00,1.2304
6674.00,1.2296
6673.00,1.2285
6672.00,1.2274
6671.00,1.2262
6670.00,1.2252
6669.00,1.2241
6668.00,1.2229
6667.00,1.2216
6666.00,1.2200
6665.00,1.2186
6664.00,1.2172
6663.00,1.2158
6662.00,1.2142
6661.00,1.2122
6660.00,1.2102
6659.00,1.2084
6658.00,1.2066
6657.00,1.2047
6656.00,1.2025
6655.00,1.2001
6654.00,1.1976
6653.00,1.1952
6652.00,1.1929
6651.00,1.1910
6650.00,1.1893
6649.00,1.1875
6648.00,1.1853
6647.00,1.1828
6646.00,1.1803
6645.00,1.1778
6644.00,1.1750
6643.00,1.1721
6642.00,1.1692
6641.00,1.1663
6640.00,1.1635
6639.00,1.1605
6638.00,1.1575
6637.00,1.1544
6636.00,1.1514
6635.00,1.1485
6634.00,1.1454
6633.00,1.1424
6632.00,1.1393
6631.00,1.1360
6630.00,1.1326
6629.00,1.1292
6628.00,1.1258
6627.00,1.1223
6626.00,1.1187
6625.00,1.1149
6624.00,1.1108
6623.00,1.1066
6622.00,1.1024
6621.00,1.0984
6620.00,1.0945
6619.00,1.0906
6618.00,1.0867
6617.00,1.0826
6616.00,1.0784
6615.00,1.0741
6614.00,1.0698
6613.00,1.0656
6612.00,1.0613
6611.00,1.0569
6610.00,1.0523
6609.00,1.0477
6608.00,1.0429
6607.00,1.0382
6606.00,1.0335
6605.00,1.0287
6604.00,1.0238
6603.00,1.0190
6602.00,1.0144
6601.00,1.0097
6600.00,1.0048
6599.00,0.9999
6598.00,0.9951
6597.00,0.9905
6596.00,0.9856
6595.00,0.9805
6594.00,0.9752
6593.00,0.9700
6592.00,0.9648
6591.00,0.9595
6590.00,0.9543
6589.00,0.9492
6588.00,0.9442
6587.00,0.9392
6586.00,0.9341
6585.00,0.9289
6584.00,0.9237
6583.00,0.9184
6582.00,0.9131
6581.00,0.9078
6580.00,0.9026
6579.00,0.8973
6578.00,0.8922
6577.00,0.8872
6576.00,0.8822
6575.00,0.8771
6574.00,0.8719
6573.00,0.8667
6572.00,0.8615
6571.00,0.8562
6570.00,0.8509
6569.00,0.8457
6568.00,0.8407
6567.00,0.8359
6566.00,0.8313
6565.00,0.8268
6564.00,0.8223
6563.00,0.8178
6562.00,0.8134
6561.00,0.8089
6560.00,0.8043
6559.00,0.7997
6558.00,0.7952
6557.00,0.7910
6556.00,0.7869
6555.00,0.7829
6554.00,0.7790
6553.00,0.7753
6552.00,0.7717
6551.00,0.7681
6550.00,0.7646
6549.00,0.7612
6548.00,0.7580
6547.00,0.7549
6546.00,0.7519
6545.00,0.7492
6544.00,0.7465
6543.00,0.7439
6542.00,0.7414
6541.00,0.7390
6540.00,0.7368
6539.00,0.7345
6538.00,0.7324
6537.00,0.7306
6536.00,0.7290
6535.00,0.7276
6534.00,0.7263
6533.00,0.7253
6532.00,0.7243
6531.00,0.7235
6530.00,0.7228
6529.00,0.7224
6528.00,0.7220
6527.00,0.7216
6526.00,0.7214
6525.00,0.7215
6524.00,0.7217
6523.00,0.7220
6522.00,0.7224
6521.00,0.7231
6520.00,0.7240
6519.00,0.7250
6518.00,0.7261
6517.00,0.7273
6516.00,0.7288
6515.00,0.7303
6514.00,0.7321
6513.00,0.7341
6512.00,0.7362
6511.00,0.7384
6510.00,0.7407
6509.00,0.7430
6508.00,0.7454
6507.00,0.7479
6506.00,0.7507
6505.00,0.7536
6504.00,0.7567
6503.00,0.7598
6502.00,0.7631
6501.00,0.7664
6500.00,0.7699
6499.00,0.7733
6498.00,0.7768
6497.00,0.7803
6496.00,0.7840
6495.00,0.7878
6494.00,0.7917
6493.00,0.7957
6492.00,0.7998
6491.00,0.8040
6490.00,0.8085
6489.00,0.8130
6488.00,0.8176
6487.00,0.8221
6486.00,0.8266
6485.00,0.8312
6484.00,0.8358
6483.00,0.8403
6482.00,0.8449
6481.00,0.8497
6480.00,0.8546
6479.00,0.8595
6478.00,0.8644
6477.00,0.8694
6476.00,0.8744
6475.00,0.8794
6474.00,0.8844
6473.00,0.8893
6472.00,0.8943
6471.00,0.8993
6470.00,0.9043
6469.00,0.9094
6468.00,0.9146
6467.00,0.9198
6466.00,0.9251
6465.00,0.9305
6464.00,0.9357
6463.00,0.9409
6462.00,0.9460
6461.00,0.9511
6460.00,0.9562
6459.00,0.9613
6458.00,0.9664
6457.00,0.9714
6456.00,0.9765
6455.00,0.9817
6454.00,0.9868
6453.00,0.9919
6452.00,0.9968
6451.00,1.0018
6450.00,1.0070
6449.00,1.0121
6448.00,1.0170
6447.00,1.0217
6446.00,1.0263
6445.00,1.0308
6444.00,1.0354
6443.00,1.0399
6442.00,1.0445
6441.00,1.0494
6440.00,1.0545
6439.00,1.0596
6438.00,1.0646
6437.00,1.0693
6436.00,1.0737
6435.00,1.0779
6434.00,1.0819
6433.00,1.0859
6432.00,1.0899
6431.00,1.0940
6430.00,1.0982
6429.00,1.1025
6428.00,1.1067
6427.00,1.1107
6426.00,1.1145
6425.00,1.1184
6424.00,1.1223
6423.00,1.1261
6422.00,1.1298
6421.00,1.1334
6420.00,1.1373
6419.00,1.1413
6418.00,1.1454
6417.00,1.1492
6416.00,1.1527
6415.00,1.1560
6414.00,1.1592
6413.00,1.1624
6412.00,1.1654
6411.00,1.1683
6410.00,1.1711
6409.00,1.1741
6408.00,1.1770
6407.00,1.1798
6406.00,1.1824
6405.00,1.1850
6404.00,1.1877
6403.00,1.1905
6402.00,1.1933
6401.00,1.1961
6400.00,1.1988
6399.00,1.2013
6398.00,1.2037
6397.00,1.2063
6396.00,1.2089
6395.00,1.2112
6394.00,1.2134
6393.00,1.2155
6392.00,1.2176
6391.00,1.2197
6390.00,1.2218
6389.00,1.2238
6388.00,1.2256
6387.00,1.2274
6386.00,1.2292
6385.00,1.2312
6384.00,1.2331
6383.00,1.2350
6382.00,1.2366
6381.00,1.2381
6380.00,1.2394
6379.00,1.2405
6378.00,1.2415
6377.00,1.2426
6376.00,1.2439
6375.00,1.2453
6374.00,1.2467
6373.00,1.2480
6372.00,1.2491
6371.00,1.2500
6370.00,1.2507
6369.00,1.2513
6368.00,1.2519
6367.00,1.2524
6366.00,1.2530
6365.00,1.2535
6364.00,1.2538
6363.00,1.2540
6362.00,1.2541
6361.00,1.2544
6360.00,1.2548
6359.00,1.2552
6358.00,1.2555
6357.00,1.2560
6356.00,1.2565
6355.00,1.2570
6354.00,1.2572
6353.00,1.2572
6352.00,1.2571
6351.00,1.2569
6350.00,1.2567
6349.00,1.2562
6348.00,1.2554
6347.00,1.2544
6346.00,1.2532
6345.00,1.2520
6344.00,1.2511
6343.00,1.2503
6342.00,1.2497
6341.00,1.2491
6340.00,1.2483
6339.00,1.2473
6338.00,1.2463
6337.00,1.2451
6336.00,1.2439
6335.00,1.2426
6334.00,1.2414
6333.00,1.2402
6332.00,1.2390
6331.00,1.2376
6330.00,1.2361
6329.00,1.2348
6328.00,1.2334
6327.00,1.2320
6326.00,1.2304
6325.00,1.2287
6324.00,1.2269
6323.00,1.2250
6322.00,1.2229
6321.00,1.2210
6320.00,1.2192
6319.00,1.2172
6318.00,1.2147
6317.00,1.2119
6316.00,1.2089
6315.00,1.2059
6314.00,1.2033
6313.00,1.2009
6312.00,1.1989
6311.00,1.1968
6310.00,1.1947
6309.00,1.1924
6308.00,1.1898
6307.00,1.1869
6306.00,1.1838
6305.00,1.1808
6304.00,1.1779
6303.00,1.1752
6302.00,1.1723
6301.00,1.1691
6300.00,1.1657
6299.00,1.1620
6298.00,1.1584
6297.00,1.1549
6296.00,1.1513
6295.00,1.1477
6294.00,1.1441
6293.00,1.1405
6292.00,1.1370
6291.00,1.1333
6290.00,1.1295
6289.00,1.1257
6288.00,1.1219
6287.00,1.1182
6286.00,1.1142
6285.00,1.1102
6284.00,1.1060
6283.00,1.1018
6282.00,1.0975
6281.00,1.0932
6280.00,1.0889
6279.00,1.0846
6278.00,1.0803
6277.00,1.0758
6276.00,1.0712
6275.00,1.0668
6274.00,1.0623
6273.00,1.0577
6272.00,1.0530
6271.00,1.0482
6270.00,1.0435
6269.00,1.0388
6268.00,1.0338
6267.00,1.0287
6266.00,1.0236
6265.00,1.0187
6264.00,1.0138
6263.00,1.0089
6262.00,1.0040
6261.00,0.9990
6260.00,0.9938
6259.00,0.9885
6258.00,0.9831
6257.00,0.9777
6256.00,0.9725
6255.00,0.9674
6254.00,0.9623
6253.00,0.9573
6252.00,0.9522
6251.00,0.9470
6250.00,0.9418
6249.00,0.9366
6248.00,0.9314
6247.00,0.9264
6246.00,0.9216
6245.00,0.9168
6244.00,0.9118
6243.00,0.9067
6242.00,0.9015
6241.00,0.8964
6240.00,0.8914
6239.00,0.8863
6238.00,0.8811
6237.00,0.8759
6236.00,0.8708
6235.00,0.8657
6234.00,0.8606
6233.00,0.8556
6232.00,0.8508
6231.00,0.8462
6230.00,0.8416
6229.00,0.8371
6228.00,0.8325
6227.00,0.8278
6226.00,0.8232
6225.00,0.8186
6224.00,0.8141
6223.00,0.8096
6222.00,0.8052
6221.00,0.8008
6220.00,0.7965
6219.00,0.7922
6218.00,0.7880
6217.00,0.7837
6216.00,0.7796
6215.00,0.7756
6214.00,0.7716
6213.00,0.7678
6212.00,0.7640
6211.00,0.7602
6210.00,0.7565
6209.00,0.7528
6208.00,0.7491
6207.00,0.7456
6206.00,0.7422
6205.00,0.7390
6204.00,0.7359
6203.00,0.7328
6202.00,0.7298
6201.00,0.7270
6200.00,0.7243
6199.00,0.7216
6198.00,0.7191
6197.00,0.7168
6196.00,0.7146
6195.00,0.7125
6194.00,0.7104
6193.00,0.7086
6192.00,0.7069
6191.00,0.7053
6190.00,0.7040
6189.00,0.7028
6188.00,0.7017
6187.00,0.7008
6186.00,0.7002
6185.00,0.6996
6184.00,0.6992
6183.00,0.6990
6182.00,0.6989
6181.00,0.6990
6180.00,0.6994
6179.00,0.6999
6178.00,0.7005
6177.00,0.7014
6176.00,0.7023
6175.00,0.7034
6174.00,0.7046
6173.00,0.7059
6172.00,0.7075
6171.00,0.7092
6170.00,0.7112
6169.00,0.7133
6168.00,0.7155
6167.00,0.7178
6166.00,0.7202
6165.00,0.7228
6164.00,0.7256
6163.00,0.7286
6162.00,0.7317
6161.00,0.7350
6160.00,0.7383
6159.00,0.7417
6158.00,0.7452
6157.00,0.7489
6156.00,0.7526
6155.00,0.7566
6154.00,0.7607
6153.00,0.7649
6152.00,0.7692
6151.00,0.7735
6150.00,0.7778
6149.00,0.7823
6148.00,0.7868
6147.00,0.7913
6146.00,0.7959
6145.00,0.8008
6144.00,0.8057
6143.00,0.8107
6142.00,0.8158
6141.00,0.8209
6140.00,0.8262
6139.00,0.8314
6138.00,0.8366
6137.00,0.8419
6136.00,0.8472
6135.00,0.8524
6134.00,0.8578
6133.00,0.8633
6132.00,0.8688
6131.00,0.8743
6130.00,0.8797
6129.00,0.8852
6128.00,0.8907
6127.00,0.8963
6126.00,0.9019
6125.00,0.9076
6124.00,0.9134
6123.00,0.9193
6122.00,0.9250
6121.00,0.9308
6120.00,0.9366
6119.00,0.9423
6118.00,0.9479
6117.00,0.9535
6116.00,0.9591
6115.00,0.9648
6114.00,0.9704
6113.00,0.9759
6112.00,0.9815
6111.00,0.9869
6110.00,0.9922
6109.00,0.9973
6108.00,1.0024
6107.00,1.0075
6106.00,1.0127
6105.00,1.0180
6104.00,1.0236
6103.00,1.0293
6102.00,1.0351
6101.00,1.0409
6100.00,1.0465
6099.00,1.0519
6098.00,1.0572
6097.00,1.0623
6096.00,1.0673
6095.00,1.0721
6094.00,1.0768
6093.00,1.0816
6092.00,1.0864
6091.00,1.0912
6090.00,1.0960
6089.00,1.1008
6088.00,1.1056
6087.00,1.1105
6086.00,1.1153
6085.00,1.1199
6084.00,1.1244
6083.00,1.1287
6082.00,1.1331
6081.00,1.1374
6080.00,1.1416
6079.00,1.1457
6078.00,1.1498
6077.00,1.1539
6076.00,1.1580
6075.00,1.1622
6074.00,1.1664
6073.00,1.1707
6072.00,1.1748
6071.00,1.1786
6070.00,1.1820
6069.00,1.1854
6068.00,1.1888
6067.00,1.1924
6066.00,1.1962
6065.00,1.2001
6064.00,1.2040
6063.00,1.2076
6062.00,1.2111
6061.00,1.2144
6060.00,1.2176
6059.00,1.2208
6058.00,1.2241
6057.00,1.2275
6056.00,1.2307
6055.00,1.2336
6054.00,1.2361
6053.00,1.2386
6052.00,1.2413
6051.00,1.2440
6050.00,1.2466
6049.00,1.2492
6048.00,1.2518
6047.00,1.2544
6046.00,1.2569
6045.00,1.2593
6044.00,1.2616
6043.00,1.2637
6042.00,1.2658
6041.00,1.2677
6040.00,1.2695
6039.00,1.2711
6038.00,1.2730
6037.00,1.2751
6036.00,1.2772
6035.00,1.2792
6034.00,1.2810
6033.00,1.2826
6032.00,1.2839
6031.00,1.2849
6030.00,1.2859
6029.00,1.2871
6028.00,1.2884
6027.00,1.2897
6026.00,1.2909
6025.00,1.2923
6024.00,1.2939
6023.00,1.2953
6022.00,1.2964
6021.00,1.2974
6020.00,1.2983
6019.00,1.2990
6018.00,1.2993
6017.00,1.2995
6016.00,1.2999
6015.00,1.3004
6014.00,1.3009
6013.00,1.3014
6012.00,1.3022
6011.00,1.3032
6010.00,1.3041
6009.00,1.3047
6008.00,1.3050
6007.00,1.3050
6006.00,1.3049
6005.00,1.3047
6004.00,1.3045
6003.00,1.3043
6002.00,1.3043
6001.00,1.3043
6000.00,1.3044
5999.00,1.3043
5998.00,1.3040
5997.00,1.3036
5996.00,1.3033
5995.00,1.3029
5994.00,1.3024
5993.00,1.3017
5992.00,1.3010
5991.00,1.3002
5990.00,1.2995
5989.00,1.2987
5988.00,1.2977
5987.00,1.2964
5986.00,1.2951
5985.00,1.2939
5984.00,1.2928
5983.00,1.2918
5982.00,1.2909
5981.00,1.2899
5980.00,1.2887
5979.00,1.2873
5978.00,1.2855
5977.00,1.2836
5976.00,1.2818
5975.00,1.2800
5974.00,1.2783
5973.00,1.2766
5972.00,1.2749
5971.00,1.2730
5970.00,1.2710
5969.00,1.2690
5968.00,1.2670
5967.00,1.2650
5966.00,1.2630
5965.00,1.2607
5964.00,1.2584
5963.00,1.2559
5962.00,1.2533
5961.00,1.2505
5960.00,1.2476
5959.00,1.2448
5958.00,1.2422
5957.00,1.2395
5956.00,1.2368
5955.00,1.2339
5954.00,1.2310
5953.00,1.2281
5952.00,1.2252
5951.00,1.2221
5950.00,1.2189
5949.00,1.2159
5948.00,1.2128
5947.00,1.2096
5946.00,1.2063
5945.00,1.2029
5944.00,1.1996
5943.00,1.1962
5942.00,1.1925
5941.00,1.1885
5940.00,1.1845
5939.00,1.1806
5938.00,1.1767
5937.00,1.1729
5936.00,1.1692
5935.00,1.1655
5934.00,1.1617
5933.00,1.1578
5932.00,1.1536
5931.00,1.1492
5930.00,1.1448
5929.00,1.1403
5928.00,1.1358
5927.00,1.1313
5926.00,1.1267
5925.00,1.1221
5924.00,1.1176
5923.00,1.1129
5922.00,1.1082
5921.00,1.1033
5920.00,1.0985
5919.00,1.0935
5918.00,1.0884
5917.00,1.0832
5916.00,1.0780
5915.00,1.0728
5914.00,1.0676
5913.00,1.0624
5912.00,1.0570
5911.00,1.0514
5910.00,1.0456
5909.00,1.0397
5908.00,1.0338
5907.00,1.0279
5906.00,1.0220
5905.00,1.0163
5904.00,1.0107
5903.00,1.0051
5902.00,0.9995
5901.00,0.9939
5900.00,0.9881
5899.00,0.9822
5898.00,0.9763
5897.00,0.9703
5896.00,0.9644
5895.00,0.9585
5894.00,0.9526
5893.00,0.9466
5892.00,0.9404
5891.00,0.9342
5890.00,0.9280
5889.00,0.9219
5888.00,0.9159
5887.00,0.9101
5886.00,0.9042
5885.00,0.8984
5884.00,0.8924
5883.00,0.8865
5882.00,0.8805
5881.00,0.8746
5880.00,0.8688
5879.00,0.8629
5878.00,0.8571
5877.00,0.8512
5876.00,0.8454
5875.00,0.8396
5874.00,0.8340
5873.00,0.8287
5872.00,0.8234
5871.00,0.8182
5870.00,0.8130
5869.00,0.8078
5868.00,0.8027
5867.00,0.7977
5866.00,0.7928
5865.00,0.7882
5864.00,0.7836
5863.00,0.7792
5862.00,0.7749
5861.00,0.7707
5860.00,0.7666
5859.00,0.7624
5858.00,0.7585
5857.00,0.7547
5856.00,0.7512
5855.00,0.7477
5854.00,0.7443
5853.00,0.7411
5852.00,0.7381
5851.00,0.7352
5850.00,0.7324
5849.00,0.7299
5848.00,0.7276
5847.00,0.7255
5846.00,0.7236
5845.00,0.7219
5844.00,0.7203
5843.00,0.7189
5842.00,0.7178
5841.00,0.7168
5840.00,0.7159
5839.00,0.7152
5838.00,0.7147
5837.00,0.7145
5836.00,0.7145
5835.00,0.7147
5834.00,0.7152
5833.00,0.7158
5832.00,0.7166
5831.00,0.7175
5830.00,0.7186
5829.00,0.7199
5828.00,0.7214
5827.00,0.7230
5826.00,0.7247
5825.00,0.7267
5824.00,0.7288
5823.00,0.7311
5822.00,0.7336
5821.00,0.7363
5820.00,0.7392
5819.00,0.7422
5818.00,0.7452
5817.00,0.7484
5816.00,0.7517
5815.00,0.7552
5814.00,0.7588
5813.00,0.7625
5812.00,0.7664
5811.00,0.7705
5810.00,0.7747
5809.00,0.7790
5808.00,0.7833
5807.00,0.7877
5806.00,0.7923
5805.00,0.7970
5804.00,0.8018
5803.00,0.8066
5802.00,0.8115
5801.00,0.8166
5800.00,0.8218
5799.00,0.8270
5798.00,0.8323
5797.00,0.8376
5796.00,0.8430
5795.00,0.8483
5794.00,0.8537
5793.00,0.8592
5792.00,0.8649
5791.00,0.8706
5790.00,0.8765
5789.00,0.8823
5788.00,0.8882
5787.00,0.8941
5786.00,0.8999
5785.00,0.9057
5784.00,0.9117
5783.00,0.9176
5782.00,0.9235
5781.00,0.9295
5780.00,0.9355
5779.00,0.9415
5778.00,0.9475
5777.00,0.9535
5776.00,0.9596
5775.00,0.9657
5774.00,0.9718
5773.00,0.9779
5772.00,0.9840
5771.00,0.9902
5770.00,0.9964
5769.00,1.0025
5768.00,1.0085
5767.00,1.0145
5766.00,1.0204
5765.00,1.0264
5764.00,1.0324
5763.00,1.0384
5762.00,1.0444
5761.00,1.0503
5760.00,1.0560
5759.00,1.0616
5758.00,1.0672
5757.00,1.0729
5756.00,1.0786
5755.00,1.0842
5754.00,1.0897
5753.00,1.0950
5752.00,1.1003
5751.00,1.1056
5750.00,1.1110
5749.00,1.1165
5748.00,1.1219
5747.00,1.1273
5746.00,1.1326
5745.00,1.1377
5744.00,1.1427
5743.00,1.1478
5742.00,1.1527
5741.00,1.1576
5740.00,1.1624
5739.00,1.1670
5738.00,1.1716
5737.00,1.1762
5736.00,1.1809
5735.00,1.1856
5734.00,1.1902
5733.00,1.1948
5732.00,1.1992
5731.00,1.2034
5730.00,1.2073
5729.00,1.2112
5728.00,1.2151
5727.00,1.2189
5726.00,1.2228
5725.00,1.2266
5724.00,1.2305
5723.00,1.2343
5722.00,1.2382
5721.00,1.2420
5720.00,1.2458
5719.00,1.2496
5718.00,1.2531
5717.00,1.2563
5716.00,1.2592
5715.00,1.2620
5714.00,1.2649
5713.00,1.2679
5712.00,1.2709
5711.00,1.2738
5710.00,1.2767
5709.00,1.2795
5708.00,1.2823
5707.00,1.2852
5706.00,1.2881
5705.00,1.2911
5704.00,1.2940
5703.00,1.2966
5702.00,1.2991
5701.00,1.3014
5700.00,1.3037
5699.00,1.3060
5698.00,1.3081
5697.00,1.3101
5696.00,1.3120
5695.00,1.3139
5694.00,1.3156
5693.00,1.3174
5692.00,1.3193
5691.00,1.3214
5690.00,1.3234
5689.00,1.3251
5688.00,1.3265
5687.00,1.3279
5686.00,1.3292
5685.00,1.3305
5684.00,1.3319
5683.00,1.3332
5682.00,1.3345
5681.00,1.3356
5680.00,1.3368
5679.00,1.3380
5678.00,1.3392
5677.00,1.3405
5676.00,1.3417
5675.00,1.3427
5674.00,1.3434
5673.00,1.3438
5672.00,1.3441
5671.00,1.3445
5670.00,1.3450
5669.00,1.3457
5668.00,1.3462
5667.00,1.3467
5666.00,1.3470
5665.00,1.3473
5664.00,1.3476
5663.00,1.3477
5662.00,1.3477
5661.00,1.3477
5660.00,1.3479
5659.00,1.3483
5658.00,1.3485
5657.00,1.3488
5656.00,1.3490
5655.00,1.3490
5654.00,1.3486
5653.00,1.3479
5652.00,1.3472
5651.00,1.3465
5650.00,1.3457
5649.00,1.3448
5648.00,1.3439
5647.00,1.3434
5646.00,1.3429
5645.00,1.3425
5644.00,1.3419
5643.00,1.3413
5642.00,1.3405
5641.00,1.3393
5640.00,1.3380
5639.00,1.3367
5638.00,1.3353
5637.00,1.3339
5636.00,1.3324
5635.00,1.3308
5634.00,1.3291
5633.00,1.3273
5632.00,1.3255
5631.00,1.3238
5630.00,1.3221
5629.00,1.3205
5628.00,1.3187
5627.00,1.3168
5626.00,1.3148
5625.00,1.3127
5624.00,1.3105
5623.00,1.3084
5622.00,1.3063
5621.00,1.3040
5620.00,1.3016
5619.00,1.2990
5618.00,1.2964
5617.00,1.2939
5616.00,1.2913
5615.00,1.2887
5614.00,1.2860
5613.00,1.2832
5612.00,1.2801
5611.00,1.2770
5610.00,1.2740
5609.00,1.2710
5608.00,1.2679
5607.00,1.2648
5606.00,1.2616
5605.00,1.2583
5604.00,1.2548
5603.00,1.2512
5602.00,1.2474
5601.00,1.2435
5600.00,1.2397
5599.00,1.2360
5598.00,1.2325
5597.00,1.2290
5596.00,1.2254
5595.00,1.2217
5594.00,1.2177
5593.00,1.2137
5592.00,1.2097
5591.00,1.2056
5590.00,1.2015
5589.00,1.1973
5588.00,1.1928
5587.00,1.1881
5586.00,1.1833
5585.00,1.1784
5584.00,1.1734
5583.00,1.1685
5582.00,1.1636
5581.00,1.1587
5580.00,1.1538
5579.00,1.1489
5578.00,1.1439
5577.00,1.1388
5576.00,1.1336
5575.00,1.1283
5574.00,1.1230
5573.00,1.1178
5572.00,1.1126
5571.00,1.1073
5570.00,1.1017
5569.00,1.0959
5568.00,1.0899
5567.00,1.0839
5566.00,1.0779
5565.00,1.0721
5564.00,1.0662
5563.00,1.0603
5562.00,1.0542
5561.00,1.0481
5560.00,1.0419
5559.00,1.0357
5558.00,1.0295
5557.00,1.0233
5556.00,1.0170
5555.00,1.0107
5554.00,1.0042
5553.00,0.9977
5552.00,0.9911
5551.00,0.9844
5550.00,0.9777
5549.00,0.9709
5548.00,0.9641
5547.00,0.9574
5546.00,0.9508
5545.00,0.9442
5544.00,0.9376
5543.00,0.9309
5542.00,0.9242
5541.00,0.9174
5540.00,0.9106
5539.00,0.9038
5538.00,0.8971
5537.00,0.8905
5536.00,0.8838
5535.00,0.8772
5534.00,0.8706
5533.00,0.8639
5532.00,0.8573
5531.00,0.8508
5530.00,0.8443
5529.00,0.8380
5528.00,0.8317
5527.00,0.8255
5526.00,0.8194
5525.00,0.8133
5524.00,0.8072
5523.00,0.8011
5522.00,0.7952
5521.00,0.7893
5520.00,0.7837
5519.00,0.7782
5518.00,0.7730
5517.00,0.7678
5516.00,0.7627
5515.00,0.7577
5514.00,0.7528
5513.00,0.7481
5512.00,0.7435
5511.00,0.7391
5510.00,0.7349
5509.00,0.7309
5508.00,0.7270
5507.00,0.7232
5506.00,0.7197
5505.00,0.7164
5504.00,0.7133
5503.00,0.7105
5502.00,0.7078
5501.00,0.7054
5500.00,0.7031
5499.00,0.7011
5498.00,0.6992
5497.00,0.6977
5496.00,0.6963
5495.00,0.6951
5494.00,0.6941
5493.00,0.6933
5492.00,0.6927
5491.00,0.6922
5490.00,0.6920
5489.00,0.6921
5488.00,0.6925
5487.00,0.6930
5486.00,0.6938
5485.00,0.6949
5484.00,0.6961
5483.00,0.6976
5482.00,0.6994
5481.00,0.7013
5480.00,0.7034
5479.00,0.7057
5478.00,0.7082
5477.00,0.7108
5476.00,0.7136
5475.00,0.7165
5474.00,0.7197
5473.00,0.7231
5472.00,0.7266
5471.00,0.7303
5470.00,0.7343
5469.00,0.7384
5468.00,0.7427
5467.00,0.7470
5466.00,0.7516
5465.00,0.7564
5464.00,0.7613
5463.00,0.7663
5462.00,0.7714
5461.00,0.7767
5460.00,0.7821
5459.00,0.7875
5458.00,0.7931
5457.00,0.7989
5456.00,0.8047
5455.00,0.8106
5454.00,0.8166
5453.00,0.8226
5452.00,0.8287
5451.00,0.8349
5450.00,0.8411
5449.00,0.8474
5448.00,0.8538
5447.00,0.8602
5446.00,0.8667
5445.00,0.8733
5444.00,0.8799
5443.00,0.8866
5442.00,0.8932
5441.00,0.8999
5440.00,0.9066
5439.00,0.9134
5438.00,0.9202
5437.00,0.9269
5436.00,0.9337
5435.00,0.9404
5434.00,0.9472
5433.00,0.9539
5432.00,0.9606
5431.00,0.9671
5430.00,0.9737
5429.00,0.9803
5428.00,0.9870
5427.00,0.9938
5426.00,1.0005
5425.00,1.0072
5424.00,1.0137
5423.00,1.0204
5422.00,1.0271
5421.00,1.0338
5420.00,1.0403
5419.00,1.0468
5418.00,1.0533
5417.00,1.0595
5416.00,1.0657
5415.00,1.0718
5414.00,1.0778
5413.00,1.0840
5412.00,1.0901
5411.00,1.0963
5410.00,1.1025
5409.00,1.1087
5408.00,1.1148
5407.00,1.1206
5406.00,1.1264
5405.00,1.1320
5404.00,1.1377
5403.00,1.1433
5402.00,1.1490
5401.00,1.1546
5400.00,1.1602
5399.00,1.1657
5398.00,1.1712
5397.00,1.1767
5396.00,1.1821
5395.00,1.1875
5394.00,1.1927
5393.00,1.1978
5392.00,1.2029
5391.00,1.2079
5390.00,1.2128
5389.00,1.2176
5388.00,1.2222
5387.00,1.2269
5386.00,1.2316
5385.00,1.2364
5384.00,1.2411
5383.00,1.2457
5382.00,1.2502
5381.00,1.2545
5380.00,1.2587
5379.00,1.2628
5378.00,1.2669
5377.00,1.2708
5376.00,1.2748
5375.00,1.2786
5374.00,1.2823
5373.00,1.2858
5372.00,1.2893
5371.00,1.2929
5370.00,1.2967
5369.00,1.3005
5368.00,1.3045
5367.00,1.3083
5366.00,1.3120
5365.00,1.3154
5364.00,1.3184
5363.00,1.3214
5362.00,1.3245
5361.00,1.3276
5360.00,1.3307
5359.00,1.3336
5358.00,1.3363
5357.00,1.3389
5356.00,1.3415
5355.00,1.3440
5354.00,1.3466
5353.00,1.3493
5352.00,1.3520
5351.00,1.3543
5350.00,1.3563
5349.00,1.3581
5348.00,1.3600
5347.00,1.3621
5346.00,1.3643
5345.00,1.3666
5344.00,1.3688
5343.00,1.3708
5342.00,1.3726
5341.00,1.3739
5340.00,1.3752
5339.00,1.3764
5338.00,1.3779
5337.00,1.3795
5336.00,1.3811
5335.00,1.3824
5334.00,1.3836
5333.00,1.3846
5332.00,1.3856
5331.00,1.3868
5330.00,1.3881
5329.00,1.3895
5328.00,1.3907
5327.00,1.3916
5326.00,1.3923
5325.00,1.3929
5324.00,1.3934
5323.00,1.3939
5322.00,1.3944
5321.00,1.3950
5320.00,1.3955
5319.00,1.3960
5318.00,1.3965
5317.00,1.3968
5316.00,1.3970
5315.00,1.3971
5314.00,1.3972
5313.00,1.3971
5312.00,1.3971
5311.00,1.3971
5310.00,1.3971
5309.00,1.3970
5308.00,1.3968
5307.00,1.3966
5306.00,1.3963
5305.00,1.3959
5304.00,1.3954
5303.00,1.3949
5302.00,1.3945
5301.00,1.3941
5300.00,1.3935
5299.00,1.3924
5298.00,1.3913
5297.00,1.3901
5296.00,1.3891
5295.00,1.3882
5294.00,1.3872
5293.00,1.3862
5292.00,1.3848
5291.00,1.3833
5290.00,1.3816
5289.00,1.3801
5288.00,1.3789
5287.00,1.3776
5286.00,1.3761
5285.00,1.3741
5284.00,1.3719
5283.00,1.3696
5282.00,1.3673
5281.00,1.3653
5280.00,1.3634
5279.00,1.3617
5278.00,1.3598
5277.00,1.3577
5276.00,1.3554
5275.00,1.3528
5274.00,1.3503
5273.00,1.3478
5272.00,1.3454
5271.00,1.3429
5270.00,1.3403
5269.00,1.3375
5268.00,1.3346
5267.00,1.3317
5266.00,1.3288
5265.00,1.3259
5264.00,1.3230
5263.00,1.3197
5262.00,1.3162
5261.00,1.3125
5260.00,1.3090
5259.00,1.3057
5258.00,1.3025
5257.00,1.2993
5256.00,1.2959
5255.00,1.2921
5254.00,1.2880
5253.00,1.2840
5252.00,1.2799
5251.00,1.2759
5250.00,1.2718
5249.00,1.2676
5248.00,1.2632
5247.00,1.2587
5246.00,1.2543
5245.00,1.2498
5244.00,1.2453
5243.00,1.2407
5242.00,1.2359
5241.00,1.2311
5240.00,1.2263
5239.00,1.2215
5238.00,1.2168
5237.00,1.2121
5236.00,1.2073
5235.00,1.2023
5234.00,1.1971
5233.00,1.1916
5232.00,1.1859
5231.00,1.1803
5230.00,1.1746
5229.00,1.1691
5228.00,1.1635
5227.00,1.1578
5226.00,1.1520
5225.00,1.1459
5224.00,1.1398
5223.00,1.1335
5222.00,1.1273
5221.00,1.1211
5220.00,1.1149
5219.00,1.1087
5218.00,1.1025
5217.00,1.0962
5216.00,1.0898
5215.00,1.0833
5214.00,1.0766
5213.00,1.0699
5212.00,1.0631
5211.00,1.0562
5210.00,1.0493
5209.00,1.0422
5208.00,1.0350
5207.00,1.0277
5206.00,1.0204
5205.00,1.0131
5204.00,1.0058
5203.00,0.9985
5202.00,0.9912
5201.00,0.9839
5200.00,0.9766
5199.00,0.9693
5198.00,0.9619
5197.00,0.9545
5196.00,0.9470
5195.00,0.9396
5194.00,0.9322
5193.00,0.9248
5192.00,0.9173
5191.00,0.9098
5190.00,0.9023
5189.00,0.8949
5188.00,0.8875
5187.00,0.8803
5186.00,0.8731
5185.00,0.8659
5184.00,0.8586
5183.00,0.8514
5182.00,0.8442
5181.00,0.8371
5180.00,0.8301
5179.00,0.8233
5178.00,0.8166
5177.00,0.8100
5176.00,0.8036
5175.00,0.7973
5174.00,0.7911
5173.00,0.7850
5172.00,0.7790
5171.00,0.7731
5170.00,0.7675
5169.00,0.7620
5168.00,0.7568
5167.00,0.7517
5166.00,0.7468
5165.00,0.7420
5164.00,0.7375
5163.00,0.7331
5162.00,0.7291
5161.00,0.7253
5160.00,0.7217
5159.00,0.7183
5158.00,0.7152
5157.00,0.7124
5156.00,0.7098
5155.00,0.7075
5154.00,0.7055
5153.00,0.7037
5152.00,0.7022
5151.00,0.7010
5150.00,0.7000
5149.00,0.6993
5148.00,0.6989
5147.00,0.6987
5146.00,0.6989
5145.00,0.6993
5144.00,0.7000
5143.00,0.7009
5142.00,0.7020
5141.00,0.7034
5140.00,0.7051
5139.00,0.7071
5138.00,0.7093
5137.00,0.7118
5136.00,0.7145
5135.00,0.7174
5134.00,0.7206
5133.00,0.7240
5132.00,0.7277
5131.00,0.7316
5130.00,0.7357
5129.00,0.7399
5128.00,0.7444
5127.00,0.7490
5126.00,0.7538
5125.00,0.7588
5124.00,0.7639
5123.00,0.7691
5122.00,0.7746
5121.00,0.7802
5120.00,0.7860
5119.00,0.7919
5118.00,0.7980
5117.00,0.8042
5116.00,0.8105
5115.00,0.8169
5114.00,0.8233
5113.00,0.8299
5112.00,0.8366
5111.00,0.8434
5110.00,0.8503
5109.00,0.8572
5108.00,0.8643
5107.00,0.8713
5106.00,0.8785
5105.00,0.8856
5104.00,0.8929
5103.00,0.9001
5102.00,0.9075
5101.00,0.9149
5100.00,0.9223
5099.00,0.9298
5098.00,0.9373
5097.00,0.9449
5096.00,0.9525
5095.00,0.9599
5094.00,0.9674
5093.00,0.9749
5092.00,0.9824
5091.00,0.9899
5090.00,0.9974
5089.00,1.0049
5088.00,1.0123
5087.00,1.0197
5086.00,1.0270
5085.00,1.0344
5084.00,1.0418
5083.00,1.0491
5082.00,1.0563
5081.00,1.0635
5080.00,1.0708
5079.00,1.0781
5078.00,1.0854
5077.00,1.0926
5076.00,1.0997
5075.00,1.1067
5074.00,1.1135
5073.00,1.1203
5072.00,1.1269
5071.00,1.1335
5070.00,1.1400
5069.00,1.1466
5068.00,1.1532
5067.00,1.1596
5066.00,1.1660
5065.00,1.1724
5064.00,1.1789
5063.00,1.1853
5062.00,1.1917
5061.00,1.1979
5060.00,1.2040
5059.00,1.2098
5058.00,1.2155
5057.00,1.2213
5056.00,1.2272
5055.00,1.2332
5054.00,1.2391
5053.00,1.2448
5052.00,1.2504
5051.00,1.2558
5050.00,1.2612
5049.00,1.2664
5048.00,1.2715
5047.00,1.2766
5046.00,1.2815
5045.00,1.2865
5044.00,1.2913
5043.00,1.2961
5042.00,1.3009
5041.00,1.3055
5040.00,1.3100
5039.00,1.3145
5038.00,1.3190
5037.00,1.3235
5036.00,1.3280
5035.00,1.3322
5034.00,1.3362
5033.00,1.3401
5032.00,1.3441
5031.00,1.3481
5030.00,1.3521
5029.00,1.3561
5028.00,1.3600
5027.00,1.3638
5026.00,1.3674
5025.00,1.3710
5024.00,1.3747
5023.00,1.3783
5022.00,1.3818
5021.00,1.3851
5020.00,1.3881
5019.00,1.3910
5018.00,1.3937
5017.00,1.3965
5016.00,1.3994
5015.00,1.4024
5014.00,1.4055
5013.00,1.4085
5012.00,1.4115
5011.00,1.4143
5010.00,1.4169
5009.00,1.4193
5008.00,1.4215
5007.00,1.4236
5006.00,1.4256
5005.00,1.4277
5004.00,1.4299
5003.00,1.4320
5002.00,1.4342
5001.00,1.4364
5000.00,1.4386
4999.00,1.4407
4998.00,1.4426
4997.00,1.4443
4996.00,1.4458
4995.00,1.4471
4994.00,1.4484
4993.00,1.4497
4992.00,1.4509
4991.00,1.4521
4990.00,1.4533
4989.00,1.4544
4988.00,1.4556
4987.00,1.4568
4986.00,1.4579
4985.00,1.4590
4984.00,1.4600
4983.00,1.4610
4982.00,1.4618
4981.00,1.4625
4980.00,1.4630
4979.00,1.4634
4978.00,1.4638
4977.00,1.4642
4976.00,1.4647
4975.00,1.4653
4974.00,1.4658
4973.00,1.4663
4972.00,1.4666
4971.00,1.4666
4970.00,1.4664
4969.00,1.4659
4968.00,1.4654
4967.00,1.4649
4966.00,1.4645
4965.00,1.4642
4964.00,1.4638
4963.00,1.4633
4962.00,1.4626
4961.00,1.4620
4960.00,1.4614
4959.00,1.4608
4958.00,1.4602
4957.00,1.4595
4956.00,1.4587
4955.00,1.4579
4954.00,1.4571
4953.00,1.4561
4952.00,1.4552
4951.00,1.4540
4950.00,1.4528
4949.00,1.4514
4948.00,1.4499
4947.00,1.4484
4946.00,1.4470
4945.00,1.4455
4944.00,1.4439
4943.00,1.4422
4942.00,1.4403
4941.00,1.4382
4940.00,1.4361
4939.00,1.4341
4938.00,1.4321
4937.00,1.4302
4936.00,1.4281
4935.00,1.4260
4934.00,1.4235
4933.00,1.4210
4932.00,1.4183
4931.00,1.4157
4930.00,1.4132
4929.00,1.4108
4928.00,1.4083
4927.00,1.4056
4926.00,1.4027
4925.00,1.3996
4924.00,1.3964
4923.00,1.3931
4922.00,1.3898
4921.00,1.3865
4920.00,1.3832
4919.00,1.3800
4918.00,1.3766
4917.00,1.3732
4916.00,1.3696
4915.00,1.3660
4914.00,1.3622
4913.00,1.3584
4912.00,1.3545
4911.00,1.3506
4910.00,1.3467
4909.00,1.3427
4908.00,1.3387
4907.00,1.3347
4906.00,1.3304
4905.00,1.3259
4904.00,1.3212
4903.00,1.3164
4902.00,1.3115
4901.00,1.3067
4900.00,1.3020
4899.00,1.2972
4898.00,1.2924
4897.00,1.2875
4896.00,1.2823
4895.00,1.2771
4894.00,1.2718
4893.00,1.2665
4892.00,1.2610
4891.00,1.2554
4890.00,1.2496
4889.00,1.2438
4888.00,1.2379
4887.00,1.2321
4886.00,1.2261
4885.00,1.2201
4884.00,1.2139
4883.00,1.2077
4882.00,1.2014
4881.00,1.1950
4880.00,1.1886
4879.00,1.1820
4878.00,1.1754
4877.00,1.1687
4876.00,1.1619
4875.00,1.1549
4874.00,1.1477
4873.00,1.1405
4872.00,1.1332
4871.00,1.1258
4870.00,1.1186
4869.00,1.1113
4868.00,1.1039
4867.00,1.0965
4866.00,1.0890
4865.00,1.0814
4864.00,1.0738
4863.00,1.0659
4862.00,1.0580
4861.00,1.0499
4860.00,1.0417
4859.00,1.0336
4858.00,1.0255
4857.00,1.0174
4856.00,1.0093
4855.00,1.0011
4854.00,0.9928
4853.00,0.9845
4852.00,0.9761
4851.00,0.9676
4850.00,0.9592
4849.00,0.9507
4848.00,0.9422
4847.00,0.9337
4846.00,0.9251
4845.00,0.9166
4844.00,0.9081
4843.00,0.8997
4842.00,0.8913
4841.00,0.8831
4840.00,0.8748
4839.00,0.8665
4838.00,0.8583
4837.00,0.8502
4836.00,0.8421
4835.00,0.8342
4834.00,0.8263
4833.00,0.8185
4832.00,0.8109
4831.00,0.8034
4830.00,0.7961
4829.00,0.7889
4828.00,0.7819
4827.00,0.7751
4826.00,0.7684
4825.00,0.7620
4824.00,0.7558
4823.00,0.7498
4822.00,0.7440
4821.00,0.7385
4820.00,0.7332
4819.00,0.7282
4818.00,0.7235
4817.00,0.7190
4816.00,0.7147
4815.00,0.7108
4814.00,0.7072
4813.00,0.7039
4812.00,0.7010
4811.00,0.6984
4810.00,0.6961
4809.00,0.6942
4808.00,0.6925
4807.00,0.6912
4806.00,0.6902
4805.00,0.6896
4804.00,0.6892
4803.00,0.6892
4802.00,0.6895
4801.00,0.6902
4800.00,0.6912
4799.00,0.6925
4798.00,0.6942
4797.00,0.6962
4796.00,0.6985
4795.00,0.7010
4794.00,0.7039
4793.00,0.7071
4792.00,0.7105
4791.00,0.7143
4790.00,0.7183
4789.00,0.7225
4788.00,0.7270
4787.00,0.7317
4786.00,0.7367
4785.00,0.7419
4784.00,0.7474
4783.00,0.7530
4782.00,0.7589
4781.00,0.7650
4780.00,0.7713
4779.00,0.7777
4778.00,0.7843
4777.00,0.7911
4776.00,0.7980
4775.00,0.8050
4774.00,0.8122
4773.00,0.8195
4772.00,0.8270
4771.00,0.8346
4770.00,0.8423
4769.00,0.8501
4768.00,0.8580
4767.00,0.8660
4766.00,0.8740
4765.00,0.8822
4764.00,0.8903
4763.00,0.8986
4762.00,0.9069
4761.00,0.9153
4760.00,0.9237
4759.00,0.9322
4758.00,0.9407
4757.00,0.9493
4756.00,0.9578
4755.00,0.9663
4754.00,0.9749
4753.00,0.9834
4752.00,0.9919
4751.00,1.0005
4750.00,1.0090
4749.00,1.0175
4748.00,1.0260
4747.00,1.0345
4746.00,1.0430
4745.00,1.0515
4744.00,1.0600
4743.00,1.0684
4742.00,1.0768
4741.00,1.0850
4740.00,1.0931
4739.00,1.1013
4738.00,1.1094
4737.00,1.1175
4736.00,1.1256
4735.00,1.1336
4734.00,1.1414
4733.00,1.1492
4732.00,1.1570
4731.00,1.1648
4730.00,1.1726
4729.00,1.1802
4728.00,1.1878
4727.00,1.1952
4726.00,1.2025
4725.00,1.2097
4724.00,1.2169
4723.00,1.2240
4722.00,1.2311
4721.00,1.2381
4720.00,1.2449
4719.00,1.2515
4718.00,1.2581
4717.00,1.2648
4716.00,1.2715
4715.00,1.2782
4714.00,1.2847
4713.00,1.2909
4712.00,1.2968
4711.00,1.3026
4710.00,1.3084
4709.00,1.3143
4708.00,1.3203
4707.00,1.3262
4706.00,1.3320
4705.00,1.3377
4704.00,1.3432
4703.00,1.3487
4702.00,1.3542
4701.00,1.3595
4700.00,1.3647
4699.00,1.3698
4698.00,1.3748
4697.00,1.3797
4696.00,1.3847
4695.00,1.3896
4694.00,1.3943
4693.00,1.3989
4692.00,1.4034
4691.00,1.4079
4690.00,1.4123
4689.00,1.4169
4688.00,1.4214
4687.00,1.4258
4686.00,1.4300
4685.00,1.4339
4684.00,1.4378
4683.00,1.4417
4682.00,1.4456
4681.00,1.4495
4680.00,1.4533
4679.00,1.4568
4678.00,1.4601
4677.00,1.4634
4676.00,1.4667
4675.00,1.4701
4674.00,1.4735
4673.00,1.4766
4672.00,1.4795
4671.00,1.4824
4670.00,1.4853
4669.00,1.4882
4668.00,1.4910
4667.00,1.4936
4666.00,1.4960
4665.00,1.4983
4664.00,1.5006
4663.00,1.5029
4662.00,1.5053
4661.00,1.5078
4660.00,1.5103
4659.00,1.5127
4658.00,1.5148
4657.00,1.5165
4656.00,1.5181
4655.00,1.5197
4654.00,1.5214
4653.00,1.5232
4652.00,1.5251
4651.00,1.5270
4650.00,1.5288
4649.00,1.5304
4648.00,1.5317
4647.00,1.5329
4646.00,1.5341
4645.00,1.5354
4644.00,1.5368
4643.00,1.5381
4642.00,1.5393
4641.00,1.5403
4640.00,1.5411
4639.00,1.5419
4638.00,1.5427
4637.00,1.5435
4636.00,1.5442
4635.00,1.5450
4634.00,1.5457
4633.00,1.5464
4632.00,1.5469
4631.00,1.5472
4630.00,1.5472
4629.00,1.5473
4628.00,1.5474
4627.00,1.5477
4626.00,1.5481
4625.00,1.5483
4624.00,1.5483
4623.00,1.5479
4622.00,1.5475
4621.00,1.5471
4620.00,1.5469
4619.00,1.5468
4618.00,1.5467
4617.00,1.5464
4616.00,1.5458
4615.00,1.5450
4614.00,1.5443
4613.00,1.5435
4612.00,1.5428
4611.00,1.5420
4610.00,1.5412
4609.00,1.5403
4608.00,1.5393
4607.00,1.5382
4606.00,1.5369
4605.00,1.5355
4604.00,1.5340
4603.00,1.5325
4602.00,1.5310
4601.00,1.5295
4600.00,1.5281
4599.00,1.5264
4598.00,1.5246
4597.00,1.5226
4596.00,1.5205
4595.00,1.5184
4594.00,1.5163
4593.00,1.5141
4592.00,1.5118
4591.00,1.5095
4590.00,1.5072
4589.00,1.5048
4588.00,1.5024
4587.00,1.4999
4586.00,1.4973
4585.00,1.4946
4584.00,1.4918
4583.00,1.4890
4582.00,1.4860
4581.00,1.4830
4580.00,1.4799
4579.00,1.4768
4578.00,1.4736
4577.00,1.4703
4576.00,1.4669
4575.00,1.4635
4574.00,1.4600
4573.00,1.4564
4572.00,1.4527
4571.00,1.4489
4570.00,1.4451
4569.00,1.4413
4568.00,1.4374
4567.00,1.4332
4566.00,1.4289
4565.00,1.4244
4564.00,1.4199
4563.00,1.4155
4562.00,1.4111
4561.00,1.4066
4560.00,1.4020
4559.00,1.3972
4558.00,1.3923
4557.00,1.3872
4556.00,1.3821
4555.00,1.3771
4554.00,1.3720
4553.00,1.3668
4552.00,1.3614
4551.00,1.3558
4550.00,1.3500
4549.00,1.3440
4548.00,1.3381
4547.00,1.3322
4546.00,1.3264
4545.00,1.3205
4544.00,1.3145
4543.00,1.3085
4542.00,1.3023
4541.00,1.2959
4540.00,1.2894
4539.00,1.2826
4538.00,1.2758
4537.00,1.2689
4536.00,1.2619
4535.00,1.2550
4534.00,1.2479
4533.00,1.2408
4532.00,1.2334
4531.00,1.2259
4530.00,1.2183
4529.00,1.2106
4528.00,1.2028
4527.00,1.1950
4526.00,1.1872
4525.00,1.1792
4524.00,1.1711
4523.00,1.1629
4522.00,1.1545
4521.00,1.1461
4520.00,1.1376
4519.00,1.1289
4518.00,1.1202
4517.00,1.1115
4516.00,1.1026
4515.00,1.0937
4514.00,1.0847
4513.00,1.0756
4512.00,1.0664
4511.00,1.0570
4510.00,1.0476
4509.00,1.0382
4508.00,1.0288
4507.00,1.0193
4506.00,1.0098
4505.00,1.0002
4504.00,0.9906
4503.00,0.9809
4502.00,0.9712
4501.00,0.9615
4500.00,0.9518
4499.00,0.9422
4498.00,0.9325
4497.00,0.9229
4496.00,0.9134
4495.00,0.9038
4494.00,0.8943
4493.00,0.8848
4492.00,0.8755
4491.00,0.8663
4490.00,0.8572
4489.00,0.8483
4488.00,0.8395
4487.00,0.8308
4486.00,0.8223
4485.00,0.8140
4484.00,0.8059
4483.00,0.7980
4482.00,0.7903
4481.00,0.7828
4480.00,0.7756
4479.00,0.7686
4478.00,0.7619
4477.00,0.7556
4476.00,0.7496
4475.00,0.7439
4474.00,0.7385
4473.00,0.7335
4472.00,0.7288
4471.00,0.7245
4470.00,0.7206
4469.00,0.7171
4468.00,0.7140
4467.00,0.7114
4466.00,0.7091
4465.00,0.7073
4464.00,0.7058
4463.00,0.7048
4462.00,0.7042
4461.00,0.7040
4460.00,0.7042
4459.00,0.7048
4458.00,0.7059
4457.00,0.7074
4456.00,0.7093
4455.00,0.7115
4454.00,0.7142
4453.00,0.7172
4452.00,0.7206
4451.00,0.7244
4450.00,0.7286
4449.00,0.7331
4448.00,0.7380
4447.00,0.7431
4446.00,0.7486
4445.00,0.7544
4444.00,0.7604
4443.00,0.7667
4442.00,0.7733
4441.00,0.7801
4440.00,0.7872
4439.00,0.7946
4438.00,0.8022
4437.00,0.8100
4436.00,0.8180
4435.00,0.8262
4434.00,0.8347
4433.00,0.8432
4432.00,0.8520
4431.00,0.8608
4430.00,0.8698
4429.00,0.8789
4428.00,0.8881
4427.00,0.8973
4426.00,0.9067
4425.00,0.9161
4424.00,0.9257
4423.00,0.9353
4422.00,0.9450
4421.00,0.9548
4420.00,0.9646
4419.00,0.9745
4418.00,0.9843
4417.00,0.9943
4416.00,1.0042
4415.00,1.0142
4414.00,1.0241
4413.00,1.0340
4412.00,1.0439
4411.00,1.0537
4410.00,1.0634
4409.00,1.0731
4408.00,1.0828
4407.00,1.0926
4406.00,1.1023
4405.00,1.1120
4404.00,1.1217
4403.00,1.1313
4402.00,1.1407
4401.00,1.1500
4400.00,1.1592
4399.00,1.1684
4398.00,1.1776
4397.00,1.1868
4396.00,1.1958
4395.00,1.2047
4394.00,1.2135
4393.00,1.2222
4392.00,1.2308
4391.00,1.2393
4390.00,1.2478
4389.00,1.2562
4388.00,1.2644
4387.00,1.2725
4386.00,1.2804
4385.00,1.2883
4384.00,1.2962
4383.00,1.3039
4382.00,1.3115
4381.00,1.3190
4380.00,1.3263
4379.00,1.3335
4378.00,1.3406
4377.00,1.3477
4376.00,1.3547
4375.00,1.3615
4374.00,1.3681
4373.00,1.3745
4372.00,1.3808
4371.00,1.3870
4370.00,1.3933
4369.00,1.3995
4368.00,1.4057
4367.00,1.4117
4366.00,1.4175
4365.00,1.4233
4364.00,1.4291
4363.00,1.4346
4362.00,1.4400
4361.00,1.4451
4360.00,1.4501
4359.00,1.4552
4358.00,1.4604
4357.00,1.4657
4356.00,1.4710
4355.00,1.4763
4354.00,1.4813
4353.00,1.4862
4352.00,1.4909
4351.00,1.4955
4350.00,1.4999
4349.00,1.5043
4348.00,1.5088
4347.00,1.5134
4346.00,1.5179
4345.00,1.5223
4344.00,1.5266
4343.00,1.5305
4342.00,1.5342
4341.00,1.5378
4340.00,1.5415
4339.00,1.5453
4338.00,1.5491
4337.00,1.5530
4336.00,1.5568
4335.00,1.5606
4334.00,1.5642
4333.00,1.5677
4332.00,1.5711
4331.00,1.5742
4330.00,1.5773
4329.00,1.5802
4328.00,1.5832
4327.00,1.5862
4326.00,1.5892
4325.00,1.5921
4324.00,1.5950
4323.00,1.5979
4322.00,1.6006
4321.00,1.6032
4320.00,1.6058
4319.00,1.6084
4318.00,1.6109
4317.00,1.6133
4316.00,1.6155
4315.00,1.6176
4314.00,1.6196
4313.00,1.6215
4312.00,1.6234
4311.00,1.6252
4310.00,1.6271
4309.00,1.6290
4308.00,1.6308
4307.00,1.6326
4306.00,1.6341
4305.00,1.6355
4304.00,1.6369
4303.00,1.6382
4302.00,1.6396
4301.00,1.6409
4300.00,1.6420
4299.00,1.6430
4298.00,1.6440
4297.00,1.6449
4296.00,1.6459
4295.00,1.6468
4294.00,1.6478
4293.00,1.6487
4292.00,1.6495
4291.00,1.6500
4290.00,1.6503
4289.00,1.6504
4288.00,1.6507
4287.00,1.6511
4286.00,1.6515
4285.00,1.6520
4284.00,1.6524
4283.00,1.6528
4282.00,1.6530
4281.00,1.6530
4280.00,1.6528
4279.00,1.6524
4278.00,1.6520
4277.00,1.6517
4276.00,1.6513
4275.00,1.6508
4274.00,1.6501
4273.00,1.6494
4272.00,1.6488
4271.00,1.6482
4270.00,1.6476
4269.00,1.6469
4268.00,1.6462
4267.00,1.6454
4266.00,1.6446
4265.00,1.6436
4264.00,1.6425
4263.00,1.6412
4262.00,1.6397
4261.00,1.6381
4260.00,1.6365
4259.00,1.6350
4258.00,1.6334
4257.00,1.6317
4256.00,1.6300
4255.00,1.6282
4254.00,1.6263
4253.00,1.6242
4252.00,1.6219
4251.00,1.6195
4250.00,1.6171
4249.00,1.6147
4248.00,1.6124
4247.00,1.6101
4246.00,1.6076
4245.00,1.6050
4244.00,1.6022
4243.00,1.5995
4242.00,1.5968
4241.00,1.5941
4240.00,1.5913
4239.00,1.5883
4238.00,1.5850
4237.00,1.5815
4236.00,1.5779
4235.00,1.5745
4234.00,1.5710
4233.00,1.5676
4232.00,1.5642
4231.00,1.5607
4230.00,1.5572
4229.00,1.5536
4228.00,1.5499
4227.00,1.5460
4226.00,1.5418
4225.00,1.5375
4224.00,1.5331
4223.00,1.5288
4222.00,1.5244
4221.00,1.5200
4220.00,1.5155
4219.00,1.5109
4218.00,1.5064
4217.00,1.5017
4216.00,1.4970
4215.00,1.4920
4214.00,1.4869
4213.00,1.4817
4212.00,1.4763
4211.00,1.4709
4210.00,1.4654
4209.00,1.4599
4208.00,1.4543
4207.00,1.4485
4206.00,1.4426
4205.00,1.4365
4204.00,1.4303
4203.00,1.4240
4202.00,1.4175
4201.00,1.4110
4200.00,1.4045
4199.00,1.3979
4198.00,1.3913
4197.00,1.3845
4196.00,1.3775
4195.00,1.3705
4194.00,1.3633
4193.00,1.3561
4192.00,1.3487
4191.00,1.3412
4190.00,1.3336
4189.00,1.3258
4188.00,1.3180
4187.00,1.3101
4186.00,1.3021
4185.00,1.2940
4184.00,1.2858
4183.00,1.2775
4182.00,1.2690
4181.00,1.2604
4180.00,1.2517
4179.00,1.2430
4178.00,1.2341
4177.00,1.2252
4176.00,1.2161
4175.00,1.2068
4174.00,1.1973
4173.00,1.1878
4172.00,1.1783
4171.00,1.1687
4170.00,1.1591
4169.00,1.1493
4168.00,1.1394
4167.00,1.1293
4166.00,1.1190
4165.00,1.1088
4164.00,1.0985
4163.00,1.0881
4162.00,1.0777
4161.00,1.0672
4160.00,1.0567
4159.00,1.0462
4158.00,1.0357
4157.00,1.0252
4156.00,1.0146
4155.00,1.0040
4154.00,0.9934
4153.00,0.9828
4152.00,0.9723
4151.00,0.9618
4150.00,0.9513
4149.00,0.9409
4148.00,0.9305
4147.00,0.9201
4146.00,0.9100
4145.00,0.9000
4144.00,0.8901
4143.00,0.8803
4142.00,0.8707
4141.00,0.8612
4140.00,0.8520
4139.00,0.8429
4138.00,0.8341
4137.00,0.8256
4136.00,0.8173
4135.00,0.8093
4134.00,0.8017
4133.00,0.7945
4132.00,0.7876
4131.00,0.7812
4130.00,0.7752
4129.00,0.7695
4128.00,0.7643
4127.00,0.7595
4126.00,0.7551
4125.00,0.7511
4124.00,0.7476
4123.00,0.7446
4122.00,0.7421
4121.00,0.7400
4120.00,0.7383
4119.00,0.7371
4118.00,0.7365
4117.00,0.7364
4116.00,0.7369
4115.00,0.7379
4114.00,0.7393
4113.00,0.7412
4112.00,0.7435
4111.00,0.7464
4110.00,0.7497
4109.00,0.7535
4108.00,0.7577
4107.00,0.7623
4106.00,0.7673
4105.00,0.7727
4104.00,0.7785
4103.00,0.7847
4102.00,0.7913
4101.00,0.7981
4100.00,0.8053
4099.00,0.8128
4098.00,0.8206
4097.00,0.8288
4096.00,0.8372
4095.00,0.8459
4094.00,0.8548
4093.00,0.8639
4092.00,0.8733
4091.00,0.8829
4090.00,0.8926
4089.00,0.9026
4088.00,0.9127
4087.00,0.9229
4086.00,0.9332
4085.00,0.9436
4084.00,0.9541
4083.00,0.9647
4082.00,0.9754
4081.00,0.9861
4080.00,0.9970
4079.00,1.0079
4078.00,1.0188
4077.00,1.0297
4076.00,1.0406
4075.00,1.0515
4074.00,1.0623
4073.00,1.0732
4072.00,1.0840
4071.00,1.0948
4070.00,1.1057
4069.00,1.1165
4068.00,1.1274
4067.00,1.1382
4066.00,1.1490
4065.00,1.1598
4064.00,1.1705
4063.00,1.1812
4062.00,1.1919
4061.00,1.2026
4060.00,1.2132
4059.00,1.2238
4058.00,1.2343
4057.00,1.2446
4056.00,1.2548
4055.00,1.2649
4054.00,1.2748
4053.00,1.2847
4052.00,1.2944
4051.00,1.3040
4050.00,1.3136
4049.00,1.3230
4048.00,1.3323
4047.00,1.3414
4046.00,1.3503
4045.00,1.3592
4044.00,1.3680
4043.00,1.3767
4042.00,1.3853
4041.00,1.3938
4040.00,1.4021
4039.00,1.4103
4038.00,1.4184
4037.00,1.4264
4036.00,1.4343
4035.00,1.4420
4034.00,1.4497
4033.00,1.4572
4032.00,1.4645
4031.00,1.4719
4030.00,1.4792
4029.00,1.4865
4028.00,1.4936
4027.00,1.5006
4026.00,1.5075
4025.00,1.5142
4024.00,1.5209
4023.00,1.5275
4022.00,1.5341
4021.00,1.5406
4020.00,1.5470
4019.00,1.5531
4018.00,1.5591
4017.00,1.5649
4016.00,1.5705
4015.00,1.5761
4014.00,1.5815
4013.00,1.5869
4012.00,1.5922
4011.00,1.5975
4010.00,1.6027
4009.00,1.6079
4008.00,1.6132
4007.00,1.6183
4006.00,1.6234
4005.00,1.6283
4004.00,1.6330
4003.00,1.6377
4002.00,1.6423
4001.00,1.6468
4000.00,1.6512
3999.00,1.6555
3998.00,1.6598
3997.00,1.6640
3996.00,1.6680
3995.00,1.6718
3994.00,1.6756
3993.00,1.6795
3992.00,1.6834
3991.00,1.6873
3990.00,1.6911
3989.00,1.6946
3988.00,1.6978
3987.00,1.7009
3986.00,1.7042
3985.00,1.7076
3984.00,1.7111
3983.00,1.7145
3982.00,1.7178
3981.00,1.7210
3980.00,1.7239
3979.00,1.7266
3978.00,1.7290
3977.00,1.7314
3976.00,1.7341
3975.00,1.7370
3974.00,1.7398
3973.00,1.7424
3972.00,1.7446
3971.00,1.7468
3970.00,1.7489
3969.00,1.7512
3968.00,1.7533
3967.00,1.7551
3966.00,1.7565
3965.00,1.7579
3964.00,1.7593
3963.00,1.7609
3962.00,1.7628
3961.00,1.7645
3960.00,1.7661
3959.00,1.7675
3958.00,1.7688
3957.00,1.7703
3956.00,1.7717
3955.00,1.7732
3954.00,1.7744
3953.00,1.7754
3952.00,1.7761
3951.00,1.7767
3950.00,1.7773
3949.00,1.7779
3948.00,1.7786
3947.00,1.7792
3946.00,1.7800
3945.00,1.7807
3944.00,1.7815
3943.00,1.7820
3942.00,1.7822
3941.00,1.7821
3940.00,1.7818
3939.00,1.7815
3938.00,1.7814
3937.00,1.7816
3936.00,1.7819
3935.00,1.7821
3934.00,1.7821
3933.00,1.7817
3932.00,1.7809
3931.00,1.7799
3930.00,1.7790
3929.00,1.7781
3928.00,1.7774
3927.00,1.7769
3926.00,1.7763
3925.00,1.7756
3924.00,1.7747
3923.00,1.7735
3922.00,1.7723
3921.00,1.7710
3920.00,1.7698
3919.00,1.7687
3918.00,1.7676
3917.00,1.7661
3916.00,1.7643
3915.00,1.7622
3914.00,1.7599
3913.00,1.7578
3912.00,1.7558
3911.00,1.7540
3910.00,1.7523
3909.00,1.7505
3908.00,1.7486
3907.00,1.7466
3906.00,1.7444
3905.00,1.7420
3904.00,1.7396
3903.00,1.7372
3902.00,1.7347
3901.00,1.7317
3900.00,1.7282
3899.00,1.7245
3898.00,1.7209
3897.00,1.7176
3896.00,1.7144
3895.00,1.7114
3894.00,1.7083
3893.00,1.7051
3892.00,1.7017
3891.00,1.6983
3890.00,1.6952
3889.00,1.6920
3888.00,1.6886
3887.00,1.6848
3886.00,1.6805
3885.00,1.6762
3884.00,1.6719
3883.00,1.6675
3882.00,1.6629
3881.00,1.6583
3880.00,1.6538
3879.00,1.6494
3878.00,1.6449
3877.00,1.6400
3876.00,1.6349
3875.00,1.6298
3874.00,1.6249
3873.00,1.6204
3872.00,1.6156
3871.00,1.6101
3870.00,1.6041
3869.00,1.5980
3868.00,1.5921
3867.00,1.5861
3866.00,1.5798
3865.00,1.5733
3864.00,1.5668
3863.00,1.5606
3862.00,1.5543
3861.00,1.5480
3860.00,1.5417
3859.00,1.5355
3858.00,1.5293
3857.00,1.5233
3856.00,1.5172
3855.00,1.5104
3854.00,1.5021
3853.00,1.4927
3852.00,1.4831
3851.00,1.4738
3850.00,1.4650
3849.00,1.4571
3848.00,1.4498
3847.00,1.4429
3846.00,1.4357
3845.00,1.4279
3844.00,1.4194
3843.00,1.4103
3842.00,1.4009
3841.00,1.3912
3840.00,1.3812
3839.00,1.3710
3838.00,1.3605
3837.00,1.3500
3836.00,1.3396
3835.00,1.3293
3834.00,1.3191
3833.00,1.3089
3832.00,1.2986
3831.00,1.2883
3830.00,1.2778
3829.00,1.2671
3828.00,1.2559
3827.00,1.2444
3826.00,1.2329
3825.00,1.2218
3824.00,1.2107
3823.00,1.1990
3822.00,1.1861
3821.00,1.1727
3820.00,1.1596
3819.00,1.1472
3818.00,1.1347
3817.00,1.1217
3816.00,1.1084
3815.00,1.0955
3814.00,1.0828
3813.00,1.0702
3812.00,1.0576
3811.00,1.0452
3810.00,1.0332
3809.00,1.0209
3808.00,1.0079
3807.00,0.9942
3806.00,0.9804
3805.00,0.9671
3804.00,0.9541
3803.00,0.9408
3802.00,0.9273
3801.00,0.9141
3800.00,0.9018
3799.00,0.8900
3798.00,0.8784
3797.00,0.8672
3796.00,0.8568
3795.00,0.8471
3794.00,0.8378
3793.00,0.8287
3792.00,0.8198
3791.00,0.8115
3790.00,0.8037
3789.00,0.7963
3788.00,0.7895
3787.00,0.7830
3786.00,0.7770
3785.00,0.7716
3784.00,0.7669
3783.00,0.7630
3782.00,0.7598
3781.00,0.7571
3780.00,0.7550
3779.00,0.7536
3778.00,0.7531
3777.00,0.7532
3776.00,0.7540
3775.00,0.7555
3774.00,0.7578
3773.00,0.7608
3772.00,0.7645
3771.00,0.7686
3770.00,0.7733
3769.00,0.7786
3768.00,0.7843
3767.00,0.7903
3766.00,0.7967
3765.00,0.8038
3764.00,0.8116
3763.00,0.8197
3762.00,0.8279
3761.00,0.8364
3760.00,0.8456
3759.00,0.8555
3758.00,0.8658
3757.00,0.8762
3756.00,0.8865
3755.00,0.8968
3754.00,0.9070
3753.00,0.9175
3752.00,0.9287
3751.00,0.9409
3750.00,0.9540
3749.00,0.9676
3748.00,0.9807
3747.00,0.9931
3746.00,1.0052
3745.00,1.0185
3744.00,1.0336
3743.00,1.0491
3742.00,1.0629
3741.00,1.0749
3740.00,1.0864
3739.00,1.0984
3738.00,1.1110
3737.00,1.1239
3736.00,1.1373
3735.00,1.1509
3734.00,1.1644
3733.00,1.1775
3732.00,1.1907
3731.00,1.2041
3730.00,1.2171
3729.00,1.2297
3728.00,1.2419
3727.00,1.2542
3726.00,1.2667
3725.00,1.2791
3724.00,1.2913
3723.00,1.3032
3722.00,1.3153
3721.00,1.3277
3720.00,1.3404
3719.00,1.3530
3718.00,1.3655
3717.00,1.3779
3716.00,1.3901
3715.00,1.4016
3714.00,1.4122
3713.00,1.4221
3712.00,1.4321
3711.00,1.4428
3710.00,1.4543
3709.00,1.4660
3708.00,1.4772
3707.00,1.4877
3706.00,1.4975
3705.00,1.5068
3704.00,1.5160
3703.00,1.5250
3702.00,1.5342
3701.00,1.5436
3700.00,1.5533
3699.00,1.5627
3698.00,1.5716
3697.00,1.5804
3696.00,1.5893
3695.00,1.5980
3694.00,1.6065
3693.00,1.6145
3692.00,1.6222
3691.00,1.6295
3690.00,1.6368
3689.00,1.6447
3688.00,1.6537
3687.00,1.6628
3686.00,1.6712
3685.00,1.6790
3684.00,1.6866
3683.00,1.6941
3682.00,1.7015
3681.00,1.7084
3680.00,1.7149
3679.00,1.7207
3678.00,1.7260
3677.00,1.7311
3676.00,1.7368
3675.00,1.7434
3674.00,1.7505
3673.00,1.7572
3672.00,1.7630
3671.00,1.7682
3670.00,1.7735
3669.00,1.7792
3668.00,1.7852
3667.00,1.7910
3666.00,1.7963
3665.00,1.8017
3664.00,1.8070
3663.00,1.8120
3662.00,1.8166
3661.00,1.8211
3660.00,1.8256
3659.00,1.8300
3658.00,1.8339
3657.00,1.8375
3656.00,1.8412
3655.00,1.8450
3654.00,1.8487
3653.00,1.8522
3652.00,1.8554
3651.00,1.8582
3650.00,1.8607
3649.00,1.8635
3648.00,1.8669
3647.00,1.8706
3646.00,1.8740
3645.00,1.8772
3644.00,1.8805
3643.00,1.8836
3642.00,1.8865
3641.00,1.8892
3640.00,1.8918
3639.00,1.8943
3638.00,1.8970
3637.00,1.8997
3636.00,1.9024
3635.00,1.9045
3634.00,1.9062
3633.00,1.9079
3632.00,1.9096
3631.00,1.9112
3630.00,1.9124
3629.00,1.9134
3628.00,1.9146
3627.00,1.9155
3626.00,1.9162
3625.00,1.9174
3624.00,1.9193
3623.00,1.9216
3622.00,1.9238
3621.00,1.9258
3620.00,1.9274
3619.00,1.9285
3618.00,1.9291
3617.00,1.9298
3616.00,1.9308
3615.00,1.9322
3614.00,1.9339
3613.00,1.9359
3612.00,1.9378
3611.00,1.9392
3610.00,1.9399
3609.00,1.9402
3608.00,1.9404
3607.00,1.9402
3606.00,1.9398
3605.00,1.9393
3604.00,1.9390
3603.00,1.9388
3602.00,1.9386
3601.00,1.9384
3600.00,1.9383
3599.00,1.9383
3598.00,1.9382
3597.00,1.9380
3596.00,1.9378
3595.00,1.9373
3594.00,1.9368
3593.00,1.9363
3592.00,1.9358
3591.00,1.9352
3590.00,1.9344
3589.00,1.9336
3588.00,1.9328
3587.00,1.9321
3586.00,1.9312
3585.00,1.9300
3584.00,1.9282
3583.00,1.9262
3582.00,1.9240
3581.00,1.9219
3580.00,1.9198
3579.00,1.9175
3578.00,1.9151
3577.00,1.9128
3576.00,1.9106
3575.00,1.9083
3574.00,1.9057
3573.00,1.9033
3572.00,1.9012
3571.00,1.8991
3570.00,1.8967
3569.00,1.8938
3568.00,1.8903
3567.00,1.8867
3566.00,1.8833
3565.00,1.8804
3564.00,1.8780
3563.00,1.8758
3562.00,1.8737
3561.00,1.8716
3560.00,1.8692
3559.00,1.8665
3558.00,1.8638
3557.00,1.8613
3556.00,1.8591
3555.00,1.8568
3554.00,1.8543
3553.00,1.8517
3552.00,1.8492
3551.00,1.8466
3550.00,1.8438
3549.00,1.8410
3548.00,1.8383
3547.00,1.8357
3546.00,1.8329
3545.00,1.8296
3544.00,1.8257
3543.00,1.8212
3542.00,1.8165
3541.00,1.8120
3540.00,1.8077
3539.00,1.8036
3538.00,1.7995
3537.00,1.7953
3536.00,1.7909
3535.00,1.7861
3534.00,1.7809
3533.00,1.7754
3532.00,1.7700
3531.00,1.7644
3530.00,1.7588
3529.00,1.7532
3528.00,1.7476
3527.00,1.7419
3526.00,1.7360
3525.00,1.7300
3524.00,1.7238
3523.00,1.7176
3522.00,1.7112
3521.00,1.7048
3520.00,1.6981
3519.00,1.6913
3518.00,1.6844
3517.00,1.6775
3516.00,1.6705
3515.00,1.6633
3514.00,1.6559
3513.00,1.6485
3512.00,1.6409
3511.00,1.6330
3510.00,1.6248
3509.00,1.6165
3508.00,1.6082
3507.00,1.5998
3506.00,1.5910
3505.00,1.5820
3504.00,1.5729
3503.00,1.5637
3502.00,1.5545
3501.00,1.5452
3500.00,1.5359
3499.00,1.5262
3498.00,1.5162
3497.00,1.5058
3496.00,1.4954
3495.00,1.4848
3494.00,1.4742
3493.00,1.4635
3492.00,1.4525
3491.00,1.4413
3490.00,1.4300
3489.00,1.4186
3488.00,1.4071
3487.00,1.3953
3486.00,1.3834
3485.00,1.3712
3484.00,1.3588
3483.00,1.3463
3482.00,1.3337
3481.00,1.3210
3480.00,1.3082
3479.00,1.2952
3478.00,1.2820
3477.00,1.2687
3476.00,1.2553
3475.00,1.2419
3474.00,1.2284
3473.00,1.2148
3472.00,1.2012
3471.00,1.1875
3470.00,1.1737
3469.00,1.1599
3468.00,1.1461
3467.00,1.1324
3466.00,1.1189
3465.00,1.1056
3464.00,1.0924
3463.00,1.0794
3462.00,1.0665
3461.00,1.0539
3460.00,1.0415
3459.00,1.0295
3458.00,1.0180
3457.00,1.0068
3456.00,0.9962
3455.00,0.9860
3454.00,0.9764
3453.00,0.9674
3452.00,0.9590
3451.00,0.9514
3450.00,0.9445
3449.00,0.9382
3448.00,0.9327
3447.00,0.9279
3446.00,0.9239
3445.00,0.9208
3444.00,0.9184
3443.00,0.9169
3442.00,0.9163
3441.00,0.9165
3440.00,0.9176
3439.00,0.9196
3438.00,0.9223
3437.00,0.9259
3436.00,0.9303
3435.00,0.9356
3434.00,0.9416
3433.00,0.9483
3432.00,0.9558
3431.00,0.9641
3430.00,0.9730
3429.00,0.9826
3428.00,0.9929
3427.00,1.0037
3426.00,1.0151
3425.00,1.0269
3424.00,1.0392
3423.00,1.0518
3422.00,1.0648
3421.00,1.0781
3420.00,1.0917
3419.00,1.1053
3418.00,1.1190
3417.00,1.1325
3416.00,1.1460
3415.00,1.1594
3414.00,1.1725
3413.00,1.1853
3412.00,1.1976
3411.00,1.2095
3410.00,1.2209
3409.00,1.2316
3408.00,1.2418
3407.00,1.2515
3406.00,1.2606
3405.00,1.2691
3404.00,1.2772
3403.00,1.2848
3402.00,1.2921
3401.00,1.2993
3400.00,1.3065
3399.00,1.3139
3398.00,1.3215
3397.00,1.3295
3396.00,1.3378
3395.00,1.3465
3394.00,1.3556
3393.00,1.3650
3392.00,1.3748
3391.00,1.3850
3390.00,1.3955
3389.00,1.4062
3388.00,1.4170
3387.00,1.4279
3386.00,1.4390
3385.00,1.4503
3384.00,1.4618
3383.00,1.4734
3382.00,1.4850
3381.00,1.4964
3380.00,1.5077
3379.00,1.5188
3378.00,1.5299
3377.00,1.5411
3376.00,1.5524
3375.00,1.5637
3374.00,1.5747
3373.00,1.5855
3372.00,1.5961
3371.00,1.6066
3370.00,1.6169
3369.00,1.6272
3368.00,1.6375
3367.00,1.6476
3366.00,1.6575
3365.00,1.6670
3364.00,1.6763
3363.00,1.6854
3362.00,1.6945
3361.00,1.7038
3360.00,1.7130
3359.00,1.7220
3358.00,1.7308
3357.00,1.7393
3356.00,1.7477
3355.00,1.7559
3354.00,1.7639
3353.00,1.7716
3352.00,1.7792
3351.00,1.7867
3350.00,1.7940
3349.00,1.8013
3348.00,1.8086
3347.00,1.8158
3346.00,1.8229
3345.00,1.8299
3344.00,1.8369
3343.00,1.8438
3342.00,1.8505
3341.00,1.8572
3340.00,1.8637
3339.00,1.8700
3338.00,1.8760
3337.00,1.8816
3336.00,1.8869
3335.00,1.8921
3334.00,1.8973
3333.00,1.9024
3332.00,1.9075
3331.00,1.9124
3330.00,1.9172
3329.00,1.9221
3328.00,1.9271
3327.00,1.9323
3326.00,1.9374
3325.00,1.9422
3324.00,1.9465
3323.00,1.9502
3322.00,1.9536
3321.00,1.9572
3320.00,1.9609
3319.00,1.9647
3318.00,1.9683
3317.00,1.9720
3316.00,1.9758
3315.00,1.9796
3314.00,1.9835
3313.00,1.9875
3312.00,1.9916
3311.00,1.9960
3310.00,2.0005
3309.00,2.0051
3308.00,2.0099
3307.00,2.0146
3306.00,2.0193
3305.00,2.0237
3304.00,2.0273
3303.00,2.0300
3302.00,2.0319
3301.00,2.0335
3300.00,2.0353
3299.00,2.0377
3298.00,2.0406
3297.00,2.0440
3296.00,2.0474
3295.00,2.0506
3294.00,2.0532
3293.00,2.0554
3292.00,2.0575
3291.00,2.0594
3290.00,2.0613
3289.00,2.0632
3288.00,2.0648
3287.00,2.0663
3286.00,2.0678
3285.00,2.0696
3284.00,2.0715
3283.00,2.0733
3282.00,2.0752
3281.00,2.0773
3280.00,2.0795
3279.00,2.0815
3278.00,2.0830
3277.00,2.0842
3276.00,2.0849
3275.00,2.0855
3274.00,2.0863
3273.00,2.0875
3272.00,2.0892
3271.00,2.0907
3270.00,2.0916
3269.00,2.0921
3268.00,2.0926
3267.00,2.0934
3266.00,2.0941
3265.00,2.0945
3264.00,2.0943
3263.00,2.0938
3262.00,2.0932
3261.00,2.0930
3260.00,2.0931
3259.00,2.0934
3258.00,2.0936
3257.00,2.0934
3256.00,2.0929
3255.00,2.0920
3254.00,2.0911
3253.00,2.0905
3252.00,2.0900
3251.00,2.0893
3250.00,2.0886
3249.00,2.0881
3248.00,2.0880
3247.00,2.0878
3246.00,2.0870
3245.00,2.0858
3244.00,2.0843
3243.00,2.0828
3242.00,2.0810
3241.00,2.0790
3240.00,2.0771
3239.00,2.0753
3238.00,2.0737
3237.00,2.0719
3236.00,2.0701
3235.00,2.0680
3234.00,2.0658
3233.00,2.0634
3232.00,2.0609
3231.00,2.0583
3230.00,2.0555
3229.00,2.0528
3228.00,2.0502
3227.00,2.0479
3226.00,2.0458
3225.00,2.0437
3224.00,2.0413
3223.00,2.0384
3222.00,2.0352
3221.00,2.0319
3220.00,2.0286
3219.00,2.0252
3218.00,2.0215
3217.00,2.0178
3216.00,2.0141
3215.00,2.0104
3214.00,2.0068
3213.00,2.0032
3212.00,1.9994
3211.00,1.9951
3210.00,1.9906
3209.00,1.9860
3208.00,1.9814
3207.00,1.9767
3206.00,1.9719
3205.00,1.9670
3204.00,1.9621
3203.00,1.9573
3202.00,1.9524
3201.00,1.9474
3200.00,1.9420
3199.00,1.9363
3198.00,1.9306
3197.00,1.9248
3196.00,1.9189
3195.00,1.9129
3194.00,1.9068
3193.00,1.9008
3192.00,1.8948
3191.00,1.8885
3190.00,1.8818
3189.00,1.8748
3188.00,1.8678
3187.00,1.8607
3186.00,1.8535
3185.00,1.8462
3184.00,1.8390
3183.00,1.8315
3182.00,1.8237
3181.00,1.8157
3180.00,1.8074
3179.00,1.7990
3178.00,1.7904
3177.00,1.7818
3176.00,1.7730
3175.00,1.7641
3174.00,1.7550
3173.00,1.7458
3172.00,1.7365
3171.00,1.7270
3170.00,1.7170
3169.00,1.7066
3168.00,1.6961
3167.00,1.6855
3166.00,1.6748
3165.00,1.6639
3164.00,1.6529
3163.00,1.6416
3162.00,1.6301
3161.00,1.6183
3160.00,1.6063
3159.00,1.5942
3158.00,1.5819
3157.00,1.5693
3156.00,1.5565
3155.00,1.5433
3154.00,1.5300
3153.00,1.5165
3152.00,1.5027
3151.00,1.4886
3150.00,1.4741
3149.00,1.4595
3148.00,1.4447
3147.00,1.4299
3146.00,1.4148
3145.00,1.3994
3144.00,1.3838
3143.00,1.3679
3142.00,1.3518
3141.00,1.3355
3140.00,1.3190
3139.00,1.3023
3138.00,1.2855
3137.00,1.2686
3136.00,1.2516
3135.00,1.2345
3134.00,1.2172
3133.00,1.2000
3132.00,1.1829
3131.00,1.1659
3130.00,1.1491
3129.00,1.1325
3128.00,1.1161
3127.00,1.0999
3126.00,1.0841
3125.00,1.0688
3124.00,1.0540
3123.00,1.0397
3122.00,1.0261
3121.00,1.0131
3120.00,1.0010
3119.00,0.9897
3118.00,0.9794
3117.00,0.9700
3116.00,0.9618
3115.00,0.9547
3114.00,0.9487
3113.00,0.9439
3112.00,0.9403
3111.00,0.9379
3110.00,0.9368
3109.00,0.9368
3108.00,0.9382
3107.00,0.9407
3106.00,0.9444
3105.00,0.9492
3104.00,0.9550
3103.00,0.9620
3102.00,0.9699
3101.00,0.9789
3100.00,0.9888
3099.00,0.9996
3098.00,1.0113
3097.00,1.0238
3096.00,1.0371
3095.00,1.0511
3094.00,1.0658
3093.00,1.0811
3092.00,1.0970
3091.00,1.1133
3090.00,1.1300
3089.00,1.1472
3088.00,1.1647
3087.00,1.1825
3086.00,1.2006
3085.00,1.2188
3084.00,1.2372
3083.00,1.2557
3082.00,1.2741
3081.00,1.2926
3080.00,1.3111
3079.00,1.3297
3078.00,1.3483
3077.00,1.3670
3076.00,1.3856
3075.00,1.4041
3074.00,1.4225
3073.00,1.4408
3072.00,1.4589
3071.00,1.4768
3070.00,1.4944
3069.00,1.5117
3068.00,1.5289
3067.00,1.5458
3066.00,1.5625
3065.00,1.5790
3064.00,1.5953
3063.00,1.6113
3062.00,1.6270
3061.00,1.6425
3060.00,1.6576
3059.00,1.6725
3058.00,1.6871
3057.00,1.7014
3056.00,1.7155
3055.00,1.7294
3054.00,1.7431
3053.00,1.7567
3052.00,1.7699
3051.00,1.7829
3050.00,1.7956
3049.00,1.8080
3048.00,1.8203
3047.00,1.8324
3046.00,1.8444
3045.00,1.8563
3044.00,1.8681
3043.00,1.8796
3042.00,1.8910
3041.00,1.9023
3040.00,1.9136
3039.00,1.9247
3038.00,1.9356
3037.00,1.9464
3036.00,1.9571
3035.00,1.9678
3034.00,1.9782
3033.00,1.9883
3032.00,1.9980
3031.00,2.0075
3030.00,2.0168
3029.00,2.0261
3028.00,2.0353
3027.00,2.0444
3026.00,2.0531
3025.00,2.0615
3024.00,2.0698
3023.00,2.0780
3022.00,2.0862
3021.00,2.0943
3020.00,2.1020
3019.00,2.1094
3018.00,2.1166
3017.00,2.1237
3016.00,2.1309
3015.00,2.1381
3014.00,2.1453
3013.00,2.1525
3012.00,2.1595
3011.00,2.1662
3010.00,2.1724
3009.00,2.1784
3008.00,2.1843
3007.00,2.1902
3006.00,2.1959
3005.00,2.2015
3004.00,2.2069
3003.00,2.2122
3002.00,2.2176
3001.00,2.2232
3000.00,2.2286
2999.00,2.2334
2998.00,2.2378
2997.00,2.2421
2996.00,2.2465
2995.00,2.2507
2994.00,2.2545
2993.00,2.2583
2992.00,2.2621
2991.00,2.2658
2990.00,2.2690
2989.00,2.2717
2988.00,2.2739
2987.00,2.2757
2986.00,2.2772
2985.00,2.2788
2984.00,2.2807
2983.00,2.2829
2982.00,2.2853
2981.00,2.2875
2980.00,2.2896
2979.00,2.2916
2978.00,2.2938
2977.00,2.2967
2976.00,2.3004
2975.00,2.3056
2974.00,2.3123
2973.00,2.3209
2972.00,2.3313
2971.00,2.3436
2970.00,2.3586
2969.00,2.3773
2968.00,2.4000
2967.00,2.4266
2966.00,2.4561
2965.00,2.4879
2964.00,2.5213
2963.00,2.5562
2962.00,2.5929
2961.00,2.6310
2960.00,2.6690
2959.00,2.7042
2958.00,2.7353
2957.00,2.7629
2956.00,2.7887
2955.00,2.8144
2954.00,2.8413
2953.00,2.8700
2952.00,2.8996
2951.00,2.9286
2950.00,2.9568
2949.00,2.9859
2948.00,3.0174
2947.00,3.0510
2946.00,3.0852
2945.00,3.1192
2944.00,3.1509
2943.00,3.1770
2942.00,3.1962
2941.00,3.2124
2940.00,3.2294
2939.00,3.2458
2938.00,3.2549
2937.00,3.2521
2936.00,3.2402
2935.00,3.2248
2934.00,3.2082
2933.00,3.1885
2932.00,3.1623
2931.00,3.1282
2930.00,3.0881
2929.00,3.0445
2928.00,2.9993
2927.00,2.9539
2926.00,2.9088
2925.00,2.8635
2924.00,2.8180
2923.00,2.7733
2922.00,2.7314
2921.00,2.6934
2920.00,2.6586
2919.00,2.6254
2918.00,2.5937
2917.00,2.5645
2916.00,2.5392
2915.00,2.5183
2914.00,2.5014
2913.00,2.4878
2912.00,2.4770
2911.00,2.4687
2910.00,2.4627
2909.00,2.4584
2908.00,2.4550
2907.00,2.4521
2906.00,2.4497
2905.00,2.4479
2904.00,2.4465
2903.00,2.4449
2902.00,2.4431
2901.00,2.4415
2900.00,2.4400
2899.00,2.4387
2898.00,2.4375
2897.00,2.4365
2896.00,2.4357
2895.00,2.4348
2894.00,2.4340
2893.00,2.4334
2892.00,2.4332
2891.00,2.4330
2890.00,2.4327
2889.00,2.4322
2888.00,2.4314
2887.00,2.4308
2886.00,2.4309
2885.00,2.4321
2884.00,2.4344
2883.00,2.4372
2882.00,2.4402
2881.00,2.4436
2880.00,2.4476
2879.00,2.4523
2878.00,2.4576
2877.00,2.4639
2876.00,2.4721
2875.00,2.4831
2874.00,2.4968
2873.00,2.5128
2872.00,2.5306
2871.00,2.5501
2870.00,2.5716
2869.00,2.5951
2868.00,2.6203
2867.00,2.6464
2866.00,2.6725
2865.00,2.6975
2864.00,2.7184
2863.00,2.7316
2862.00,2.7344
2861.00,2.7270
2860.00,2.7113
2859.00,2.6895
2858.00,2.6634
2857.00,2.6350
2856.00,2.6060
2855.00,2.5774
2854.00,2.5497
2853.00,2.5235
2852.00,2.4988
2851.00,2.4760
2850.00,2.4558
2849.00,2.4391
2848.00,2.4263
2847.00,2.4167
2846.00,2.4090
2845.00,2.4017
2844.00,2.3946
2843.00,2.3880
2842.00,2.3823
2841.00,2.3775
2840.00,2.3734
2839.00,2.3697
2838.00,2.3662
2837.00,2.3628
2836.00,2.3594
2835.00,2.3557
2834.00,2.3517
2833.00,2.3475
2832.00,2.3436
2831.00,2.3401
2830.00,2.3369
2829.00,2.3337
2828.00,2.3303
2827.00,2.3264
2826.00,2.3221
2825.00,2.3178
2824.00,2.3137
2823.00,2.3096
2822.00,2.3055
2821.00,2.3010
2820.00,2.2959
2819.00,2.2900
2818.00,2.2835
2817.00,2.2766
2816.00,2.2698
2815.00,2.2633
2814.00,2.2568
2813.00,2.2503
2812.00,2.2436
2811.00,2.2366
2810.00,2.2290
2809.00,2.2210
2808.00,2.2130
2807.00,2.2049
2806.00,2.1970
2805.00,2.1892
2804.00,2.1812
2803.00,2.1730
2802.00,2.1648
2801.00,2.1567
2800.00,2.1486
2799.00,2.1406
2798.00,2.1325
2797.00,2.1242
2796.00,2.1156
2795.00,2.1067
2794.00,2.0977
2793.00,2.0888
2792.00,2.0801
2791.00,2.0712
2790.00,2.0614
2789.00,2.0506
2788.00,2.0389
2787.00,2.0268
2786.00,2.0147
2785.00,2.0029
2784.00,1.9912
2783.00,1.9795
2782.00,1.9676
2781.00,1.9551
2780.00,1.9420
2779.00,1.9286
2778.00,1.9151
2777.00,1.9016
2776.00,1.8878
2775.00,1.8737
2774.00,1.8593
2773.00,1.8448
2772.00,1.8301
2771.00,1.8151
2770.00,1.7997
2769.00,1.7840
2768.00,1.7680
2767.00,1.7516
2766.00,1.7349
2765.00,1.7181
2764.00,1.7012
2763.00,1.6840
2762.00,1.6666
2761.00,1.6487
2760.00,1.6305
2759.00,1.6118
2758.00,1.5925
2757.00,1.5725
2756.00,1.5519
2755.00,1.5307
2754.00,1.5089
2753.00,1.4865
2752.00,1.4637
2751.00,1.4405
2750.00,1.4172
2749.00,1.3938
2748.00,1.3703
2747.00,1.3467
2746.00,1.3230
2745.00,1.2995
2744.00,1.2761
2743.00,1.2531
2742.00,1.2305
2741.00,1.2084
2740.00,1.1869
2739.00,1.1663
2738.00,1.1466
2737.00,1.1279
2736.00,1.1104
2735.00,1.0942
2734.00,1.0792
2733.00,1.0657
2732.00,1.0536
2731.00,1.0430
2730.00,1.0340
2729.00,1.0267
2728.00,1.0210
2727.00,1.0171
2726.00,1.0150
2725.00,1.0148
2724.00,1.0166
2723.00,1.0203
2722.00,1.0260
2721.00,1.0334
2720.00,1.0427
2719.00,1.0535
2718.00,1.0657
2717.00,1.0792
2716.00,1.0937
2715.00,1.1093
2714.00,1.1256
2713.00,1.1428
2712.00,1.1607
2711.00,1.1793
2710.00,1.1986
2709.00,1.2184
2708.00,1.2388
2707.00,1.2596
2706.00,1.2807
2705.00,1.3022
2704.00,1.3240
2703.00,1.3459
2702.00,1.3679
2701.00,1.3900
2700.00,1.4121
2699.00,1.4342
2698.00,1.4563
2697.00,1.4781
2696.00,1.4997
2695.00,1.5211
2694.00,1.5424
2693.00,1.5636
2692.00,1.5847
2691.00,1.6056
2690.00,1.6262
2689.00,1.6466
2688.00,1.6668
2687.00,1.6868
2686.00,1.7065
2685.00,1.7262
2684.00,1.7455
2683.00,1.7644
2682.00,1.7827
2681.00,1.8004
2680.00,1.8173
2679.00,1.8333
2678.00,1.8483
2677.00,1.8622
2676.00,1.8754
2675.00,1.8878
2674.00,1.8996
2673.00,1.9108
2672.00,1.9216
2671.00,1.9321
2670.00,1.9423
2669.00,1.9523
2668.00,1.9618
2667.00,1.9708
2666.00,1.9796
2665.00,1.9885
2664.00,1.9979
2663.00,2.0080
2662.00,2.0186
2661.00,2.0296
2660.00,2.0406
2659.00,2.0513
2658.00,2.0620
2657.00,2.0728
2656.00,2.0838
2655.00,2.0948
2654.00,2.1053
2653.00,2.1153
2652.00,2.1248
2651.00,2.1338
2650.00,2.1425
2649.00,2.1512
2648.00,2.1597
2647.00,2.1679
2646.00,2.1758
2645.00,2.1838
2644.00,2.1922
2643.00,2.2006
2642.00,2.2088
2641.00,2.2165
2640.00,2.2239
2639.00,2.2315
2638.00,2.2396
2637.00,2.2480
2636.00,2.2563
2635.00,2.2639
2634.00,2.2705
2633.00,2.2764
2632.00,2.2824
2631.00,2.2891
2630.00,2.2964
2629.00,2.3039
2628.00,2.3108
2627.00,2.3171
2626.00,2.3230
2625.00,2.3288
2624.00,2.3348
2623.00,2.3409
2622.00,2.3469
2621.00,2.3526
2620.00,2.3578
2619.00,2.3627
2618.00,2.3680
2617.00,2.3737
2616.00,2.3795
2615.00,2.3847
2614.00,2.3890
2613.00,2.3929
2612.00,2.3972
2611.00,2.4022
2610.00,2.4074
2609.00,2.4120
2608.00,2.4154
2607.00,2.4181
2606.00,2.4210
2605.00,2.4248
2604.00,2.4293
2603.00,2.4337
2602.00,2.4376
2601.00,2.4409
2600.00,2.4437
2599.00,2.4462
2598.00,2.4486
2597.00,2.4512
2596.00,2.4546
2595.00,2.4587
2594.00,2.4632
2593.00,2.4673
2592.00,2.4703
2591.00,2.4721
2590.00,2.4733
2589.00,2.4748
2588.00,2.4773
2587.00,2.4803
2586.00,2.4831
2585.00,2.4855
2584.00,2.4876
2583.00,2.4900
2582.00,2.4926
2581.00,2.4953
2580.00,2.4976
2579.00,2.4995
2578.00,2.5013
2577.00,2.5028
2576.00,2.5042
2575.00,2.5055
2574.00,2.5069
2573.00,2.5085
2572.00,2.5103
2571.00,2.5120
2570.00,2.5136
2569.00,2.5150
2568.00,2.5160
2567.00,2.5164
2566.00,2.5165
2565.00,2.5168
2564.00,2.5175
2563.00,2.5185
2562.00,2.5196
2561.00,2.5208
2560.00,2.5222
2559.00,2.5235
2558.00,2.5243
2557.00,2.5242
2556.00,2.5233
2555.00,2.5222
2554.00,2.5214
2553.00,2.5211
2552.00,2.5208
2551.00,2.5204
2550.00,2.5202
2549.00,2.5202
2548.00,2.5200
2547.00,2.5191
2546.00,2.5178
2545.00,2.5166
2544.00,2.5158
2543.00,2.5150
2542.00,2.5141
2541.00,2.5133
2540.00,2.5124
2539.00,2.5113
2538.00,2.5099
2537.00,2.5085
2536.00,2.5074
2535.00,2.5062
2534.00,2.5048
2533.00,2.5032
2532.00,2.5015
2531.00,2.4993
2530.00,2.4965
2529.00,2.4936
2528.00,2.4913
2527.00,2.4901
2526.00,2.4895
2525.00,2.4888
2524.00,2.4876
2523.00,2.4861
2522.00,2.4843
2521.00,2.4821
2520.00,2.4789
2519.00,2.4747
2518.00,2.4698
2517.00,2.4652
2516.00,2.4616
2515.00,2.4589
2514.00,2.4564
2513.00,2.4535
2512.00,2.4500
2511.00,2.4461
2510.00,2.4423
2509.00,2.4386
2508.00,2.4347
2507.00,2.4308
2506.00,2.4269
2505.00,2.4231
2504.00,2.4190
2503.00,2.4143
2502.00,2.4092
2501.00,2.4039
2500.00,2.3988
2499.00,2.3942
2498.00,2.3900
2497.00,2.3859
2496.00,2.3811
2495.00,2.3754
2494.00,2.3692
2493.00,2.3633
2492.00,2.3576
2491.00,2.3520
2490.00,2.3462
2489.00,2.3403
2488.00,2.3343
2487.00,2.3279
2486.00,2.3209
2485.00,2.3136
2484.00,2.3061
2483.00,2.2987
2482.00,2.2914
2481.00,2.2843
2480.00,2.2773
2479.00,2.2706
2478.00,2.2640
2477.00,2.2570
2476.00,2.2492
2475.00,2.2405
2474.00,2.2315
2473.00,2.2227
2472.00,2.2141
2471.00,2.2054
2470.00,2.1963
2469.00,2.1870
2468.00,2.1776
2467.00,2.1683
2466.00,2.1589
2465.00,2.1494
2464.00,2.1399
2463.00,2.1303
2462.00,2.1204
2461.00,2.1102
2460.00,2.0999
2459.00,2.0893
2458.00,2.0783
2457.00,2.0669
2456.00,2.0549
2455.00,2.0427
2454.00,2.0302
2453.00,2.0174
2452.00,2.0043
2451.00,1.9910
2450.00,1.9775
2449.00,1.9638
2448.00,1.9499
2447.00,1.9356
2446.00,1.9209
2445.00,1.9059
2444.00,1.8905
2443.00,1.8748
2442.00,1.8587
2441.00,1.8422
2440.00,1.8254
2439.00,1.8082
2438.00,1.7905
2437.00,1.7724
2436.00,1.7536
2435.00,1.7344
2434.00,1.7148
2433.00,1.6951
2432.00,1.6753
2431.00,1.6553
2430.00,1.6351
2429.00,1.6146
2428.00,1.5939
2427.00,1.5730
2426.00,1.5519
2425.00,1.5306
2424.00,1.5090
2423.00,1.4870
2422.00,1.4649
2421.00,1.4425
2420.00,1.4202
2419.00,1.3977
2418.00,1.3751
2417.00,1.3524
2416.00,1.3297
2415.00,1.3073
2414.00,1.2852
2413.00,1.2638
2412.00,1.2432
2411.00,1.2235
2410.00,1.2050
2409.00,1.1877
2408.00,1.1718
2407.00,1.1574
2406.00,1.1448
2405.00,1.1339
2404.00,1.1250
2403.00,1.1182
2402.00,1.1135
2401.00,1.1109
2400.00,1.1106
2399.00,1.1124
2398.00,1.1163
2397.00,1.1222
2396.00,1.1300
2395.00,1.1395
2394.00,1.1507
2393.00,1.1633
2392.00,1.1774
2391.00,1.1928
2390.00,1.2094
2389.00,1.2271
2388.00,1.2459
2387.00,1.2655
2386.00,1.2859
2385.00,1.3068
2384.00,1.3280
2383.00,1.3494
2382.00,1.3707
2381.00,1.3918
2380.00,1.4124
2379.00,1.4324
2378.00,1.4516
2377.00,1.4699
2376.00,1.4873
2375.00,1.5042
2374.00,1.5208
2373.00,1.5374
2372.00,1.5542
2371.00,1.5714
2370.00,1.5893
2369.00,1.6076
2368.00,1.6260
2367.00,1.6444
2366.00,1.6627
2365.00,1.6805
2364.00,1.6979
2363.00,1.7151
2362.00,1.7317
2361.00,1.7478
2360.00,1.7638
2359.00,1.7799
2358.00,1.7963
2357.00,1.8128
2356.00,1.8289
2355.00,1.8455
2354.00,1.8629
2353.00,1.8817
2352.00,1.9024
2351.00,1.9243
2350.00,1.9443
2349.00,1.9582
2348.00,1.9671
2347.00,1.9758
2346.00,1.9887
2345.00,2.0057
2344.00,2.0222
2343.00,2.0363
2342.00,2.0485
2341.00,2.0621
2340.00,2.0782
2339.00,2.0949
2338.00,2.1116
2337.00,2.1278
2336.00,2.1438
2335.00,2.1588
2334.00,2.1733
2333.00,2.1870
2332.00,2.2010
2331.00,2.2149
2330.00,2.2293
2329.00,2.2427
2328.00,2.2560
2327.00,2.2678
2326.00,2.2787
2325.00,2.2889
2324.00,2.2993
2323.00,2.3109
2322.00,2.3225
2321.00,2.3343
2320.00,2.3460
2319.00,2.3579
2318.00,2.3701
2317.00,2.3819
2316.00,2.3936
2315.00,2.4046
2314.00,2.4154
2313.00,2.4249
2312.00,2.4340
2311.00,2.4430
2310.00,2.4528
2309.00,2.4629
2308.00,2.4727
2307.00,2.4815
2306.00,2.4898
2305.00,2.4976
2304.00,2.5051
2303.00,2.5121
2302.00,2.5189
2301.00,2.5254
2300.00,2.5321
2299.00,2.5381
2298.00,2.5435
2297.00,2.5485
2296.00,2.5540
2295.00,2.5597
2294.00,2.5651
2293.00,2.5698
2292.00,2.5744
2291.00,2.5794
2290.00,2.5850
2289.00,2.5909
2288.00,2.5967
2287.00,2.6026
2286.00,2.6084
2285.00,2.6136
2284.00,2.6177
2283.00,2.6211
2282.00,2.6247
2281.00,2.6287
2280.00,2.6325
2279.00,2.6355
2278.00,2.6383
2277.00,2.6419
2276.00,2.6471
2275.00,2.6529
2274.00,2.6580
2273.00,2.6615
2272.00,2.6637
2271.00,2.6657
2270.00,2.6681
2269.00,2.6707
2268.00,2.6736
2267.00,2.6773
2266.00,2.6823
2265.00,2.6881
2264.00,2.6932
2263.00,2.6964
2262.00,2.6981
2261.00,2.6992
2260.00,2.7007
2259.00,2.7029
2258.00,2.7056
2257.00,2.7085
2256.00,2.7108
2255.00,2.7124
2254.00,2.7140
2253.00,2.7161
2252.00,2.7187
2251.00,2.7214
2250.00,2.7245
2249.00,2.7282
2248.00,2.7322
2247.00,2.7355
2246.00,2.7369
2245.00,2.7365
2244.00,2.7353
2243.00,2.7348
2242.00,2.7361
2241.00,2.7394
2240.00,2.7430
2239.00,2.7451
2238.00,2.7454
2237.00,2.7450
2236.00,2.7452
2235.00,2.7464
2234.00,2.7478
2233.00,2.7491
2232.00,2.7501
2231.00,2.7508
2230.00,2.7511
2229.00,2.7513
2228.00,2.7523
2227.00,2.7540
2226.00,2.7556
2225.00,2.7562
2224.00,2.7556
2223.00,2.7549
2222.00,2.7548
2221.00,2.7555
2220.00,2.7565
2219.00,2.7575
2218.00,2.7583
2217.00,2.7585
2216.00,2.7575
2215.00,2.7556
2214.00,2.7533
2213.00,2.7513
2212.00,2.7499
2211.00,2.7486
2210.00,2.7472
2209.00,2.7455
2208.00,2.7437
2207.00,2.7421
2206.00,2.7409
2205.00,2.7401
2204.00,2.7395
2203.00,2.7386
2202.00,2.7375
2201.00,2.7366
2200.00,2.7363
2199.00,2.7361
2198.00,2.7352
2197.00,2.7328
2196.00,2.7296
2195.00,2.7267
2194.00,2.7239
2193.00,2.7206
2192.00,2.7166
2191.00,2.7129
2190.00,2.7107
2189.00,2.7096
2188.00,2.7081
2187.00,2.7057
2186.00,2.7028
2185.00,2.7003
2184.00,2.6982
2183.00,2.6959
2182.00,2.6931
2181.00,2.6900
2180.00,2.6872
2179.00,2.6846
2178.00,2.6815
2177.00,2.6774
2176.00,2.6723
2175.00,2.6675
2174.00,2.6636
2173.00,2.6606
2172.00,2.6581
2171.00,2.6560
2170.00,2.6539
2169.00,2.6505
2168.00,2.6451
2167.00,2.6381
2166.00,2.6311
2165.00,2.6253
2164.00,2.6203
2163.00,2.6158
2162.00,2.6112
2161.00,2.6068
2160.00,2.6023
2159.00,2.5977
2158.00,2.5928
2157.00,2.5870
2156.00,2.5797
2155.00,2.5712
2154.00,2.5626
2153.00,2.5553
2152.00,2.5495
2151.00,2.5441
2150.00,2.5378
2149.00,2.5304
2148.00,2.5224
2147.00,2.5148
2146.00,2.5077
2145.00,2.5005
2144.00,2.4926
2143.00,2.4839
2142.00,2.4752
2141.00,2.4665
2140.00,2.4576
2139.00,2.4482
2138.00,2.4389
2137.00,2.4303
2136.00,2.4221
2135.00,2.4136
2134.00,2.4045
2133.00,2.3950
2132.00,2.3853
2131.00,2.3755
2130.00,2.3656
2129.00,2.3554
2128.00,2.3450
2127.00,2.3341
2126.00,2.3228
2125.00,2.3110
2124.00,2.2988
2123.00,2.2864
2122.00,2.2739
2121.00,2.2613
2120.00,2.2485
2119.00,2.2354
2118.00,2.2219
2117.00,2.2081
2116.00,2.1939
2115.00,2.1794
2114.00,2.1646
2113.00,2.1495
2112.00,2.1338
2111.00,2.1173
2110.00,2.1003
2109.00,2.0831
2108.00,2.0659
2107.00,2.0485
2106.00,2.0308
2105.00,2.0126
2104.00,1.9939
2103.00,1.9746
2102.00,1.9549
2101.00,1.9349
2100.00,1.9148
2099.00,1.8944
2098.00,1.8736
2097.00,1.8523
2096.00,1.8307
2095.00,1.8087
2094.00,1.7862
2093.00,1.7634
2092.00,1.7399
2091.00,1.7158
2090.00,1.6912
2089.00,1.6663
2088.00,1.6412
2087.00,1.6156
2086.00,1.5894
2085.00,1.5627
2084.00,1.5358
2083.00,1.5088
2082.00,1.4822
2081.00,1.4562
2080.00,1.4311
2079.00,1.4072
2078.00,1.3847
2077.00,1.3642
2076.00,1.3459
2075.00,1.3301
2074.00,1.3170
2073.00,1.3068
2072.00,1.2997
2071.00,1.2955
2070.00,1.2944
2069.00,1.2960
2068.00,1.3003
2067.00,1.3068
2066.00,1.3152
2065.00,1.3252
2064.00,1.3362
2063.00,1.3480
2062.00,1.3599
2061.00,1.3721
2060.00,1.3845
2059.00,1.3973
2058.00,1.4110
2057.00,1.4257
2056.00,1.4416
2055.00,1.4590
2054.00,1.4777
2053.00,1.4979
2052.00,1.5194
2051.00,1.5422
2050.00,1.5659
2049.00,1.5905
2048.00,1.6159
2047.00,1.6418
2046.00,1.6681
2045.00,1.6947
2044.00,1.7214
2043.00,1.7480
2042.00,1.7745
2041.00,1.8008
2040.00,1.8270
2039.00,1.8528
2038.00,1.8781
2037.00,1.9030
2036.00,1.9274
2035.00,1.9512
2034.00,1.9745
2033.00,1.9972
2032.00,2.0194
2031.00,2.0412
2030.00,2.0626
2029.00,2.0837
2028.00,2.1047
2027.00,2.1252
2026.00,2.1450
2025.00,2.1638
2024.00,2.1818
2023.00,2.1993
2022.00,2.2165
2021.00,2.2338
2020.00,2.2508
2019.00,2.2672
2018.00,2.2831
2017.00,2.2991
2016.00,2.3150
2015.00,2.3305
2014.00,2.3452
2013.00,2.3589
2012.00,2.3722
2011.00,2.3855
2010.00,2.3991
2009.00,2.4129
2008.00,2.4265
2007.00,2.4394
2006.00,2.4519
2005.00,2.4644
2004.00,2.4771
2003.00,2.4896
2002.00,2.5017
2001.00,2.5132
2000.00,2.5240
1999.00,2.5348
1998.00,2.5460
1997.00,2.5577
1996.00,2.5694
1995.00,2.5802
1994.00,2.5898
1993.00,2.5985
1992.00,2.6072
1991.00,2.6168
1990.00,2.6275
1989.00,2.6385
1988.00,2.6490
1987.00,2.6590
1986.00,2.6687
1985.00,2.6782
1984.00,2.6869
1983.00,2.6952
1982.00,2.7040
1981.00,2.7134
1980.00,2.7222
1979.00,2.7287
1978.00,2.7327
1977.00,2.7360
1976.00,2.7406
1975.00,2.7475
1974.00,2.7559
1973.00,2.7645
1972.00,2.7725
1971.00,2.7798
1970.00,2.7862
1969.00,2.7918
1968.00,2.7966
1967.00,2.8013
1966.00,2.8062
1965.00,2.8116
1964.00,2.8177
1963.00,2.8245
1962.00,2.8314
1961.00,2.8377
1960.00,2.8432
1959.00,2.8483
1958.00,2.8536
1957.00,2.8588
1956.00,2.8635
1955.00,2.8684
1954.00,2.8739
1953.00,2.8798
1952.00,2.8851
1951.00,2.8893
1950.00,2.8929
1949.00,2.8963
1948.00,2.9003
1947.00,2.9053
1946.00,2.9104
1945.00,2.9141
1944.00,2.9155
1943.00,2.9157
1942.00,2.9167
1941.00,2.9194
1940.00,2.9232
1939.00,2.9270
1938.00,2.9303
1937.00,2.9333
1936.00,2.9368
1935.00,2.9414
1934.00,2.9467
1933.00,2.9511
1932.00,2.9536
1931.00,2.9552
1930.00,2.9574
1929.00,2.9613
1928.00,2.9662
1927.00,2.9708
1926.00,2.9739
1925.00,2.9750
1924.00,2.9755
1923.00,2.9774
1922.00,2.9811
1921.00,2.9854
1920.00,2.9889
1919.00,2.9911
1918.00,2.9919
1917.00,2.9913
1916.00,2.9907
1915.00,2.9926
1914.00,2.9971
1913.00,3.0010
1912.00,3.0015
1911.00,2.9995
1910.00,2.9985
1909.00,3.0001
1908.00,3.0025
1907.00,3.0032
1906.00,3.0016
1905.00,2.9995
1904.00,2.9988
1903.00,3.0002
1902.00,3.0025
1901.00,3.0033
1900.00,3.0023
1899.00,3.0015
1898.00,3.0025
1897.00,3.0046
1896.00,3.0057
1895.00,3.0052
1894.00,3.0040
1893.00,3.0028
1892.00,3.0016
1891.00,3.0011
1890.00,3.0017
1889.00,3.0027
1888.00,3.0018
1887.00,2.9977
1886.00,2.9918
1885.00,2.9868
1884.00,2.9852
1883.00,2.9871
1882.00,2.9902
1881.00,2.9913
1880.00,2.9900
1879.00,2.9889
1878.00,2.9895
1877.00,2.9905
1876.00,2.9896
1875.00,2.9869
1874.00,2.9840
1873.00,2.9813
1872.00,2.9776
1871.00,2.9726
1870.00,2.9674
1869.00,2.9637
1868.00,2.9622
1867.00,2.9620
1866.00,2.9613
1865.00,2.9588
1864.00,2.9546
1863.00,2.9496
1862.00,2.9440
1861.00,2.9380
1860.00,2.9327
1859.00,2.9296
1858.00,2.9287
1857.00,2.9278
1856.00,2.9246
1855.00,2.9189
1854.00,2.9122
1853.00,2.9058
1852.00,2.8999
1851.00,2.8948
1850.00,2.8897
1849.00,2.8836
1848.00,2.8763
1847.00,2.8693
1846.00,2.8636
1845.00,2.8584
1844.00,2.8520
1843.00,2.8442
1842.00,2.8365
1841.00,2.8299
1840.00,2.8241
1839.00,2.8182
1838.00,2.8110
1837.00,2.8023
1836.00,2.7929
1835.00,2.7838
1834.00,2.7749
1833.00,2.7656
1832.00,2.7557
1831.00,2.7454
1830.00,2.7351
1829.00,2.7248
1828.00,2.7148
1827.00,2.7052
1826.00,2.6952
1825.00,2.6835
1824.00,2.6705
1823.00,2.6576
1822.00,2.6453
1821.00,2.6324
1820.00,2.6180
1819.00,2.6027
1818.00,2.5878
1817.00,2.5740
1816.00,2.5615
1815.00,2.5496
1814.00,2.5369
1813.00,2.5228
1812.00,2.5083
1811.00,2.4948
1810.00,2.4825
1809.00,2.4705
1808.00,2.4588
1807.00,2.4480
1806.00,2.4374
1805.00,2.4254
1804.00,2.4111
1803.00,2.3946
1802.00,2.3761
1801.00,2.3549
1800.00,2.3304
1799.00,2.3028
1798.00,2.2725
1797.00,2.2400
1796.00,2.2068
1795.00,2.1739
1794.00,2.1398
1793.00,2.1017
1792.00,2.0586
1791.00,2.0127
1790.00,1.9674
1789.00,1.9238
1788.00,1.8816
1787.00,1.8400
1786.00,1.7988
1785.00,1.7592
1784.00,1.7237
1783.00,1.6943
1782.00,1.6724
1781.00,1.6588
1780.00,1.6541
1779.00,1.6589
1778.00,1.6736
1777.00,1.6979
1776.00,1.7310
1775.00,1.7723
1774.00,1.8215
1773.00,1.8779
1772.00,1.9381
1771.00,1.9969
1770.00,2.0500
1769.00,2.0971
1768.00,2.1393
1767.00,2.1760
1766.00,2.2060
1765.00,2.2315
1764.00,2.2562
1763.00,2.2832
1762.00,2.3136
1761.00,2.3477
1760.00,2.3848
1759.00,2.4240
1758.00,2.4650
1757.00,2.5087
1756.00,2.5543
1755.00,2.5991
1754.00,2.6412
1753.00,2.6813
1752.00,2.7201
1751.00,2.7558
1750.00,2.7876
1749.00,2.8183
1748.00,2.8503
1747.00,2.8833
1746.00,2.9169
1745.00,2.9532
1744.00,2.9937
1743.00,3.0360
1742.00,3.0763
1741.00,3.1137
1740.00,3.1494
1739.00,3.1816
1738.00,3.2083
1737.00,3.2324
1736.00,3.2588
1735.00,3.2895
1734.00,3.3231
1733.00,3.3582
1732.00,3.3930
1731.00,3.4250
1730.00,3.4562
1729.00,3.4949
1728.00,3.5503
1727.00,3.6292
1726.00,3.7397
1725.00,3.8972
1724.00,4.1253
1723.00,4.4384
1722.00,4.6751
1721.00,4.6188
1720.00,4.5639
1719.00,4.5761
1718.00,4.6257
1717.00,4.5921
1716.00,4.4579
1715.00,4.3953
1714.00,4.4443
1713.00,4.5771
1712.00,4.7278
1711.00,4.7782
1710.00,4.6818
1709.00,4.5398
1708.00,4.4333
1707.00,4.3820
1706.00,4.3811
1705.00,4.4304
1704.00,4.5385
1703.00,4.6070
1702.00,4.3938
1701.00,4.1002
1700.00,3.8521
1699.00,3.6570
1698.00,3.5189
1697.00,3.4275
1696.00,3.3654
1695.00,3.3187
1694.00,3.2813
1693.00,3.2524
1692.00,3.2272
1691.00,3.1988
1690.00,3.1644
1689.00,3.1275
1688.00,3.0934
1687.00,3.0639
1686.00,3.0352
1685.00,3.0003
1684.00,2.9549
1683.00,2.9044
1682.00,2.8580
1681.00,2.8190
1680.00,2.7866
1679.00,2.7591
1678.00,2.7356
1677.00,2.7141
1676.00,2.6904
1675.00,2.6602
1674.00,2.6242
1673.00,2.5871
1672.00,2.5518
1671.00,2.5159
1670.00,2.4743
1669.00,2.4248
1668.00,2.3697
1667.00,2.3130
1666.00,2.2567
1665.00,2.1999
1664.00,2.1404
1663.00,2.0774
1662.00,2.0144
1661.00,1.9574
1660.00,1.9109
1659.00,1.8766
1658.00,1.8549
1657.00,1.8456
1656.00,1.8490
1655.00,1.8656
1654.00,1.8942
1653.00,1.9285
1652.00,1.9590
1651.00,1.9837
1650.00,2.0084
1649.00,2.0370
1648.00,2.0695
1647.00,2.1045
1646.00,2.1397
1645.00,2.1730
1644.00,2.2040
1643.00,2.2341
1642.00,2.2648
1641.00,2.2967
1640.00,2.3286
1639.00,2.3598
1638.00,2.3908
1637.00,2.4226
1636.00,2.4538
1635.00,2.4802
1634.00,2.4993
1633.00,2.5138
1632.00,2.5274
1631.00,2.5424
1630.00,2.5600
1629.00,2.5797
1628.00,2.5989
1627.00,2.6161
1626.00,2.6327
1625.00,2.6519
1624.00,2.6736
1623.00,2.6953
1622.00,2.7149
1621.00,2.7334
1620.00,2.7524
1619.00,2.7734
1618.00,2.7968
1617.00,2.8202
1616.00,2.8391
1615.00,2.8517
1614.00,2.8613
1613.00,2.8712
1612.00,2.8810
1611.00,2.8883
1610.00,2.8935
1609.00,2.8991
1608.00,2.9065
1607.00,2.9151
1606.00,2.9254
1605.00,2.9379
1604.00,2.9523
1603.00,2.9672
1602.00,2.9812
1601.00,2.9926
1600.00,3.0000
1599.00,3.0045
1598.00,3.0109
1597.00,3.0231
1596.00,3.0399
1595.00,3.0564
1594.00,3.0698
1593.00,3.0809
1592.00,3.0911
1591.00,3.1002
1590.00,3.1081
1589.00,3.1147
1588.00,3.1194
1587.00,3.1223
1586.00,3.1256
1585.00,3.1314
1584.00,3.1401
1583.00,3.1500
1582.00,3.1598
1581.00,3.1686
1580.00,3.1761
1579.00,3.1841
1578.00,3.1954
1577.00,3.2089
1576.00,3.2168
1575.00,3.2144
1574.00,3.2083
1573.00,3.2084
1572.00,3.2175
1571.00,3.2322
1570.00,3.2466
1569.00,3.2554
1568.00,3.2564
1567.00,3.2537
1566.00,3.2544
1565.00,3.2603
1564.00,3.2659
1563.00,3.2658
1562.00,3.2616
1561.00,3.2591
1560.00,3.2596
1559.00,3.2605
1558.00,3.2645
1557.00,3.2720
1556.00,3.2793
1555.00,3.2830
1554.00,3.2824
1553.00,3.2782
1552.00,3.2707
1551.00,3.2628
1550.00,3.2606
1549.00,3.2685
1548.00,3.2827
1547.00,3.2964
1546.00,3.3073
1545.00,3.3170
1544.00,3.3251
1543.00,3.3293
1542.00,3.3300
1541.00,3.3301
1540.00,3.3296
1539.00,3.3267
1538.00,3.3235
1537.00,3.3253
1536.00,3.3307
1535.00,3.3337
1534.00,3.3306
1533.00,3.3227
1532.00,3.3126
1531.00,3.3021
1530.00,3.2950
1529.00,3.2962
1528.00,3.3054
1527.00,3.3160
1526.00,3.3212
1525.00,3.3207
1524.00,3.3196
1523.00,3.3218
1522.00,3.3265
1521.00,3.3303
1520.00,3.3294
1519.00,3.3245
1518.00,3.3199
1517.00,3.3183
1516.00,3.3186
1515.00,3.3183
1514.00,3.3172
1513.00,3.3164
1512.00,3.3163
1511.00,3.3162
1510.00,3.3155
1509.00,3.3129
1508.00,3.3068
1507.00,3.3000
1506.00,3.2992
1505.00,3.3030
1504.00,3.3050
1503.00,3.3020
1502.00,3.2964
1501.00,3.2935
1500.00,3.2952
1499.00,3.2995
1498.00,3.3032
1497.00,3.3024
1496.00,3.2924
1495.00,3.2741
1494.00,3.2578
1493.00,3.2525
1492.00,3.2569
1491.00,3.2615
1490.00,3.2586
1489.00,3.2506
1488.00,3.2442
1487.00,3.2411
1486.00,3.2383
1485.00,3.2321
1484.00,3.2208
1483.00,3.2070
1482.00,3.1958
1481.00,3.1909
1480.00,3.1909
1479.00,3.1913
1478.00,3.1896
1477.00,3.1855
1476.00,3.1796
1475.00,3.1735
1474.00,3.1684
1473.00,3.1628
1472.00,3.1516
1471.00,3.1334
1470.00,3.1146
1469.00,3.1029
1468.00,3.1008
1467.00,3.1049
1466.00,3.1098
1465.00,3.1117
1464.00,3.1095
1463.00,3.1051
1462.00,3.1017
1461.00,3.0995
1460.00,3.0950
1459.00,3.0849
1458.00,3.0704
1457.00,3.0598
1456.00,3.0628
1455.00,3.0854
1454.00,3.1307
1453.00,3.1989
1452.00,3.2857
1451.00,3.3773
1450.00,3.4534
1449.00,3.4979
1448.00,3.5055
1447.00,3.4829
1446.00,3.4446
1445.00,3.4020
1444.00,3.3579
1443.00,3.3128
1442.00,3.2706
1441.00,3.2356
1440.00,3.2079
1439.00,3.1845
1438.00,3.1631
1437.00,3.1440
1436.00,3.1299
1435.00,3.1243
1434.00,3.1293
1433.00,3.1438
1432.00,3.1639
1431.00,3.1841
1430.00,3.2017
1429.00,3.2170
1428.00,3.2292
1427.00,3.2369
1426.00,3.2418
1425.00,3.2472
1424.00,3.2544
1423.00,3.2621
1422.00,3.2695
1421.00,3.2766
1420.00,3.2788
1419.00,3.2688
1418.00,3.2472
1417.00,3.2220
1416.00,3.1992
1415.00,3.1789
1414.00,3.1594
1413.00,3.1403
1412.00,3.1212
1411.00,3.1012
1410.00,3.0799
1409.00,3.0562
1408.00,3.0292
1407.00,2.9988
1406.00,2.9663
1405.00,2.9334
1404.00,2.9016
1403.00,2.8730
1402.00,2.8487
1401.00,2.8268
1400.00,2.8026
1399.00,2.7736
1398.00,2.7428
1397.00,2.7138
1396.00,2.6866
1395.00,2.6584
1394.00,2.6278
1393.00,2.5957
1392.00,2.5631
1391.00,2.5305
1390.00,2.4973
1389.00,2.4626
1388.00,2.4253
1387.00,2.3864
1386.00,2.3483
1385.00,2.3126
1384.00,2.2786
1383.00,2.2449
1382.00,2.2113
1381.00,2.1784
1380.00,2.1465
1379.00,2.1158
1378.00,2.0864
1377.00,2.0583
1376.00,2.0318
1375.00,2.0080
1374.00,1.9892
1373.00,1.9780
1372.00,1.9754
1371.00,1.9812
1370.00,1.9951
1369.00,2.0169
1368.00,2.0463
1367.00,2.0826
1366.00,2.1242
1365.00,2.1690
1364.00,2.2153
1363.00,2.2622
1362.00,2.3096
1361.00,2.3578
1360.00,2.4069
1359.00,2.4575
1358.00,2.5107
1357.00,2.5674
1356.00,2.6280
1355.00,2.6922
1354.00,2.7591
1353.00,2.8280
1352.00,2.8985
1351.00,2.9681
1350.00,3.0300
1349.00,3.0751
1348.00,3.0984
1347.00,3.1020
1346.00,3.0931
1345.00,3.0795
1344.00,3.0688
1343.00,3.0678
1342.00,3.0804
1341.00,3.1055
1340.00,3.1333
1339.00,3.1446
1338.00,3.1210
1337.00,3.0622
1336.00,2.9863
1335.00,2.9137
1334.00,2.8568
1333.00,2.8205
1332.00,2.8043
1331.00,2.8052
1330.00,2.8194
1329.00,2.8435
1328.00,2.8755
1327.00,2.9144
1326.00,2.9582
1325.00,3.0043
1324.00,3.0512
1323.00,3.0991
1322.00,3.1482
1321.00,3.1965
1320.00,3.2413
1319.00,3.2842
1318.00,3.3308
1317.00,3.3836
1316.00,3.4373
1315.00,3.4825
1314.00,3.5143
1313.00,3.5347
1312.00,3.5422
1311.00,3.5243
1310.00,3.4657
1309.00,3.3680
1308.00,3.2522
1307.00,3.1411
1306.00,3.0479
1305.00,2.9758
1304.00,2.9239
1303.00,2.8905
1302.00,2.8743
1301.00,2.8727
1300.00,2.8815
1299.00,2.8975
1298.00,2.9191
1297.00,2.9453
1296.00,2.9730
1295.00,2.9993
1294.00,3.0243
1293.00,3.0506
1292.00,3.0798
1291.00,3.1102
1290.00,3.1390
1289.00,3.1656
1288.00,3.1912
1287.00,3.2166
1286.00,3.2412
1285.00,3.2629
1284.00,3.2809
1283.00,3.2976
1282.00,3.3169
1281.00,3.3390
1280.00,3.3584
1279.00,3.3706
1278.00,3.3785
1277.00,3.3883
1276.00,3.4009
1275.00,3.4125
1274.00,3.4220
1273.00,3.4315
1272.00,3.4403
1271.00,3.4445
1270.00,3.4444
1269.00,3.4471
1268.00,3.4593
1267.00,3.4804
1266.00,3.5028
1265.00,3.5180
1264.00,3.5212
1263.00,3.5140
1262.00,3.5066
1261.00,3.5123
1260.00,3.5374
1259.00,3.5759
1258.00,3.6131
1257.00,3.6364
1256.00,3.6437
1255.00,3.6424
1254.00,3.6418
1253.00,3.6474
1252.00,3.6579
1251.00,3.6680
1250.00,3.6743
1249.00,3.6774
1248.00,3.6792
1247.00,3.6802
1246.00,3.6815
1245.00,3.6854
1244.00,3.6915
1243.00,3.6969
1242.00,3.6990
1241.00,3.6973
1240.00,3.6949
1239.00,3.6974
1238.00,3.7075
1237.00,3.7233
1236.00,3.7408
1235.00,3.7564
1234.00,3.7700
1233.00,3.7851
1232.00,3.8059
1231.00,3.8411
1230.00,3.9015
1229.00,3.9855
1228.00,4.0741
1227.00,4.1394
1226.00,4.1724
1225.00,4.1847
1224.00,4.1642
1223.00,4.1085
1222.00,4.0540
1221.00,4.0184
1220.00,3.9899
1219.00,3.9494
1218.00,3.8911
1217.00,3.8258
1216.00,3.7678
1215.00,3.7255
1214.00,3.7020
1213.00,3.6945
1212.00,3.6988
1211.00,3.7106
1210.00,3.7214
1209.00,3.7193
1208.00,3.7018
1207.00,3.6857
1206.00,3.6928
1205.00,3.7250
1204.00,3.7564
1203.00,3.7606
1202.00,3.7514
1201.00,3.7637
1200.00,3.8083
1199.00,3.8576
1198.00,3.8671
1197.00,3.8277
1196.00,3.7737
1195.00,3.7426
1194.00,3.7505
1193.00,3.7899
1192.00,3.8331
1191.00,3.8476
1190.00,3.8300
1189.00,3.8044
1188.00,3.7904
1187.00,3.7975
1186.00,3.8252
1185.00,3.8620
1184.00,3.8933
1183.00,3.9062
1182.00,3.8995
1181.00,3.8847
1180.00,3.8645
1179.00,3.8379
1178.00,3.8167
1177.00,3.8168
1176.00,3.8382
1175.00,3.8610
1174.00,3.8690
1173.00,3.8664
1172.00,3.8643
1171.00,3.8640
1170.00,3.8520
1169.00,3.8199
1168.00,3.7869
1167.00,3.7762
1166.00,3.7946
1165.00,3.8293
1164.00,3.8557
1163.00,3.8644
1162.00,3.8700
1161.00,3.8801
1160.00,3.8798
1159.00,3.8668
1158.00,3.8706
1157.00,3.9140
1156.00,3.9726
1155.00,3.9724
1154.00,3.9111
1153.00,3.8520
1152.00,3.8203
1151.00,3.8083
1150.00,3.7987
1149.00,3.7872
1148.00,3.7848
1147.00,3.7987
1146.00,3.8249
1145.00,3.8593
1144.00,3.8924
1143.00,3.8942
1142.00,3.8532
1141.00,3.8005
1140.00,3.7620
1139.00,3.7475
1138.00,3.7548
1137.00,3.7738
1136.00,3.7950
1135.00,3.8022
1134.00,3.7762
1133.00,3.7296
1132.00,3.7028
1131.00,3.7190
1130.00,3.7599
1129.00,3.7727
1128.00,3.7409
1127.00,3.7057
1126.00,3.7059
1125.00,3.7554
1124.00,3.8456
1123.00,3.9565
1122.00,4.0868
1121.00,4.2480
1120.00,4.3029
1119.00,4.1806
1118.00,4.0903
1117.00,4.0527
1116.00,4.0271
1115.00,3.9930
1114.00,3.9793
1113.00,4.0053
1112.00,4.0342
1111.00,4.0089
1110.00,3.9506
1109.00,3.9179
1108.00,3.9237
1107.00,3.9336
1106.00,3.9136
1105.00,3.8893
1104.00,3.9017
1103.00,3.9562
1102.00,4.0368
1101.00,4.1401
1100.00,4.2748
1099.00,4.3763
1098.00,4.3108
1097.00,4.1605
1096.00,4.0604
1095.00,4.0328
1094.00,4.0331
1093.00,4.0099
1092.00,3.9563
1091.00,3.9118
1090.00,3.9069
1089.00,3.9393
1088.00,3.9748
1087.00,3.9492
1086.00,3.8566
1085.00,3.7642
1084.00,3.7113
1083.00,3.7106
1082.00,3.7621
1081.00,3.8443
1080.00,3.9087
1079.00,3.9150
1078.00,3.8765
1077.00,3.8348
1076.00,3.8031
1075.00,3.7641
1074.00,3.7088
1073.00,3.6544
1072.00,3.6222
1071.00,3.6130
1070.00,3.6070
1069.00,3.5922
1068.00,3.5819
1067.00,3.5904
1066.00,3.6135
1065.00,3.6354
1064.00,3.6414
1063.00,3.6289
1062.00,3.6043
1061.00,3.5759
1060.00,3.5539
1059.00,3.5455
1058.00,3.5485
1057.00,3.5548
1056.00,3.5615
1055.00,3.5751
1054.00,3.6007
1053.00,3.6274
1052.00,3.6377
1051.00,3.6293
1050.00,3.6078
1049.00,3.5756
1048.00,3.5361
1047.00,3.4994
1046.00,3.4755
1045.00,3.4657
1044.00,3.4616
1043.00,3.4505
1042.00,3.4254
1041.00,3.3890
1040.00,3.3468
1039.00,3.3033
1038.00,3.2638
1037.00,3.2315
1036.00,3.2045
1035.00,3.1791
1034.00,3.1538
1033.00,3.1289
1032.00,3.1043
1031.00,3.0811
1030.00,3.0605
1029.00,3.0430
1028.00,3.0300
1027.00,3.0250
1026.00,3.0317
1025.00,3.0502
1024.00,3.0780
1023.00,3.1136
1022.00,3.1607
1021.00,3.2252
1020.00,3.3070
1019.00,3.3923
1018.00,3.4517
1017.00,3.4568
1016.00,3.4104
1015.00,3.3412
1014.00,3.2719
1013.00,3.2084
1012.00,3.1495
1011.00,3.0963
1010.00,3.0536
1009.00,3.0267
1008.00,3.0157
1007.00,3.0166
1006.00,3.0253
1005.00,3.0415
1004.00,3.0673
1003.00,3.1028
1002.00,3.1439
1001.00,3.1840
1000.00,3.2198
999.00,3.2537
998.00,3.2923
997.00,3.3418
996.00,3.4040
995.00,3.4719
994.00,3.5303
993.00,3.5635
992.00,3.5716
991.00,3.5714
990.00,3.5780
989.00,3.5984
988.00,3.6356
987.00,3.6885
986.00,3.7456
985.00,3.7872
984.00,3.8062
983.00,3.8179
982.00,3.8417
981.00,3.8795
980.00,3.9085
979.00,3.9151
978.00,3.9183
977.00,3.9259
976.00,3.9163
975.00,3.8786
974.00,3.8411
973.00,3.8380
972.00,3.8837
971.00,3.9706
970.00,4.0646
969.00,4.1162
968.00,4.1251
967.00,4.1492
966.00,4.2107
965.00,4.2602
964.00,4.2510
963.00,4.2206
962.00,4.2312
961.00,4.2967
960.00,4.4344
959.00,4.7255
958.00,4.8068
957.00,4.8138
956.00,5.0895
955.00,4.6843
954.00,4.5374
953.00,4.4424
952.00,4.3590
951.00,4.3529
950.00,4.4914
949.00,5.1913
948.00,4.3442
947.00,4.0729
946.00,3.9949
945.00,4.0540
944.00,4.2020
943.00,4.3879
942.00,4.5625
941.00,4.5983
940.00,4.5213
939.00,4.4923
938.00,4.5508
937.00,4.6430
936.00,4.7009
935.00,4.7745
934.00,4.7878
933.00,4.8732
932.00,4.9403
931.00,4.7136
930.00,4.6384
929.00,4.6952
928.00,4.8266
927.00,4.8243
926.00,4.6768
925.00,4.5711
924.00,4.4869
923.00,4.4848
922.00,4.5711
921.00,4.5188
920.00,4.3670
919.00,4.3118
918.00,4.3885
917.00,4.6505
916.00,4.8675
915.00,4.6594
914.00,4.6672
913.00,4.8962
912.00,5.5159
911.00,4.9689
910.00,4.7404
909.00,4.7435
908.00,4.7202
907.00,4.4783
906.00,4.3418
905.00,4.3244
904.00,4.3721
903.00,4.4029
902.00,4.3521
901.00,4.2952
900.00,4.3112
899.00,4.3397
898.00,4.2679
897.00,4.1711
896.00,4.0682
895.00,4.0167
894.00,4.0646
893.00,4.1370
892.00,4.1046
891.00,4.0660
890.00,4.0774
889.00,4.1280
888.00,4.2258
887.00,4.3503
886.00,4.3458
885.00,4.2037
884.00,4.0899
883.00,4.0982
882.00,4.2470
881.00,4.4189
880.00,4.4459
879.00,4.3850
878.00,4.3884
877.00,4.7208
876.00,4.7939
875.00,4.3490
874.00,4.3647
873.00,4.6456
872.00,4.4318
871.00,4.2577
870.00,4.2558
869.00,4.3884
868.00,4.5195
867.00,4.2915
866.00,4.1299
865.00,4.1008
864.00,4.1247
863.00,4.0748
862.00,3.9865
861.00,3.9517
860.00,3.9792
859.00,4.0351
858.00,4.0995
857.00,4.1928
856.00,4.3124
855.00,4.3480
854.00,4.2549
853.00,4.1142
852.00,4.0397
851.00,4.0783
850.00,4.1553
849.00,4.1704
848.00,4.1796
847.00,4.1910
846.00,4.1760
845.00,4.1274
844.00,4.0587
843.00,4.0141
842.00,4.0288
841.00,4.1102
840.00,4.2308
839.00,4.3450
838.00,4.3448
837.00,4.2336
836.00,4.1700
835.00,4.1221
834.00,4.0835
833.00,4.0842
832.00,4.0979
831.00,4.1360
830.00,4.2091
829.00,4.2681
828.00,4.2950
827.00,4.3093
826.00,4.3165
825.00,4.3320
824.00,4.3657
823.00,4.4449
822.00,4.4975
821.00,4.4250
820.00,4.4733
819.00,5.0437
818.00,4.5980
817.00,4.3795
816.00,4.5146
815.00,4.8859
814.00,4.7156
813.00,4.5718
812.00,4.4506
811.00,4.3598
810.00,4.3388
809.00,4.3802
808.00,4.3527
807.00,4.2356
806.00,4.1767
805.00,4.1974
804.00,4.2620
803.00,4.3234
802.00,4.3381
801.00,4.2735
800.00,4.1796
799.00,4.1400
798.00,4.1793
797.00,4.2580
796.00,4.3254
795.00,4.4566
794.00,4.8137
793.00,4.9473
792.00,4.8356
791.00,4.9572
790.00,4.8005
789.00,4.5585
788.00,4.3374
787.00,4.2368
786.00,4.3013
785.00,4.5781
784.00,5.0256
783.00,4.6789
782.00,4.2576
781.00,4.0634
780.00,3.9702
779.00,3.9107
778.00,3.8868
777.00,3.9029
776.00,3.9278
775.00,3.9126
774.00,3.8995
773.00,3.9582
772.00,4.1029
771.00,4.3020
770.00,4.2692
769.00,4.1231
768.00,4.1222
767.00,4.2562
766.00,4.4308
765.00,4.5602
764.00,4.8769
763.00,4.5580
762.00,4.2459
761.00,4.1862
760.00,4.2959
759.00,4.4445
758.00,4.5472
757.00,4.7075
756.00,4.5286
755.00,4.2909
754.00,4.1353
753.00,4.0282
752.00,3.9689
751.00,3.9684
750.00,4.0199
749.00,4.1019
748.00,4.2069
747.00,4.3230
746.00,4.4290
745.00,4.4914
744.00,4.4509
743.00,4.3546
742.00,4.1931
741.00,4.0047
740.00,3.8711
739.00,3.8313
738.00,3.8907
737.00,4.0269
736.00,4.1861
735.00,4.4031
734.00,5.0563
733.00,5.0012
732.00,5.2135
731.00,4.5171
730.00,4.1178
729.00,3.9629
728.00,3.9485
727.00,4.0200
726.00,4.0803
725.00,4.0238
724.00,3.9122
723.00,3.8506
722.00,3.8592
721.00,3.9056
720.00,3.9752
719.00,4.1153
718.00,4.3686
717.00,4.5528
716.00,4.3590
715.00,4.0742
714.00,3.9017
713.00,3.8412
712.00,3.8593
711.00,3.9170
710.00,3.9814
709.00,4.0413
708.00,4.0889
707.00,4.0820
706.00,3.9943
705.00,3.8891
704.00,3.8378
703.00,3.8548
702.00,3.9067
701.00,3.9430
700.00,3.9520
699.00,3.9652
698.00,3.9975
697.00,4.0354
696.00,4.0542
695.00,4.0417
694.00,4.0146
693.00,3.9591
692.00,3.8683
691.00,3.7801
690.00,3.7196
689.00,3.6729
688.00,3.6227
687.00,3.5864
686.00,3.5909
685.00,3.6440
684.00,3.7289
683.00,3.8053
682.00,3.8178
681.00,3.7432
680.00,3.6609
679.00,3.6426
678.00,3.6976
677.00,3.7938
676.00,3.8720
675.00,3.8942
674.00,3.8507
673.00,3.8039
672.00,3.8329
671.00,3.9582
670.00,4.0828
669.00,3.9821
668.00,3.7727
667.00,3.6426
666.00,3.6288
665.00,3.6987
664.00,3.8266
663.00,3.9831
662.00,4.0773
661.00,4.0100
660.00,3.8691
659.00,3.7613
658.00,3.7074
657.00,3.7032
656.00,3.7404
655.00,3.8087
654.00,3.8930
653.00,3.9480
652.00,3.9291
651.00,3.8744
650.00,3.8171
649.00,3.7559
648.00,3.6936
647.00,3.6523
646.00,3.6530
645.00,3.6930
644.00,3.7419
643.00,3.7454
642.00,3.6974
641.00,3.6680
640.00,3.6937
639.00,3.7713
638.00,3.8902
637.00,4.0126
636.00,4.0317
635.00,3.9249
634.00,3.8164
633.00,3.7796
632.00,3.8063
631.00,3.8431
630.00,3.8449
629.00,3.8325
628.00,3.8360
627.00,3.8094
626.00,3.7422
625.00,3.7007
624.00,3.7113
623.00,3.7698
622.00,3.8750
621.00,4.0295
620.00,4.1350
619.00,4.0629
618.00,3.9703
617.00,3.8908
616.00,3.8157
615.00,3.7759
614.00,3.7912
613.00,3.8483
612.00,3.8988
611.00,3.8682
610.00,3.7750
609.00,3.7301
608.00,3.7928
607.00,3.9810
606.00,4.1693
605.00,4.0428
604.00,3.9125
603.00,3.8689
602.00,3.8759
601.00,3.8791
600.00,3.8594
599.00,3.8455
598.00,3.8533
597.00,3.8380
596.00,3.8083
595.00,3.8782
594.00,4.1738
593.00,4.7865
592.00,4.0685
591.00,3.9695
590.00,3.9961
589.00,4.1113
588.00,4.3148
587.00,4.2854
586.00,4.0250
585.00,3.9117
584.00,3.9606
583.00,4.2204
582.00,4.7800
581.00,4.1741
580.00,3.9925
579.00,4.0109
578.00,4.1503
577.00,4.1865
576.00,4.0644
575.00,4.0210
574.00,4.1294
573.00,4.2385
572.00,4.0626
571.00,4.0175
570.00,4.1704
569.00,4.6312
568.00,4.6018
567.00,4.2278
566.00,4.0251
565.00,3.9308
564.00,3.9055
563.00,3.8539
562.00,3.7547
561.00,3.7032
560.00,3.7394
559.00,3.8550
558.00,4.0162
557.00,4.1231
556.00,3.9694
555.00,3.7736
554.00,3.6802
553.00,3.6880
552.00,3.7658
551.00,3.8533
550.00,3.8884
549.00,3.8800
548.00,3.8887
547.00,3.9866
546.00,4.2852
545.00,4.1567
544.00,3.8668
543.00,3.6864
542.00,3.5673
541.00,3.5432
540.00,3.6194
539.00,3.7920
538.00,3.9889
537.00,3.8371
536.00,3.7190
535.00,3.7814
534.00,4.1092
533.00,4.4114
532.00,4.1219
531.00,4.0938
530.00,4.0529
529.00,4.0624
528.00,4.0823
527.00,3.9400
526.00,3.7644
525.00,3.7056
524.00,3.7596
523.00,3.7966
522.00,3.7862
521.00,3.8786
520.00,4.1113
519.00,3.8253
518.00,3.6942
517.00,3.7848
516.00,4.0464
515.00,4.1508
514.00,4.0931
513.00,4.0318
512.00,3.8246
511.00,3.6176
510.00,3.4949
509.00,3.4499
508.00,3.4680
507.00,3.5529
506.00,3.7110
505.00,3.7304
504.00,3.5727
503.00,3.5126
502.00,3.5647
501.00,3.6637
500.00,3.6660
499.00,3.5866
498.00,3.5235
497.00,3.5064
496.00,3.5221
495.00,3.5311
494.00,3.5490
493.00,3.6212
492.00,3.7271
491.00,3.7304
490.00,3.6327
489.00,3.5917
488.00,3.5846
487.00,3.5930
486.00,3.6518
485.00,3.5809
484.00,3.4941
483.00,3.5374
482.00,3.6376
481.00,3.6382
480.00,3.5278
479.00,3.4039
478.00,3.3207
477.00,3.2622
476.00,3.1935
475.00,3.1171
474.00,3.0773
473.00,3.1094
472.00,3.2096
471.00,3.3148
470.00,3.3541
469.00,3.3359
468.00,3.3200
467.00,3.3337
466.00,3.3298
465.00,3.2896
464.00,3.2821
463.00,3.3070
462.00,3.2516
461.00,3.1935
460.00,3.2608
459.00,3.4987
458.00,3.6165
457.00,3.4765
456.00,3.4412
455.00,3.4261
454.00,3.4409
453.00,3.4632
452.00,3.3556
451.00,3.2148
450.00,3.1715
449.00,3.2521
448.00,3.4297
447.00,3.5227
446.00,3.4194
445.00,3.2716
444.00,3.1830
443.00,3.1796
442.00,3.2256
441.00,3.2421
440.00,3.2080
439.00,3.1945
438.00,3.2517
437.00,3.3549
436.00,3.3922
435.00,3.3194
434.00,3.2483
433.00,3.2409
432.00,3.2685
431.00,3.2535
430.00,3.1730
429.00,3.1031
428.00,3.0860
427.00,3.1114
426.00,3.1276
425.00,3.0796
424.00,3.0166
423.00,3.0260
422.00,3.1398
421.00,3.2814
420.00,3.1869
419.00,3.0125
418.00,2.9735
417.00,3.1167
416.00,3.3597
415.00,3.2741
414.00,3.2512
413.00,3.3116
412.00,3.2468
411.00,3.1918
410.00,3.2766
409.00,3.5217
408.00,3.5287
407.00,3.3461
406.00,3.2166
405.00,3.1068
404.00,3.0045
403.00,2.9111
402.00,2.8452
401.00,2.8297
400.00,2.8672
