Created as New Dataset,Sample 171 By Administrator Date Friday, November 26 2021
cm-1,A
7000.00,1.2028
6999.00,1.2033
6998.00,1.2039
6997.00,1.2046
6996.00,1.2053
6995.00,1.2058
6994.00,1.2063
6993.00,1.2066
6992.00,1.2067
6991.00,1.2066
6990.00,1.2064
6989.00,1.2060
6988.00,1.2051
6987.00,1.2040
6986.00,1.2028
6985.00,1.2022
6984.00,1.2019
6983.00,1.2015
6982.00,1.2010
6981.00,1.2005
6980.00,1.2002
6979.00,1.1997
6978.00,1.1989
6977.00,1.1978
6976.00,1.1966
6975.00,1.1954
6974.00,1.1940
6973.00,1.1925
6972.00,1.1908
6971.00,1.1893
6970.00,1.1879
6969.00,1.1867
6968.00,1.1855
6967.00,1.1842
6966.00,1.1826
6965.00,1.1807
6964.00,1.1790
6963.00,1.1776
6962.00,1.1762
6961.00,1.1747
6960.00,1.1729
6959.00,1.1710
6958.00,1.1691
6957.00,1.1670
6956.00,1.1648
6955.00,1.1624
6954.00,1.1599
6953.00,1.1574
6952.00,1.1550
6951.00,1.1527
6950.00,1.1503
6949.00,1.1479
6948.00,1.1452
6947.00,1.1424
6946.00,1.1399
6945.00,1.1378
6944.00,1.1358
6943.00,1.1335
6942.00,1.1307
6941.00,1.1278
6940.00,1.1248
6939.00,1.1219
6938.00,1.1188
6937.00,1.1156
6936.00,1.1121
6935.00,1.1085
6934.00,1.1049
6933.00,1.1014
6932.00,1.0980
6931.00,1.0944
6930.00,1.0906
6929.00,1.0868
6928.00,1.0833
6927.00,1.0801
6926.00,1.0766
6925.00,1.0728
6924.00,1.0688
6923.00,1.0649
6922.00,1.0611
6921.00,1.0574
6920.00,1.0536
6919.00,1.0498
6918.00,1.0459
6917.00,1.0420
6916.00,1.0379
6915.00,1.0338
6914.00,1.0294
6913.00,1.0248
6912.00,1.0201
6911.00,1.0154
6910.00,1.0110
6909.00,1.0066
6908.00,1.0022
6907.00,0.9979
6906.00,0.9936
6905.00,0.9894
6904.00,0.9850
6903.00,0.9806
6902.00,0.9763
6901.00,0.9718
6900.00,0.9672
6899.00,0.9623
6898.00,0.9575
6897.00,0.9527
6896.00,0.9480
6895.00,0.9433
6894.00,0.9386
6893.00,0.9338
6892.00,0.9290
6891.00,0.9240
6890.00,0.9188
6889.00,0.9137
6888.00,0.9086
6887.00,0.9036
6886.00,0.8986
6885.00,0.8937
6884.00,0.8891
6883.00,0.8845
6882.00,0.8799
6881.00,0.8750
6880.00,0.8702
6879.00,0.8654
6878.00,0.8607
6877.00,0.8559
6876.00,0.8510
6875.00,0.8461
6874.00,0.8412
6873.00,0.8364
6872.00,0.8317
6871.00,0.8271
6870.00,0.8225
6869.00,0.8182
6868.00,0.8139
6867.00,0.8098
6866.00,0.8056
6865.00,0.8014
6864.00,0.7971
6863.00,0.7927
6862.00,0.7885
6861.00,0.7844
6860.00,0.7803
6859.00,0.7764
6858.00,0.7725
6857.00,0.7688
6856.00,0.7651
6855.00,0.7615
6854.00,0.7581
6853.00,0.7548
6852.00,0.7518
6851.00,0.7487
6850.00,0.7458
6849.00,0.7429
6848.00,0.7400
6847.00,0.7372
6846.00,0.7344
6845.00,0.7318
6844.00,0.7294
6843.00,0.7271
6842.00,0.7249
6841.00,0.7229
6840.00,0.7209
6839.00,0.7190
6838.00,0.7170
6837.00,0.7152
6836.00,0.7136
6835.00,0.7121
6834.00,0.7107
6833.00,0.7094
6832.00,0.7082
6831.00,0.7071
6830.00,0.7062
6829.00,0.7054
6828.00,0.7047
6827.00,0.7042
6826.00,0.7039
6825.00,0.7037
6824.00,0.7036
6823.00,0.7034
6822.00,0.7034
6821.00,0.7035
6820.00,0.7039
6819.00,0.7044
6818.00,0.7050
6817.00,0.7058
6816.00,0.7068
6815.00,0.7079
6814.00,0.7091
6813.00,0.7103
6812.00,0.7116
6811.00,0.7129
6810.00,0.7145
6809.00,0.7161
6808.00,0.7178
6807.00,0.7196
6806.00,0.7216
6805.00,0.7238
6804.00,0.7262
6803.00,0.7287
6802.00,0.7312
6801.00,0.7338
6800.00,0.7366
6799.00,0.7393
6798.00,0.7421
6797.00,0.7450
6796.00,0.7481
6795.00,0.7513
6794.00,0.7545
6793.00,0.7579
6792.00,0.7614
6791.00,0.7650
6790.00,0.7688
6789.00,0.7726
6788.00,0.7766
6787.00,0.7805
6786.00,0.7843
6785.00,0.7881
6784.00,0.7920
6783.00,0.7959
6782.00,0.7999
6781.00,0.8040
6780.00,0.8082
6779.00,0.8126
6778.00,0.8171
6777.00,0.8216
6776.00,0.8261
6775.00,0.8304
6774.00,0.8348
6773.00,0.8392
6772.00,0.8437
6771.00,0.8483
6770.00,0.8529
6769.00,0.8576
6768.00,0.8625
6767.00,0.8675
6766.00,0.8724
6765.00,0.8773
6764.00,0.8821
6763.00,0.8869
6762.00,0.8917
6761.00,0.8965
6760.00,0.9014
6759.00,0.9063
6758.00,0.9112
6757.00,0.9161
6756.00,0.9211
6755.00,0.9260
6754.00,0.9310
6753.00,0.9361
6752.00,0.9410
6751.00,0.9457
6750.00,0.9504
6749.00,0.9551
6748.00,0.9601
6747.00,0.9651
6746.00,0.9702
6745.00,0.9751
6744.00,0.9799
6743.00,0.9848
6742.00,0.9895
6741.00,0.9941
6740.00,0.9986
6739.00,1.0032
6738.00,1.0079
6737.00,1.0128
6736.00,1.0175
6735.00,1.0220
6734.00,1.0265
6733.00,1.0309
6732.00,1.0354
6731.00,1.0398
6730.00,1.0443
6729.00,1.0489
6728.00,1.0536
6727.00,1.0582
6726.00,1.0627
6725.00,1.0669
6724.00,1.0709
6723.00,1.0746
6722.00,1.0784
6721.00,1.0821
6720.00,1.0859
6719.00,1.0896
6718.00,1.0935
6717.00,1.0976
6716.00,1.1018
6715.00,1.1058
6714.00,1.1095
6713.00,1.1132
6712.00,1.1169
6711.00,1.1206
6710.00,1.1241
6709.00,1.1273
6708.00,1.1305
6707.00,1.1339
6706.00,1.1373
6705.00,1.1407
6704.00,1.1442
6703.00,1.1478
6702.00,1.1514
6701.00,1.1547
6700.00,1.1575
6699.00,1.1601
6698.00,1.1627
6697.00,1.1653
6696.00,1.1678
6695.00,1.1704
6694.00,1.1731
6693.00,1.1760
6692.00,1.1787
6691.00,1.1813
6690.00,1.1839
6689.00,1.1864
6688.00,1.1888
6687.00,1.1909
6686.00,1.1930
6685.00,1.1952
6684.00,1.1975
6683.00,1.1999
6682.00,1.2023
6681.00,1.2046
6680.00,1.2068
6679.00,1.2087
6678.00,1.2101
6677.00,1.2111
6676.00,1.2119
6675.00,1.2131
6674.00,1.2148
6673.00,1.2171
6672.00,1.2195
6671.00,1.2217
6670.00,1.2236
6669.00,1.2252
6668.00,1.2264
6667.00,1.2274
6666.00,1.2282
6665.00,1.2291
6664.00,1.2303
6663.00,1.2317
6662.00,1.2330
6661.00,1.2341
6660.00,1.2350
6659.00,1.2359
6658.00,1.2368
6657.00,1.2375
6656.00,1.2380
6655.00,1.2384
6654.00,1.2389
6653.00,1.2398
6652.00,1.2407
6651.00,1.2415
6650.00,1.2419
6649.00,1.2421
6648.00,1.2422
6647.00,1.2421
6646.00,1.2420
6645.00,1.2417
6644.00,1.2414
6643.00,1.2413
6642.00,1.2416
6641.00,1.2419
6640.00,1.2421
6639.00,1.2418
6638.00,1.2413
6637.00,1.2408
6636.00,1.2404
6635.00,1.2399
6634.00,1.2392
6633.00,1.2385
6632.00,1.2381
6631.00,1.2381
6630.00,1.2384
6629.00,1.2384
6628.00,1.2378
6627.00,1.2365
6626.00,1.2346
6625.00,1.2325
6624.00,1.2306
6623.00,1.2290
6622.00,1.2278
6621.00,1.2267
6620.00,1.2259
6619.00,1.2251
6618.00,1.2240
6617.00,1.2222
6616.00,1.2200
6615.00,1.2178
6614.00,1.2162
6613.00,1.2148
6612.00,1.2131
6611.00,1.2109
6610.00,1.2087
6609.00,1.2069
6608.00,1.2052
6607.00,1.2034
6606.00,1.2016
6605.00,1.2000
6604.00,1.1984
6603.00,1.1965
6602.00,1.1942
6601.00,1.1916
6600.00,1.1891
6599.00,1.1866
6598.00,1.1843
6597.00,1.1820
6596.00,1.1796
6595.00,1.1769
6594.00,1.1739
6593.00,1.1708
6592.00,1.1676
6591.00,1.1645
6590.00,1.1614
6589.00,1.1583
6588.00,1.1551
6587.00,1.1520
6586.00,1.1487
6585.00,1.1452
6584.00,1.1415
6583.00,1.1378
6582.00,1.1342
6581.00,1.1307
6580.00,1.1273
6579.00,1.1240
6578.00,1.1207
6577.00,1.1172
6576.00,1.1133
6575.00,1.1092
6574.00,1.1050
6573.00,1.1009
6572.00,1.0969
6571.00,1.0930
6570.00,1.0891
6569.00,1.0851
6568.00,1.0811
6567.00,1.0769
6566.00,1.0726
6565.00,1.0682
6564.00,1.0637
6563.00,1.0591
6562.00,1.0545
6561.00,1.0500
6560.00,1.0455
6559.00,1.0412
6558.00,1.0367
6557.00,1.0321
6556.00,1.0271
6555.00,1.0220
6554.00,1.0169
6553.00,1.0116
6552.00,1.0062
6551.00,1.0010
6550.00,0.9960
6549.00,0.9912
6548.00,0.9864
6547.00,0.9815
6546.00,0.9765
6545.00,0.9715
6544.00,0.9664
6543.00,0.9614
6542.00,0.9563
6541.00,0.9512
6540.00,0.9459
6539.00,0.9403
6538.00,0.9347
6537.00,0.9293
6536.00,0.9240
6535.00,0.9186
6534.00,0.9132
6533.00,0.9080
6532.00,0.9028
6531.00,0.8976
6530.00,0.8923
6529.00,0.8870
6528.00,0.8818
6527.00,0.8766
6526.00,0.8715
6525.00,0.8664
6524.00,0.8613
6523.00,0.8562
6522.00,0.8511
6521.00,0.8460
6520.00,0.8410
6519.00,0.8360
6518.00,0.8310
6517.00,0.8262
6516.00,0.8213
6515.00,0.8166
6514.00,0.8118
6513.00,0.8072
6512.00,0.8027
6511.00,0.7983
6510.00,0.7940
6509.00,0.7898
6508.00,0.7856
6507.00,0.7815
6506.00,0.7775
6505.00,0.7735
6504.00,0.7697
6503.00,0.7659
6502.00,0.7622
6501.00,0.7588
6500.00,0.7554
6499.00,0.7521
6498.00,0.7488
6497.00,0.7459
6496.00,0.7433
6495.00,0.7408
6494.00,0.7384
6493.00,0.7362
6492.00,0.7342
6491.00,0.7322
6490.00,0.7303
6489.00,0.7283
6488.00,0.7265
6487.00,0.7249
6486.00,0.7235
6485.00,0.7223
6484.00,0.7213
6483.00,0.7204
6482.00,0.7197
6481.00,0.7192
6480.00,0.7189
6479.00,0.7188
6478.00,0.7189
6477.00,0.7191
6476.00,0.7194
6475.00,0.7198
6474.00,0.7204
6473.00,0.7212
6472.00,0.7220
6471.00,0.7230
6470.00,0.7240
6469.00,0.7253
6468.00,0.7268
6467.00,0.7284
6466.00,0.7302
6465.00,0.7323
6464.00,0.7344
6463.00,0.7366
6462.00,0.7390
6461.00,0.7415
6460.00,0.7442
6459.00,0.7470
6458.00,0.7500
6457.00,0.7532
6456.00,0.7565
6455.00,0.7598
6454.00,0.7631
6453.00,0.7663
6452.00,0.7696
6451.00,0.7731
6450.00,0.7768
6449.00,0.7807
6448.00,0.7847
6447.00,0.7888
6446.00,0.7930
6445.00,0.7973
6444.00,0.8016
6443.00,0.8059
6442.00,0.8101
6441.00,0.8145
6440.00,0.8191
6439.00,0.8237
6438.00,0.8284
6437.00,0.8331
6436.00,0.8379
6435.00,0.8427
6434.00,0.8475
6433.00,0.8524
6432.00,0.8573
6431.00,0.8623
6430.00,0.8673
6429.00,0.8724
6428.00,0.8774
6427.00,0.8824
6426.00,0.8874
6425.00,0.8927
6424.00,0.8980
6423.00,0.9033
6422.00,0.9085
6421.00,0.9138
6420.00,0.9190
6419.00,0.9241
6418.00,0.9292
6417.00,0.9343
6416.00,0.9396
6415.00,0.9449
6414.00,0.9501
6413.00,0.9554
6412.00,0.9605
6411.00,0.9657
6410.00,0.9708
6409.00,0.9759
6408.00,0.9810
6407.00,0.9862
6406.00,0.9913
6405.00,0.9965
6404.00,1.0016
6403.00,1.0067
6402.00,1.0117
6401.00,1.0165
6400.00,1.0214
6399.00,1.0262
6398.00,1.0310
6397.00,1.0358
6396.00,1.0407
6395.00,1.0458
6394.00,1.0509
6393.00,1.0559
6392.00,1.0606
6391.00,1.0650
6390.00,1.0693
6389.00,1.0736
6388.00,1.0778
6387.00,1.0819
6386.00,1.0860
6385.00,1.0902
6384.00,1.0944
6383.00,1.0985
6382.00,1.1027
6381.00,1.1068
6380.00,1.1112
6379.00,1.1155
6378.00,1.1199
6377.00,1.1242
6376.00,1.1284
6375.00,1.1323
6374.00,1.1360
6373.00,1.1394
6372.00,1.1428
6371.00,1.1462
6370.00,1.1497
6369.00,1.1531
6368.00,1.1566
6367.00,1.1601
6366.00,1.1635
6365.00,1.1669
6364.00,1.1702
6363.00,1.1734
6362.00,1.1766
6361.00,1.1796
6360.00,1.1826
6359.00,1.1855
6358.00,1.1882
6357.00,1.1908
6356.00,1.1934
6355.00,1.1963
6354.00,1.1992
6353.00,1.2020
6352.00,1.2046
6351.00,1.2072
6350.00,1.2098
6349.00,1.2121
6348.00,1.2140
6347.00,1.2157
6346.00,1.2176
6345.00,1.2196
6344.00,1.2215
6343.00,1.2232
6342.00,1.2251
6341.00,1.2271
6340.00,1.2292
6339.00,1.2312
6338.00,1.2332
6337.00,1.2352
6336.00,1.2371
6335.00,1.2389
6334.00,1.2406
6333.00,1.2421
6332.00,1.2432
6331.00,1.2441
6330.00,1.2448
6329.00,1.2457
6328.00,1.2467
6327.00,1.2479
6326.00,1.2491
6325.00,1.2504
6324.00,1.2516
6323.00,1.2527
6322.00,1.2537
6321.00,1.2544
6320.00,1.2549
6319.00,1.2553
6318.00,1.2558
6317.00,1.2562
6316.00,1.2566
6315.00,1.2568
6314.00,1.2571
6313.00,1.2575
6312.00,1.2580
6311.00,1.2582
6310.00,1.2583
6309.00,1.2583
6308.00,1.2585
6307.00,1.2586
6306.00,1.2585
6305.00,1.2583
6304.00,1.2579
6303.00,1.2572
6302.00,1.2565
6301.00,1.2557
6300.00,1.2550
6299.00,1.2544
6298.00,1.2537
6297.00,1.2531
6296.00,1.2524
6295.00,1.2516
6294.00,1.2506
6293.00,1.2495
6292.00,1.2485
6291.00,1.2475
6290.00,1.2464
6289.00,1.2450
6288.00,1.2436
6287.00,1.2420
6286.00,1.2404
6285.00,1.2387
6284.00,1.2371
6283.00,1.2353
6282.00,1.2337
6281.00,1.2323
6280.00,1.2311
6279.00,1.2300
6278.00,1.2287
6277.00,1.2271
6276.00,1.2253
6275.00,1.2232
6274.00,1.2209
6273.00,1.2184
6272.00,1.2158
6271.00,1.2135
6270.00,1.2114
6269.00,1.2094
6268.00,1.2072
6267.00,1.2047
6266.00,1.2019
6265.00,1.1990
6264.00,1.1962
6263.00,1.1934
6262.00,1.1907
6261.00,1.1882
6260.00,1.1857
6259.00,1.1829
6258.00,1.1798
6257.00,1.1764
6256.00,1.1728
6255.00,1.1692
6254.00,1.1658
6253.00,1.1627
6252.00,1.1595
6251.00,1.1562
6250.00,1.1526
6249.00,1.1488
6248.00,1.1449
6247.00,1.1411
6246.00,1.1376
6245.00,1.1341
6244.00,1.1305
6243.00,1.1267
6242.00,1.1226
6241.00,1.1183
6240.00,1.1138
6239.00,1.1093
6238.00,1.1049
6237.00,1.1008
6236.00,1.0969
6235.00,1.0929
6234.00,1.0887
6233.00,1.0842
6232.00,1.0795
6231.00,1.0748
6230.00,1.0700
6229.00,1.0652
6228.00,1.0605
6227.00,1.0560
6226.00,1.0515
6225.00,1.0469
6224.00,1.0420
6223.00,1.0370
6222.00,1.0319
6221.00,1.0268
6220.00,1.0219
6219.00,1.0171
6218.00,1.0123
6217.00,1.0076
6216.00,1.0026
6215.00,0.9976
6214.00,0.9925
6213.00,0.9874
6212.00,0.9823
6211.00,0.9772
6210.00,0.9721
6209.00,0.9669
6208.00,0.9616
6207.00,0.9563
6206.00,0.9511
6205.00,0.9460
6204.00,0.9412
6203.00,0.9364
6202.00,0.9316
6201.00,0.9268
6200.00,0.9217
6199.00,0.9164
6198.00,0.9110
6197.00,0.9058
6196.00,0.9007
6195.00,0.8956
6194.00,0.8908
6193.00,0.8860
6192.00,0.8813
6191.00,0.8764
6190.00,0.8714
6189.00,0.8666
6188.00,0.8618
6187.00,0.8571
6186.00,0.8523
6185.00,0.8477
6184.00,0.8431
6183.00,0.8385
6182.00,0.8338
6181.00,0.8293
6180.00,0.8247
6179.00,0.8202
6178.00,0.8156
6177.00,0.8111
6176.00,0.8065
6175.00,0.8019
6174.00,0.7973
6173.00,0.7928
6172.00,0.7884
6171.00,0.7841
6170.00,0.7798
6169.00,0.7756
6168.00,0.7715
6167.00,0.7676
6166.00,0.7637
6165.00,0.7598
6164.00,0.7559
6163.00,0.7521
6162.00,0.7483
6161.00,0.7446
6160.00,0.7410
6159.00,0.7375
6158.00,0.7341
6157.00,0.7310
6156.00,0.7280
6155.00,0.7252
6154.00,0.7225
6153.00,0.7199
6152.00,0.7174
6151.00,0.7150
6150.00,0.7128
6149.00,0.7107
6148.00,0.7088
6147.00,0.7070
6146.00,0.7054
6145.00,0.7041
6144.00,0.7029
6143.00,0.7018
6142.00,0.7009
6141.00,0.7001
6140.00,0.6995
6139.00,0.6991
6138.00,0.6988
6137.00,0.6987
6136.00,0.6988
6135.00,0.6991
6134.00,0.6996
6133.00,0.7003
6132.00,0.7011
6131.00,0.7021
6130.00,0.7033
6129.00,0.7048
6128.00,0.7063
6127.00,0.7079
6126.00,0.7096
6125.00,0.7115
6124.00,0.7135
6123.00,0.7157
6122.00,0.7180
6121.00,0.7206
6120.00,0.7234
6119.00,0.7263
6118.00,0.7293
6117.00,0.7323
6116.00,0.7355
6115.00,0.7389
6114.00,0.7425
6113.00,0.7462
6112.00,0.7501
6111.00,0.7541
6110.00,0.7580
6109.00,0.7620
6108.00,0.7662
6107.00,0.7704
6106.00,0.7748
6105.00,0.7794
6104.00,0.7840
6103.00,0.7886
6102.00,0.7934
6101.00,0.7981
6100.00,0.8030
6099.00,0.8079
6098.00,0.8130
6097.00,0.8182
6096.00,0.8234
6095.00,0.8286
6094.00,0.8340
6093.00,0.8394
6092.00,0.8448
6091.00,0.8501
6090.00,0.8555
6089.00,0.8610
6088.00,0.8664
6087.00,0.8719
6086.00,0.8775
6085.00,0.8832
6084.00,0.8890
6083.00,0.8948
6082.00,0.9005
6081.00,0.9062
6080.00,0.9119
6079.00,0.9176
6078.00,0.9234
6077.00,0.9292
6076.00,0.9350
6075.00,0.9407
6074.00,0.9464
6073.00,0.9521
6072.00,0.9578
6071.00,0.9634
6070.00,0.9691
6069.00,0.9748
6068.00,0.9806
6067.00,0.9863
6066.00,0.9919
6065.00,0.9973
6064.00,1.0028
6063.00,1.0084
6062.00,1.0140
6061.00,1.0197
6060.00,1.0253
6059.00,1.0309
6058.00,1.0363
6057.00,1.0415
6056.00,1.0467
6055.00,1.0518
6054.00,1.0570
6053.00,1.0624
6052.00,1.0678
6051.00,1.0733
6050.00,1.0786
6049.00,1.0838
6048.00,1.0888
6047.00,1.0936
6046.00,1.0983
6045.00,1.1030
6044.00,1.1076
6043.00,1.1121
6042.00,1.1165
6041.00,1.1211
6040.00,1.1256
6039.00,1.1302
6038.00,1.1348
6037.00,1.1395
6036.00,1.1442
6035.00,1.1488
6034.00,1.1532
6033.00,1.1576
6032.00,1.1619
6031.00,1.1659
6030.00,1.1699
6029.00,1.1739
6028.00,1.1777
6027.00,1.1815
6026.00,1.1851
6025.00,1.1888
6024.00,1.1925
6023.00,1.1964
6022.00,1.2003
6021.00,1.2041
6020.00,1.2076
6019.00,1.2109
6018.00,1.2140
6017.00,1.2170
6016.00,1.2199
6015.00,1.2228
6014.00,1.2258
6013.00,1.2290
6012.00,1.2323
6011.00,1.2356
6010.00,1.2387
6009.00,1.2417
6008.00,1.2447
6007.00,1.2475
6006.00,1.2502
6005.00,1.2527
6004.00,1.2552
6003.00,1.2578
6002.00,1.2604
6001.00,1.2629
6000.00,1.2654
5999.00,1.2677
5998.00,1.2698
5997.00,1.2718
5996.00,1.2739
5995.00,1.2758
5994.00,1.2776
5993.00,1.2794
5992.00,1.2812
5991.00,1.2829
5990.00,1.2845
5989.00,1.2861
5988.00,1.2878
5987.00,1.2894
5986.00,1.2911
5985.00,1.2925
5984.00,1.2939
5983.00,1.2951
5982.00,1.2965
5981.00,1.2979
5980.00,1.2994
5979.00,1.3008
5978.00,1.3021
5977.00,1.3033
5976.00,1.3043
5975.00,1.3051
5974.00,1.3055
5973.00,1.3058
5972.00,1.3062
5971.00,1.3068
5970.00,1.3076
5969.00,1.3086
5968.00,1.3096
5967.00,1.3105
5966.00,1.3110
5965.00,1.3113
5964.00,1.3114
5963.00,1.3112
5962.00,1.3110
5961.00,1.3109
5960.00,1.3106
5959.00,1.3102
5958.00,1.3097
5957.00,1.3094
5956.00,1.3094
5955.00,1.3095
5954.00,1.3095
5953.00,1.3093
5952.00,1.3091
5951.00,1.3086
5950.00,1.3080
5949.00,1.3073
5948.00,1.3067
5947.00,1.3062
5946.00,1.3056
5945.00,1.3046
5944.00,1.3035
5943.00,1.3023
5942.00,1.3010
5941.00,1.2997
5940.00,1.2984
5939.00,1.2972
5938.00,1.2960
5937.00,1.2948
5936.00,1.2935
5935.00,1.2919
5934.00,1.2901
5933.00,1.2884
5932.00,1.2870
5931.00,1.2857
5930.00,1.2845
5929.00,1.2832
5928.00,1.2818
5927.00,1.2801
5926.00,1.2781
5925.00,1.2759
5924.00,1.2739
5923.00,1.2718
5922.00,1.2697
5921.00,1.2674
5920.00,1.2650
5919.00,1.2624
5918.00,1.2598
5917.00,1.2573
5916.00,1.2550
5915.00,1.2526
5914.00,1.2500
5913.00,1.2472
5912.00,1.2443
5911.00,1.2413
5910.00,1.2381
5909.00,1.2349
5908.00,1.2317
5907.00,1.2286
5906.00,1.2253
5905.00,1.2219
5904.00,1.2183
5903.00,1.2147
5902.00,1.2111
5901.00,1.2075
5900.00,1.2039
5899.00,1.2002
5898.00,1.1966
5897.00,1.1930
5896.00,1.1893
5895.00,1.1854
5894.00,1.1814
5893.00,1.1773
5892.00,1.1733
5891.00,1.1693
5890.00,1.1650
5889.00,1.1606
5888.00,1.1563
5887.00,1.1519
5886.00,1.1475
5885.00,1.1430
5884.00,1.1385
5883.00,1.1338
5882.00,1.1291
5881.00,1.1243
5880.00,1.1195
5879.00,1.1146
5878.00,1.1095
5877.00,1.1045
5876.00,1.0993
5875.00,1.0940
5874.00,1.0887
5873.00,1.0833
5872.00,1.0781
5871.00,1.0730
5870.00,1.0678
5869.00,1.0624
5868.00,1.0568
5867.00,1.0512
5866.00,1.0455
5865.00,1.0398
5864.00,1.0340
5863.00,1.0283
5862.00,1.0226
5861.00,1.0167
5860.00,1.0107
5859.00,1.0047
5858.00,0.9988
5857.00,0.9930
5856.00,0.9872
5855.00,0.9813
5854.00,0.9754
5853.00,0.9696
5852.00,0.9636
5851.00,0.9576
5850.00,0.9515
5849.00,0.9453
5848.00,0.9389
5847.00,0.9324
5846.00,0.9260
5845.00,0.9196
5844.00,0.9135
5843.00,0.9074
5842.00,0.9014
5841.00,0.8955
5840.00,0.8894
5839.00,0.8833
5838.00,0.8773
5837.00,0.8712
5836.00,0.8652
5835.00,0.8592
5834.00,0.8532
5833.00,0.8474
5832.00,0.8416
5831.00,0.8359
5830.00,0.8302
5829.00,0.8247
5828.00,0.8193
5827.00,0.8140
5826.00,0.8087
5825.00,0.8034
5824.00,0.7982
5823.00,0.7930
5822.00,0.7879
5821.00,0.7830
5820.00,0.7783
5819.00,0.7738
5818.00,0.7695
5817.00,0.7652
5816.00,0.7611
5815.00,0.7570
5814.00,0.7530
5813.00,0.7492
5812.00,0.7456
5811.00,0.7421
5810.00,0.7388
5809.00,0.7357
5808.00,0.7327
5807.00,0.7299
5806.00,0.7273
5805.00,0.7249
5804.00,0.7227
5803.00,0.7206
5802.00,0.7187
5801.00,0.7170
5800.00,0.7155
5799.00,0.7141
5798.00,0.7130
5797.00,0.7121
5796.00,0.7115
5795.00,0.7111
5794.00,0.7108
5793.00,0.7108
5792.00,0.7110
5791.00,0.7113
5790.00,0.7117
5789.00,0.7123
5788.00,0.7132
5787.00,0.7143
5786.00,0.7157
5785.00,0.7173
5784.00,0.7189
5783.00,0.7208
5782.00,0.7228
5781.00,0.7250
5780.00,0.7273
5779.00,0.7299
5778.00,0.7327
5777.00,0.7357
5776.00,0.7388
5775.00,0.7421
5774.00,0.7455
5773.00,0.7492
5772.00,0.7530
5771.00,0.7570
5770.00,0.7612
5769.00,0.7654
5768.00,0.7698
5767.00,0.7742
5766.00,0.7788
5765.00,0.7836
5764.00,0.7884
5763.00,0.7933
5762.00,0.7984
5761.00,0.8035
5760.00,0.8086
5759.00,0.8138
5758.00,0.8191
5757.00,0.8245
5756.00,0.8300
5755.00,0.8356
5754.00,0.8414
5753.00,0.8473
5752.00,0.8534
5751.00,0.8595
5750.00,0.8656
5749.00,0.8716
5748.00,0.8775
5747.00,0.8833
5746.00,0.8891
5745.00,0.8950
5744.00,0.9009
5743.00,0.9069
5742.00,0.9131
5741.00,0.9194
5740.00,0.9257
5739.00,0.9319
5738.00,0.9381
5737.00,0.9441
5736.00,0.9502
5735.00,0.9564
5734.00,0.9625
5733.00,0.9687
5732.00,0.9748
5731.00,0.9809
5730.00,0.9868
5729.00,0.9927
5728.00,0.9986
5727.00,1.0046
5726.00,1.0108
5725.00,1.0170
5724.00,1.0232
5723.00,1.0293
5722.00,1.0352
5721.00,1.0410
5720.00,1.0467
5719.00,1.0522
5718.00,1.0578
5717.00,1.0635
5716.00,1.0693
5715.00,1.0751
5714.00,1.0809
5713.00,1.0864
5712.00,1.0918
5711.00,1.0970
5710.00,1.1020
5709.00,1.1071
5708.00,1.1123
5707.00,1.1177
5706.00,1.1231
5705.00,1.1284
5704.00,1.1337
5703.00,1.1387
5702.00,1.1437
5701.00,1.1486
5700.00,1.1535
5699.00,1.1583
5698.00,1.1631
5697.00,1.1678
5696.00,1.1724
5695.00,1.1771
5694.00,1.1818
5693.00,1.1864
5692.00,1.1909
5691.00,1.1953
5690.00,1.1995
5689.00,1.2035
5688.00,1.2075
5687.00,1.2116
5686.00,1.2158
5685.00,1.2200
5684.00,1.2241
5683.00,1.2280
5682.00,1.2319
5681.00,1.2356
5680.00,1.2392
5679.00,1.2429
5678.00,1.2466
5677.00,1.2503
5676.00,1.2540
5675.00,1.2576
5674.00,1.2611
5673.00,1.2644
5672.00,1.2677
5671.00,1.2707
5670.00,1.2735
5669.00,1.2762
5668.00,1.2791
5667.00,1.2819
5666.00,1.2849
5665.00,1.2879
5664.00,1.2909
5663.00,1.2938
5662.00,1.2966
5661.00,1.2993
5660.00,1.3018
5659.00,1.3042
5658.00,1.3065
5657.00,1.3087
5656.00,1.3108
5655.00,1.3129
5654.00,1.3150
5653.00,1.3171
5652.00,1.3193
5651.00,1.3214
5650.00,1.3233
5649.00,1.3251
5648.00,1.3270
5647.00,1.3288
5646.00,1.3305
5645.00,1.3321
5644.00,1.3337
5643.00,1.3352
5642.00,1.3366
5641.00,1.3377
5640.00,1.3388
5639.00,1.3402
5638.00,1.3416
5637.00,1.3431
5636.00,1.3443
5635.00,1.3453
5634.00,1.3461
5633.00,1.3468
5632.00,1.3475
5631.00,1.3482
5630.00,1.3489
5629.00,1.3495
5628.00,1.3500
5627.00,1.3503
5626.00,1.3506
5625.00,1.3509
5624.00,1.3512
5623.00,1.3514
5622.00,1.3515
5621.00,1.3514
5620.00,1.3513
5619.00,1.3514
5618.00,1.3516
5617.00,1.3518
5616.00,1.3520
5615.00,1.3520
5614.00,1.3519
5613.00,1.3517
5612.00,1.3514
5611.00,1.3511
5610.00,1.3507
5609.00,1.3501
5608.00,1.3492
5607.00,1.3480
5606.00,1.3467
5605.00,1.3455
5604.00,1.3446
5603.00,1.3438
5602.00,1.3430
5601.00,1.3421
5600.00,1.3412
5599.00,1.3401
5598.00,1.3389
5597.00,1.3377
5596.00,1.3366
5595.00,1.3355
5594.00,1.3342
5593.00,1.3329
5592.00,1.3313
5591.00,1.3297
5590.00,1.3280
5589.00,1.3262
5588.00,1.3242
5587.00,1.3222
5586.00,1.3200
5585.00,1.3177
5584.00,1.3154
5583.00,1.3133
5582.00,1.3114
5581.00,1.3094
5580.00,1.3074
5579.00,1.3053
5578.00,1.3029
5577.00,1.3005
5576.00,1.2980
5575.00,1.2954
5574.00,1.2927
5573.00,1.2899
5572.00,1.2872
5571.00,1.2844
5570.00,1.2814
5569.00,1.2783
5568.00,1.2751
5567.00,1.2719
5566.00,1.2686
5565.00,1.2652
5564.00,1.2616
5563.00,1.2580
5562.00,1.2543
5561.00,1.2507
5560.00,1.2470
5559.00,1.2435
5558.00,1.2399
5557.00,1.2363
5556.00,1.2325
5555.00,1.2287
5554.00,1.2247
5553.00,1.2206
5552.00,1.2163
5551.00,1.2120
5550.00,1.2077
5549.00,1.2034
5548.00,1.1990
5547.00,1.1945
5546.00,1.1900
5545.00,1.1853
5544.00,1.1806
5543.00,1.1757
5542.00,1.1708
5541.00,1.1658
5540.00,1.1608
5539.00,1.1558
5538.00,1.1506
5537.00,1.1455
5536.00,1.1403
5535.00,1.1351
5534.00,1.1299
5533.00,1.1245
5532.00,1.1190
5531.00,1.1134
5530.00,1.1078
5529.00,1.1022
5528.00,1.0965
5527.00,1.0907
5526.00,1.0847
5525.00,1.0786
5524.00,1.0724
5523.00,1.0663
5522.00,1.0603
5521.00,1.0543
5520.00,1.0482
5519.00,1.0420
5518.00,1.0356
5517.00,1.0291
5516.00,1.0226
5515.00,1.0161
5514.00,1.0096
5513.00,1.0031
5512.00,0.9965
5511.00,0.9899
5510.00,0.9833
5509.00,0.9766
5508.00,0.9699
5507.00,0.9631
5506.00,0.9564
5505.00,0.9495
5504.00,0.9426
5503.00,0.9357
5502.00,0.9288
5501.00,0.9220
5500.00,0.9153
5499.00,0.9086
5498.00,0.9019
5497.00,0.8951
5496.00,0.8883
5495.00,0.8813
5494.00,0.8743
5493.00,0.8674
5492.00,0.8606
5491.00,0.8539
5490.00,0.8472
5489.00,0.8406
5488.00,0.8340
5487.00,0.8274
5486.00,0.8210
5485.00,0.8147
5484.00,0.8085
5483.00,0.8023
5482.00,0.7962
5481.00,0.7901
5480.00,0.7842
5479.00,0.7785
5478.00,0.7731
5477.00,0.7678
5476.00,0.7626
5475.00,0.7574
5474.00,0.7523
5473.00,0.7473
5472.00,0.7424
5471.00,0.7377
5470.00,0.7332
5469.00,0.7289
5468.00,0.7249
5467.00,0.7211
5466.00,0.7174
5465.00,0.7140
5464.00,0.7107
5463.00,0.7077
5462.00,0.7049
5461.00,0.7023
5460.00,0.7000
5459.00,0.6978
5458.00,0.6958
5457.00,0.6940
5456.00,0.6925
5455.00,0.6913
5454.00,0.6903
5453.00,0.6897
5452.00,0.6892
5451.00,0.6890
5450.00,0.6891
5449.00,0.6893
5448.00,0.6897
5447.00,0.6903
5446.00,0.6910
5445.00,0.6920
5444.00,0.6932
5443.00,0.6946
5442.00,0.6963
5441.00,0.6983
5440.00,0.7005
5439.00,0.7030
5438.00,0.7057
5437.00,0.7086
5436.00,0.7116
5435.00,0.7149
5434.00,0.7184
5433.00,0.7221
5432.00,0.7259
5431.00,0.7298
5430.00,0.7339
5429.00,0.7381
5428.00,0.7425
5427.00,0.7470
5426.00,0.7518
5425.00,0.7567
5424.00,0.7619
5423.00,0.7672
5422.00,0.7727
5421.00,0.7784
5420.00,0.7841
5419.00,0.7899
5418.00,0.7958
5417.00,0.8017
5416.00,0.8078
5415.00,0.8138
5414.00,0.8200
5413.00,0.8262
5412.00,0.8325
5411.00,0.8388
5410.00,0.8452
5409.00,0.8518
5408.00,0.8584
5407.00,0.8652
5406.00,0.8719
5405.00,0.8786
5404.00,0.8853
5403.00,0.8920
5402.00,0.8987
5401.00,0.9054
5400.00,0.9122
5399.00,0.9190
5398.00,0.9259
5397.00,0.9328
5396.00,0.9397
5395.00,0.9465
5394.00,0.9535
5393.00,0.9604
5392.00,0.9673
5391.00,0.9742
5390.00,0.9810
5389.00,0.9877
5388.00,0.9944
5387.00,1.0011
5386.00,1.0079
5385.00,1.0147
5384.00,1.0215
5383.00,1.0284
5382.00,1.0351
5381.00,1.0418
5380.00,1.0484
5379.00,1.0548
5378.00,1.0613
5377.00,1.0678
5376.00,1.0742
5375.00,1.0806
5374.00,1.0870
5373.00,1.0933
5372.00,1.0997
5371.00,1.1060
5370.00,1.1125
5369.00,1.1188
5368.00,1.1250
5367.00,1.1310
5366.00,1.1368
5365.00,1.1426
5364.00,1.1484
5363.00,1.1542
5362.00,1.1599
5361.00,1.1655
5360.00,1.1710
5359.00,1.1764
5358.00,1.1819
5357.00,1.1873
5356.00,1.1927
5355.00,1.1980
5354.00,1.2032
5353.00,1.2083
5352.00,1.2134
5351.00,1.2183
5350.00,1.2232
5349.00,1.2280
5348.00,1.2327
5347.00,1.2372
5346.00,1.2417
5345.00,1.2462
5344.00,1.2507
5343.00,1.2552
5342.00,1.2595
5341.00,1.2638
5340.00,1.2679
5339.00,1.2720
5338.00,1.2761
5337.00,1.2801
5336.00,1.2839
5335.00,1.2875
5334.00,1.2911
5333.00,1.2948
5332.00,1.2985
5331.00,1.3023
5330.00,1.3061
5329.00,1.3097
5328.00,1.3132
5327.00,1.3164
5326.00,1.3193
5325.00,1.3222
5324.00,1.3252
5323.00,1.3284
5322.00,1.3315
5321.00,1.3345
5320.00,1.3374
5319.00,1.3404
5318.00,1.3433
5317.00,1.3463
5316.00,1.3492
5315.00,1.3520
5314.00,1.3546
5313.00,1.3569
5312.00,1.3590
5311.00,1.3610
5310.00,1.3630
5309.00,1.3650
5308.00,1.3669
5307.00,1.3689
5306.00,1.3710
5305.00,1.3733
5304.00,1.3757
5303.00,1.3779
5302.00,1.3798
5301.00,1.3814
5300.00,1.3827
5299.00,1.3839
5298.00,1.3852
5297.00,1.3867
5296.00,1.3881
5295.00,1.3894
5294.00,1.3906
5293.00,1.3917
5292.00,1.3928
5291.00,1.3940
5290.00,1.3953
5289.00,1.3964
5288.00,1.3974
5287.00,1.3982
5286.00,1.3988
5285.00,1.3993
5284.00,1.3998
5283.00,1.4002
5282.00,1.4008
5281.00,1.4015
5280.00,1.4021
5279.00,1.4028
5278.00,1.4034
5277.00,1.4038
5276.00,1.4039
5275.00,1.4038
5274.00,1.4035
5273.00,1.4033
5272.00,1.4029
5271.00,1.4024
5270.00,1.4019
5269.00,1.4014
5268.00,1.4012
5267.00,1.4011
5266.00,1.4010
5265.00,1.4006
5264.00,1.3999
5263.00,1.3988
5262.00,1.3976
5261.00,1.3965
5260.00,1.3957
5259.00,1.3951
5258.00,1.3946
5257.00,1.3940
5256.00,1.3933
5255.00,1.3923
5254.00,1.3911
5253.00,1.3895
5252.00,1.3878
5251.00,1.3861
5250.00,1.3844
5249.00,1.3828
5248.00,1.3812
5247.00,1.3797
5246.00,1.3781
5245.00,1.3765
5244.00,1.3745
5243.00,1.3723
5242.00,1.3700
5241.00,1.3677
5240.00,1.3655
5239.00,1.3634
5238.00,1.3614
5237.00,1.3594
5236.00,1.3572
5235.00,1.3547
5234.00,1.3521
5233.00,1.3495
5232.00,1.3468
5231.00,1.3440
5230.00,1.3412
5229.00,1.3383
5228.00,1.3352
5227.00,1.3321
5226.00,1.3289
5225.00,1.3258
5224.00,1.3225
5223.00,1.3190
5222.00,1.3154
5221.00,1.3117
5220.00,1.3080
5219.00,1.3044
5218.00,1.3009
5217.00,1.2975
5216.00,1.2940
5215.00,1.2902
5214.00,1.2861
5213.00,1.2818
5212.00,1.2775
5211.00,1.2732
5210.00,1.2690
5209.00,1.2649
5208.00,1.2608
5207.00,1.2568
5206.00,1.2525
5205.00,1.2479
5204.00,1.2429
5203.00,1.2377
5202.00,1.2325
5201.00,1.2274
5200.00,1.2225
5199.00,1.2178
5198.00,1.2129
5197.00,1.2078
5196.00,1.2025
5195.00,1.1970
5194.00,1.1915
5193.00,1.1861
5192.00,1.1805
5191.00,1.1747
5190.00,1.1687
5189.00,1.1625
5188.00,1.1564
5187.00,1.1504
5186.00,1.1444
5185.00,1.1383
5184.00,1.1321
5183.00,1.1258
5182.00,1.1193
5181.00,1.1128
5180.00,1.1062
5179.00,1.0997
5178.00,1.0932
5177.00,1.0867
5176.00,1.0801
5175.00,1.0732
5174.00,1.0662
5173.00,1.0591
5172.00,1.0520
5171.00,1.0449
5170.00,1.0378
5169.00,1.0307
5168.00,1.0235
5167.00,1.0163
5166.00,1.0090
5165.00,1.0015
5164.00,0.9941
5163.00,0.9865
5162.00,0.9789
5161.00,0.9713
5160.00,0.9637
5159.00,0.9562
5158.00,0.9486
5157.00,0.9410
5156.00,0.9333
5155.00,0.9256
5154.00,0.9178
5153.00,0.9101
5152.00,0.9024
5151.00,0.8949
5150.00,0.8874
5149.00,0.8800
5148.00,0.8726
5147.00,0.8652
5146.00,0.8579
5145.00,0.8505
5144.00,0.8432
5143.00,0.8359
5142.00,0.8289
5141.00,0.8219
5140.00,0.8151
5139.00,0.8084
5138.00,0.8017
5137.00,0.7952
5136.00,0.7888
5135.00,0.7825
5134.00,0.7764
5133.00,0.7705
5132.00,0.7648
5131.00,0.7592
5130.00,0.7539
5129.00,0.7489
5128.00,0.7440
5127.00,0.7393
5126.00,0.7348
5125.00,0.7305
5124.00,0.7263
5123.00,0.7224
5122.00,0.7188
5121.00,0.7155
5120.00,0.7125
5119.00,0.7098
5118.00,0.7073
5117.00,0.7051
5116.00,0.7032
5115.00,0.7015
5114.00,0.7001
5113.00,0.6990
5112.00,0.6982
5111.00,0.6976
5110.00,0.6974
5109.00,0.6974
5108.00,0.6976
5107.00,0.6981
5106.00,0.6989
5105.00,0.7001
5104.00,0.7015
5103.00,0.7032
5102.00,0.7052
5101.00,0.7074
5100.00,0.7098
5099.00,0.7125
5098.00,0.7155
5097.00,0.7187
5096.00,0.7222
5095.00,0.7258
5094.00,0.7297
5093.00,0.7338
5092.00,0.7381
5091.00,0.7425
5090.00,0.7472
5089.00,0.7520
5088.00,0.7571
5087.00,0.7623
5086.00,0.7676
5085.00,0.7732
5084.00,0.7789
5083.00,0.7847
5082.00,0.7907
5081.00,0.7969
5080.00,0.8031
5079.00,0.8095
5078.00,0.8159
5077.00,0.8225
5076.00,0.8292
5075.00,0.8360
5074.00,0.8428
5073.00,0.8497
5072.00,0.8566
5071.00,0.8637
5070.00,0.8710
5069.00,0.8783
5068.00,0.8857
5067.00,0.8931
5066.00,0.9005
5065.00,0.9079
5064.00,0.9154
5063.00,0.9228
5062.00,0.9303
5061.00,0.9378
5060.00,0.9454
5059.00,0.9529
5058.00,0.9605
5057.00,0.9681
5056.00,0.9758
5055.00,0.9834
5054.00,0.9910
5053.00,0.9985
5052.00,1.0060
5051.00,1.0135
5050.00,1.0211
5049.00,1.0287
5048.00,1.0364
5047.00,1.0441
5046.00,1.0517
5045.00,1.0593
5044.00,1.0667
5043.00,1.0741
5042.00,1.0814
5041.00,1.0886
5040.00,1.0958
5039.00,1.1029
5038.00,1.1099
5037.00,1.1168
5036.00,1.1237
5035.00,1.1307
5034.00,1.1375
5033.00,1.1444
5032.00,1.1511
5031.00,1.1578
5030.00,1.1645
5029.00,1.1711
5028.00,1.1776
5027.00,1.1841
5026.00,1.1905
5025.00,1.1969
5024.00,1.2032
5023.00,1.2094
5022.00,1.2155
5021.00,1.2215
5020.00,1.2274
5019.00,1.2333
5018.00,1.2391
5017.00,1.2449
5016.00,1.2506
5015.00,1.2562
5014.00,1.2617
5013.00,1.2670
5012.00,1.2722
5011.00,1.2774
5010.00,1.2826
5009.00,1.2878
5008.00,1.2930
5007.00,1.2980
5006.00,1.3028
5005.00,1.3076
5004.00,1.3123
5003.00,1.3170
5002.00,1.3218
5001.00,1.3265
5000.00,1.3310
4999.00,1.3354
4998.00,1.3397
4997.00,1.3439
4996.00,1.3480
4995.00,1.3519
4994.00,1.3558
4993.00,1.3596
4992.00,1.3635
4991.00,1.3673
4990.00,1.3710
4989.00,1.3747
4988.00,1.3783
4987.00,1.3819
4986.00,1.3853
4985.00,1.3886
4984.00,1.3920
4983.00,1.3953
4982.00,1.3985
4981.00,1.4018
4980.00,1.4050
4979.00,1.4080
4978.00,1.4109
4977.00,1.4137
4976.00,1.4164
4975.00,1.4189
4974.00,1.4214
4973.00,1.4237
4972.00,1.4262
4971.00,1.4288
4970.00,1.4313
4969.00,1.4338
4968.00,1.4362
4967.00,1.4382
4966.00,1.4400
4965.00,1.4417
4964.00,1.4433
4963.00,1.4450
4962.00,1.4468
4961.00,1.4484
4960.00,1.4501
4959.00,1.4518
4958.00,1.4534
4957.00,1.4550
4956.00,1.4565
4955.00,1.4580
4954.00,1.4595
4953.00,1.4610
4952.00,1.4624
4951.00,1.4637
4950.00,1.4648
4949.00,1.4656
4948.00,1.4662
4947.00,1.4668
4946.00,1.4673
4945.00,1.4678
4944.00,1.4682
4943.00,1.4687
4942.00,1.4692
4941.00,1.4697
4940.00,1.4702
4939.00,1.4707
4938.00,1.4711
4937.00,1.4714
4936.00,1.4715
4935.00,1.4716
4934.00,1.4715
4933.00,1.4714
4932.00,1.4713
4931.00,1.4711
4930.00,1.4709
4929.00,1.4705
4928.00,1.4701
4927.00,1.4695
4926.00,1.4689
4925.00,1.4681
4924.00,1.4674
4923.00,1.4666
4922.00,1.4658
4921.00,1.4650
4920.00,1.4640
4919.00,1.4631
4918.00,1.4622
4917.00,1.4612
4916.00,1.4601
4915.00,1.4591
4914.00,1.4580
4913.00,1.4569
4912.00,1.4558
4911.00,1.4546
4910.00,1.4531
4909.00,1.4514
4908.00,1.4496
4907.00,1.4479
4906.00,1.4462
4905.00,1.4445
4904.00,1.4427
4903.00,1.4407
4902.00,1.4384
4901.00,1.4361
4900.00,1.4337
4899.00,1.4313
4898.00,1.4289
4897.00,1.4264
4896.00,1.4239
4895.00,1.4214
4894.00,1.4188
4893.00,1.4160
4892.00,1.4132
4891.00,1.4104
4890.00,1.4077
4889.00,1.4049
4888.00,1.4019
4887.00,1.3988
4886.00,1.3955
4885.00,1.3922
4884.00,1.3890
4883.00,1.3858
4882.00,1.3826
4881.00,1.3791
4880.00,1.3753
4879.00,1.3714
4878.00,1.3674
4877.00,1.3636
4876.00,1.3597
4875.00,1.3558
4874.00,1.3517
4873.00,1.3475
4872.00,1.3432
4871.00,1.3388
4870.00,1.3343
4869.00,1.3298
4868.00,1.3251
4867.00,1.3205
4866.00,1.3157
4865.00,1.3109
4864.00,1.3060
4863.00,1.3010
4862.00,1.2958
4861.00,1.2905
4860.00,1.2853
4859.00,1.2801
4858.00,1.2748
4857.00,1.2694
4856.00,1.2638
4855.00,1.2580
4854.00,1.2521
4853.00,1.2463
4852.00,1.2406
4851.00,1.2348
4850.00,1.2290
4849.00,1.2229
4848.00,1.2166
4847.00,1.2101
4846.00,1.2036
4845.00,1.1971
4844.00,1.1905
4843.00,1.1838
4842.00,1.1771
4841.00,1.1702
4840.00,1.1632
4839.00,1.1560
4838.00,1.1488
4837.00,1.1415
4836.00,1.1342
4835.00,1.1270
4834.00,1.1196
4833.00,1.1121
4832.00,1.1044
4831.00,1.0966
4830.00,1.0887
4829.00,1.0808
4828.00,1.0729
4827.00,1.0649
4826.00,1.0569
4825.00,1.0488
4824.00,1.0406
4823.00,1.0324
4822.00,1.0241
4821.00,1.0157
4820.00,1.0074
4819.00,0.9989
4818.00,0.9904
4817.00,0.9819
4816.00,0.9734
4815.00,0.9648
4814.00,0.9562
4813.00,0.9475
4812.00,0.9389
4811.00,0.9302
4810.00,0.9215
4809.00,0.9128
4808.00,0.9042
4807.00,0.8955
4806.00,0.8869
4805.00,0.8783
4804.00,0.8698
4803.00,0.8613
4802.00,0.8530
4801.00,0.8447
4800.00,0.8365
4799.00,0.8285
4798.00,0.8205
4797.00,0.8127
4796.00,0.8050
4795.00,0.7974
4794.00,0.7900
4793.00,0.7828
4792.00,0.7757
4791.00,0.7689
4790.00,0.7623
4789.00,0.7559
4788.00,0.7498
4787.00,0.7439
4786.00,0.7382
4785.00,0.7327
4784.00,0.7275
4783.00,0.7226
4782.00,0.7181
4781.00,0.7138
4780.00,0.7099
4779.00,0.7062
4778.00,0.7029
4777.00,0.6999
4776.00,0.6972
4775.00,0.6949
4774.00,0.6929
4773.00,0.6912
4772.00,0.6899
4771.00,0.6890
4770.00,0.6884
4769.00,0.6882
4768.00,0.6883
4767.00,0.6887
4766.00,0.6895
4765.00,0.6907
4764.00,0.6922
4763.00,0.6940
4762.00,0.6962
4761.00,0.6987
4760.00,0.7014
4759.00,0.7044
4758.00,0.7077
4757.00,0.7114
4756.00,0.7153
4755.00,0.7196
4754.00,0.7241
4753.00,0.7288
4752.00,0.7338
4751.00,0.7389
4750.00,0.7443
4749.00,0.7500
4748.00,0.7559
4747.00,0.7621
4746.00,0.7685
4745.00,0.7750
4744.00,0.7817
4743.00,0.7886
4742.00,0.7956
4741.00,0.8027
4740.00,0.8099
4739.00,0.8173
4738.00,0.8249
4737.00,0.8327
4736.00,0.8406
4735.00,0.8486
4734.00,0.8567
4733.00,0.8649
4732.00,0.8731
4731.00,0.8815
4730.00,0.8899
4729.00,0.8983
4728.00,0.9067
4727.00,0.9151
4726.00,0.9236
4725.00,0.9322
4724.00,0.9408
4723.00,0.9495
4722.00,0.9582
4721.00,0.9669
4720.00,0.9757
4719.00,0.9845
4718.00,0.9934
4717.00,1.0022
4716.00,1.0110
4715.00,1.0197
4714.00,1.0283
4713.00,1.0368
4712.00,1.0453
4711.00,1.0538
4710.00,1.0623
4709.00,1.0708
4708.00,1.0792
4707.00,1.0877
4706.00,1.0961
4705.00,1.1044
4704.00,1.1128
4703.00,1.1210
4702.00,1.1292
4701.00,1.1374
4700.00,1.1455
4699.00,1.1535
4698.00,1.1615
4697.00,1.1693
4696.00,1.1770
4695.00,1.1846
4694.00,1.1923
4693.00,1.2000
4692.00,1.2075
4691.00,1.2150
4690.00,1.2224
4689.00,1.2297
4688.00,1.2370
4687.00,1.2442
4686.00,1.2512
4685.00,1.2580
4684.00,1.2647
4683.00,1.2714
4682.00,1.2780
4681.00,1.2846
4680.00,1.2910
4679.00,1.2973
4678.00,1.3035
4677.00,1.3095
4676.00,1.3154
4675.00,1.3212
4674.00,1.3271
4673.00,1.3329
4672.00,1.3386
4671.00,1.3442
4670.00,1.3497
4669.00,1.3553
4668.00,1.3607
4667.00,1.3659
4666.00,1.3709
4665.00,1.3758
4664.00,1.3806
4663.00,1.3855
4662.00,1.3905
4661.00,1.3954
4660.00,1.4001
4659.00,1.4047
4658.00,1.4091
4657.00,1.4133
4656.00,1.4175
4655.00,1.4217
4654.00,1.4258
4653.00,1.4300
4652.00,1.4343
4651.00,1.4385
4650.00,1.4426
4649.00,1.4466
4648.00,1.4505
4647.00,1.4542
4646.00,1.4578
4645.00,1.4614
4644.00,1.4651
4643.00,1.4687
4642.00,1.4723
4641.00,1.4758
4640.00,1.4791
4639.00,1.4823
4638.00,1.4853
4637.00,1.4883
4636.00,1.4912
4635.00,1.4940
4634.00,1.4969
4633.00,1.4997
4632.00,1.5025
4631.00,1.5052
4630.00,1.5078
4629.00,1.5102
4628.00,1.5126
4627.00,1.5150
4626.00,1.5174
4625.00,1.5197
4624.00,1.5219
4623.00,1.5241
4622.00,1.5261
4621.00,1.5281
4620.00,1.5302
4619.00,1.5321
4618.00,1.5339
4617.00,1.5356
4616.00,1.5371
4615.00,1.5385
4614.00,1.5398
4613.00,1.5411
4612.00,1.5425
4611.00,1.5439
4610.00,1.5453
4609.00,1.5465
4608.00,1.5477
4607.00,1.5489
4606.00,1.5499
4605.00,1.5507
4604.00,1.5515
4603.00,1.5521
4602.00,1.5528
4601.00,1.5534
4600.00,1.5541
4599.00,1.5547
4598.00,1.5553
4597.00,1.5557
4596.00,1.5560
4595.00,1.5563
4594.00,1.5563
4593.00,1.5561
4592.00,1.5558
4591.00,1.5555
4590.00,1.5554
4589.00,1.5553
4588.00,1.5552
4587.00,1.5549
4586.00,1.5544
4585.00,1.5538
4584.00,1.5533
4583.00,1.5530
4582.00,1.5528
4581.00,1.5524
4580.00,1.5516
4579.00,1.5505
4578.00,1.5494
4577.00,1.5483
4576.00,1.5474
4575.00,1.5464
4574.00,1.5453
4573.00,1.5440
4572.00,1.5425
4571.00,1.5410
4570.00,1.5395
4569.00,1.5380
4568.00,1.5366
4567.00,1.5351
4566.00,1.5334
4565.00,1.5316
4564.00,1.5297
4563.00,1.5278
4562.00,1.5259
4561.00,1.5240
4560.00,1.5219
4559.00,1.5197
4558.00,1.5173
4557.00,1.5151
4556.00,1.5130
4555.00,1.5108
4554.00,1.5084
4553.00,1.5058
4552.00,1.5030
4551.00,1.5002
4550.00,1.4972
4549.00,1.4943
4548.00,1.4912
4547.00,1.4880
4546.00,1.4846
4545.00,1.4811
4544.00,1.4778
4543.00,1.4746
4542.00,1.4713
4541.00,1.4678
4540.00,1.4641
4539.00,1.4603
4538.00,1.4564
4537.00,1.4524
4536.00,1.4484
4535.00,1.4444
4534.00,1.4402
4533.00,1.4359
4532.00,1.4315
4531.00,1.4272
4530.00,1.4229
4529.00,1.4184
4528.00,1.4138
4527.00,1.4092
4526.00,1.4045
4525.00,1.3997
4524.00,1.3947
4523.00,1.3896
4522.00,1.3843
4521.00,1.3788
4520.00,1.3733
4519.00,1.3677
4518.00,1.3621
4517.00,1.3565
4516.00,1.3508
4515.00,1.3451
4514.00,1.3393
4513.00,1.3333
4512.00,1.3272
4511.00,1.3208
4510.00,1.3143
4509.00,1.3077
4508.00,1.3011
4507.00,1.2945
4506.00,1.2878
4505.00,1.2809
4504.00,1.2738
4503.00,1.2667
4502.00,1.2596
4501.00,1.2524
4500.00,1.2452
4499.00,1.2378
4498.00,1.2303
4497.00,1.2227
4496.00,1.2150
4495.00,1.2071
4494.00,1.1990
4493.00,1.1908
4492.00,1.1825
4491.00,1.1742
4490.00,1.1659
4489.00,1.1574
4488.00,1.1488
4487.00,1.1401
4486.00,1.1312
4485.00,1.1223
4484.00,1.1133
4483.00,1.1042
4482.00,1.0951
4481.00,1.0859
4480.00,1.0767
4479.00,1.0673
4478.00,1.0579
4477.00,1.0484
4476.00,1.0389
4475.00,1.0293
4474.00,1.0196
4473.00,1.0100
4472.00,1.0002
4471.00,0.9903
4470.00,0.9805
4469.00,0.9706
4468.00,0.9608
4467.00,0.9510
4466.00,0.9413
4465.00,0.9315
4464.00,0.9217
4463.00,0.9119
4462.00,0.9021
4461.00,0.8924
4460.00,0.8829
4459.00,0.8734
4458.00,0.8641
4457.00,0.8549
4456.00,0.8459
4455.00,0.8370
4454.00,0.8282
4453.00,0.8196
4452.00,0.8113
4451.00,0.8031
4450.00,0.7952
4449.00,0.7876
4448.00,0.7802
4447.00,0.7731
4446.00,0.7662
4445.00,0.7597
4444.00,0.7535
4443.00,0.7476
4442.00,0.7422
4441.00,0.7370
4440.00,0.7323
4439.00,0.7280
4438.00,0.7241
4437.00,0.7205
4436.00,0.7174
4435.00,0.7147
4434.00,0.7125
4433.00,0.7107
4432.00,0.7093
4431.00,0.7084
4430.00,0.7080
4429.00,0.7079
4428.00,0.7083
4427.00,0.7092
4426.00,0.7105
4425.00,0.7123
4424.00,0.7144
4423.00,0.7169
4422.00,0.7198
4421.00,0.7232
4420.00,0.7269
4419.00,0.7311
4418.00,0.7356
4417.00,0.7404
4416.00,0.7456
4415.00,0.7511
4414.00,0.7569
4413.00,0.7631
4412.00,0.7695
4411.00,0.7763
4410.00,0.7833
4409.00,0.7906
4408.00,0.7981
4407.00,0.8058
4406.00,0.8137
4405.00,0.8218
4404.00,0.8302
4403.00,0.8387
4402.00,0.8473
4401.00,0.8562
4400.00,0.8651
4399.00,0.8742
4398.00,0.8835
4397.00,0.8928
4396.00,0.9022
4395.00,0.9117
4394.00,0.9214
4393.00,0.9311
4392.00,0.9409
4391.00,0.9507
4390.00,0.9605
4389.00,0.9703
4388.00,0.9800
4387.00,0.9898
4386.00,0.9996
4385.00,1.0094
4384.00,1.0193
4383.00,1.0291
4382.00,1.0389
4381.00,1.0488
4380.00,1.0586
4379.00,1.0683
4378.00,1.0780
4377.00,1.0875
4376.00,1.0970
4375.00,1.1064
4374.00,1.1158
4373.00,1.1251
4372.00,1.1342
4371.00,1.1432
4370.00,1.1520
4369.00,1.1608
4368.00,1.1695
4367.00,1.1781
4366.00,1.1866
4365.00,1.1950
4364.00,1.2034
4363.00,1.2116
4362.00,1.2198
4361.00,1.2279
4360.00,1.2359
4359.00,1.2439
4358.00,1.2519
4357.00,1.2599
4356.00,1.2678
4355.00,1.2756
4354.00,1.2834
4353.00,1.2910
4352.00,1.2986
4351.00,1.3062
4350.00,1.3137
4349.00,1.3210
4348.00,1.3282
4347.00,1.3353
4346.00,1.3423
4345.00,1.3492
4344.00,1.3560
4343.00,1.3629
4342.00,1.3698
4341.00,1.3767
4340.00,1.3834
4339.00,1.3899
4338.00,1.3962
4337.00,1.4025
4336.00,1.4087
4335.00,1.4149
4334.00,1.4210
4333.00,1.4269
4332.00,1.4328
4331.00,1.4387
4330.00,1.4445
4329.00,1.4503
4328.00,1.4560
4327.00,1.4618
4326.00,1.4675
4325.00,1.4733
4324.00,1.4790
4323.00,1.4845
4322.00,1.4896
4321.00,1.4945
4320.00,1.4995
4319.00,1.5045
4318.00,1.5097
4317.00,1.5147
4316.00,1.5197
4315.00,1.5244
4314.00,1.5288
4313.00,1.5330
4312.00,1.5369
4311.00,1.5406
4310.00,1.5444
4309.00,1.5482
4308.00,1.5523
4307.00,1.5564
4306.00,1.5605
4305.00,1.5645
4304.00,1.5683
4303.00,1.5720
4302.00,1.5754
4301.00,1.5788
4300.00,1.5823
4299.00,1.5857
4298.00,1.5890
4297.00,1.5921
4296.00,1.5952
4295.00,1.5982
4294.00,1.6013
4293.00,1.6043
4292.00,1.6072
4291.00,1.6099
4290.00,1.6125
4289.00,1.6150
4288.00,1.6175
4287.00,1.6200
4286.00,1.6223
4285.00,1.6245
4284.00,1.6267
4283.00,1.6289
4282.00,1.6311
4281.00,1.6331
4280.00,1.6351
4279.00,1.6370
4278.00,1.6387
4277.00,1.6403
4276.00,1.6418
4275.00,1.6433
4274.00,1.6448
4273.00,1.6464
4272.00,1.6479
4271.00,1.6493
4270.00,1.6505
4269.00,1.6515
4268.00,1.6525
4267.00,1.6535
4266.00,1.6545
4265.00,1.6555
4264.00,1.6565
4263.00,1.6573
4262.00,1.6578
4261.00,1.6583
4260.00,1.6586
4259.00,1.6589
4258.00,1.6592
4257.00,1.6596
4256.00,1.6600
4255.00,1.6604
4254.00,1.6607
4253.00,1.6608
4252.00,1.6608
4251.00,1.6608
4250.00,1.6607
4249.00,1.6606
4248.00,1.6605
4247.00,1.6603
4246.00,1.6600
4245.00,1.6596
4244.00,1.6591
4243.00,1.6584
4242.00,1.6576
4241.00,1.6568
4240.00,1.6561
4239.00,1.6553
4238.00,1.6542
4237.00,1.6530
4236.00,1.6517
4235.00,1.6506
4234.00,1.6497
4233.00,1.6489
4232.00,1.6480
4231.00,1.6468
4230.00,1.6452
4229.00,1.6433
4228.00,1.6413
4227.00,1.6394
4226.00,1.6378
4225.00,1.6363
4224.00,1.6349
4223.00,1.6334
4222.00,1.6318
4221.00,1.6301
4220.00,1.6283
4219.00,1.6263
4218.00,1.6241
4217.00,1.6216
4216.00,1.6188
4215.00,1.6159
4214.00,1.6131
4213.00,1.6104
4212.00,1.6079
4211.00,1.6054
4210.00,1.6025
4209.00,1.5993
4208.00,1.5959
4207.00,1.5926
4206.00,1.5894
4205.00,1.5862
4204.00,1.5830
4203.00,1.5795
4202.00,1.5759
4201.00,1.5723
4200.00,1.5685
4199.00,1.5648
4198.00,1.5609
4197.00,1.5568
4196.00,1.5525
4195.00,1.5483
4194.00,1.5440
4193.00,1.5398
4192.00,1.5355
4191.00,1.5309
4190.00,1.5261
4189.00,1.5213
4188.00,1.5167
4187.00,1.5122
4186.00,1.5076
4185.00,1.5027
4184.00,1.4977
4183.00,1.4925
4182.00,1.4871
4181.00,1.4817
4180.00,1.4762
4179.00,1.4706
4178.00,1.4650
4177.00,1.4593
4176.00,1.4534
4175.00,1.4473
4174.00,1.4410
4173.00,1.4345
4172.00,1.4281
4171.00,1.4218
4170.00,1.4155
4169.00,1.4090
4168.00,1.4025
4167.00,1.3957
4166.00,1.3888
4165.00,1.3817
4164.00,1.3746
4163.00,1.3673
4162.00,1.3599
4161.00,1.3524
4160.00,1.3448
4159.00,1.3372
4158.00,1.3294
4157.00,1.3215
4156.00,1.3134
4155.00,1.3052
4154.00,1.2969
4153.00,1.2885
4152.00,1.2801
4151.00,1.2715
4150.00,1.2628
4149.00,1.2540
4148.00,1.2450
4147.00,1.2359
4146.00,1.2267
4145.00,1.2173
4144.00,1.2079
4143.00,1.1983
4142.00,1.1886
4141.00,1.1788
4140.00,1.1688
4139.00,1.1588
4138.00,1.1486
4137.00,1.1384
4136.00,1.1281
4135.00,1.1177
4134.00,1.1073
4133.00,1.0968
4132.00,1.0862
4131.00,1.0756
4130.00,1.0648
4129.00,1.0540
4128.00,1.0432
4127.00,1.0323
4126.00,1.0214
4125.00,1.0105
4124.00,0.9996
4123.00,0.9888
4122.00,0.9779
4121.00,0.9669
4120.00,0.9560
4119.00,0.9450
4118.00,0.9342
4117.00,0.9234
4116.00,0.9128
4115.00,0.9023
4114.00,0.8919
4113.00,0.8816
4112.00,0.8715
4111.00,0.8616
4110.00,0.8519
4109.00,0.8425
4108.00,0.8333
4107.00,0.8244
4106.00,0.8158
4105.00,0.8075
4104.00,0.7996
4103.00,0.7920
4102.00,0.7848
4101.00,0.7780
4100.00,0.7716
4099.00,0.7656
4098.00,0.7601
4097.00,0.7550
4096.00,0.7505
4095.00,0.7464
4094.00,0.7429
4093.00,0.7399
4092.00,0.7375
4091.00,0.7356
4090.00,0.7343
4089.00,0.7335
4088.00,0.7332
4087.00,0.7335
4086.00,0.7343
4085.00,0.7356
4084.00,0.7374
4083.00,0.7397
4082.00,0.7424
4081.00,0.7457
4080.00,0.7493
4079.00,0.7534
4078.00,0.7579
4077.00,0.7628
4076.00,0.7681
4075.00,0.7738
4074.00,0.7798
4073.00,0.7862
4072.00,0.7929
4071.00,0.8000
4070.00,0.8075
4069.00,0.8153
4068.00,0.8235
4067.00,0.8319
4066.00,0.8407
4065.00,0.8497
4064.00,0.8590
4063.00,0.8685
4062.00,0.8783
4061.00,0.8883
4060.00,0.8984
4059.00,0.9088
4058.00,0.9193
4057.00,0.9299
4056.00,0.9408
4055.00,0.9517
4054.00,0.9628
4053.00,0.9740
4052.00,0.9852
4051.00,0.9964
4050.00,1.0076
4049.00,1.0189
4048.00,1.0302
4047.00,1.0414
4046.00,1.0527
4045.00,1.0640
4044.00,1.0753
4043.00,1.0866
4042.00,1.0979
4041.00,1.1090
4040.00,1.1201
4039.00,1.1312
4038.00,1.1422
4037.00,1.1532
4036.00,1.1641
4035.00,1.1750
4034.00,1.1858
4033.00,1.1966
4032.00,1.2073
4031.00,1.2179
4030.00,1.2284
4029.00,1.2387
4028.00,1.2490
4027.00,1.2592
4026.00,1.2694
4025.00,1.2797
4024.00,1.2899
4023.00,1.2999
4022.00,1.3098
4021.00,1.3194
4020.00,1.3289
4019.00,1.3383
4018.00,1.3476
4017.00,1.3567
4016.00,1.3656
4015.00,1.3745
4014.00,1.3833
4013.00,1.3920
4012.00,1.4006
4011.00,1.4089
4010.00,1.4171
4009.00,1.4251
4008.00,1.4331
4007.00,1.4410
4006.00,1.4490
4005.00,1.4569
4004.00,1.4647
4003.00,1.4722
4002.00,1.4795
4001.00,1.4866
4000.00,1.4937
3999.00,1.5009
3998.00,1.5082
3997.00,1.5154
3996.00,1.5225
3995.00,1.5294
3994.00,1.5360
3993.00,1.5423
3992.00,1.5486
3991.00,1.5550
3990.00,1.5614
3989.00,1.5676
3988.00,1.5736
3987.00,1.5794
3986.00,1.5850
3985.00,1.5907
3984.00,1.5965
3983.00,1.6022
3982.00,1.6078
3981.00,1.6132
3980.00,1.6185
3979.00,1.6237
3978.00,1.6288
3977.00,1.6339
3976.00,1.6388
3975.00,1.6435
3974.00,1.6481
3973.00,1.6527
3972.00,1.6572
3971.00,1.6617
3970.00,1.6661
3969.00,1.6704
3968.00,1.6747
3967.00,1.6789
3966.00,1.6830
3965.00,1.6870
3964.00,1.6908
3963.00,1.6945
3962.00,1.6983
3961.00,1.7021
3960.00,1.7058
3959.00,1.7096
3958.00,1.7132
3957.00,1.7166
3956.00,1.7198
3955.00,1.7227
3954.00,1.7255
3953.00,1.7283
3952.00,1.7313
3951.00,1.7343
3950.00,1.7372
3949.00,1.7400
3948.00,1.7426
3947.00,1.7450
3946.00,1.7473
3945.00,1.7494
3944.00,1.7513
3943.00,1.7534
3942.00,1.7556
3941.00,1.7580
3940.00,1.7604
3939.00,1.7625
3938.00,1.7645
3937.00,1.7661
3936.00,1.7675
3935.00,1.7687
3934.00,1.7700
3933.00,1.7713
3932.00,1.7726
3931.00,1.7738
3930.00,1.7750
3929.00,1.7761
3928.00,1.7773
3927.00,1.7788
3926.00,1.7806
3925.00,1.7825
3924.00,1.7840
3923.00,1.7851
3922.00,1.7858
3921.00,1.7865
3920.00,1.7871
3919.00,1.7876
3918.00,1.7879
3917.00,1.7881
3916.00,1.7883
3915.00,1.7883
3914.00,1.7883
3913.00,1.7883
3912.00,1.7884
3911.00,1.7886
3910.00,1.7888
3909.00,1.7888
3908.00,1.7885
3907.00,1.7879
3906.00,1.7872
3905.00,1.7867
3904.00,1.7862
3903.00,1.7855
3902.00,1.7847
3901.00,1.7836
3900.00,1.7826
3899.00,1.7817
3898.00,1.7809
3897.00,1.7803
3896.00,1.7799
3895.00,1.7796
3894.00,1.7791
3893.00,1.7781
3892.00,1.7767
3891.00,1.7755
3890.00,1.7741
3889.00,1.7722
3888.00,1.7696
3887.00,1.7671
3886.00,1.7653
3885.00,1.7641
3884.00,1.7628
3883.00,1.7609
3882.00,1.7583
3881.00,1.7556
3880.00,1.7533
3879.00,1.7514
3878.00,1.7494
3877.00,1.7470
3876.00,1.7443
3875.00,1.7419
3874.00,1.7398
3873.00,1.7374
3872.00,1.7343
3871.00,1.7310
3870.00,1.7280
3869.00,1.7249
3868.00,1.7214
3867.00,1.7176
3866.00,1.7142
3865.00,1.7112
3864.00,1.7082
3863.00,1.7049
3862.00,1.7013
3861.00,1.6978
3860.00,1.6949
3859.00,1.6927
3858.00,1.6906
3857.00,1.6875
3856.00,1.6829
3855.00,1.6775
3854.00,1.6715
3853.00,1.6651
3852.00,1.6585
3851.00,1.6523
3850.00,1.6470
3849.00,1.6425
3848.00,1.6384
3847.00,1.6343
3846.00,1.6298
3845.00,1.6249
3844.00,1.6198
3843.00,1.6149
3842.00,1.6099
3841.00,1.6044
3840.00,1.5981
3839.00,1.5914
3838.00,1.5846
3837.00,1.5778
3836.00,1.5712
3835.00,1.5645
3834.00,1.5578
3833.00,1.5510
3832.00,1.5443
3831.00,1.5378
3830.00,1.5314
3829.00,1.5245
3828.00,1.5173
3827.00,1.5101
3826.00,1.5030
3825.00,1.4956
3824.00,1.4875
3823.00,1.4791
3822.00,1.4709
3821.00,1.4630
3820.00,1.4552
3819.00,1.4471
3818.00,1.4385
3817.00,1.4294
3816.00,1.4201
3815.00,1.4107
3814.00,1.4012
3813.00,1.3918
3812.00,1.3828
3811.00,1.3739
3810.00,1.3647
3809.00,1.3547
3808.00,1.3442
3807.00,1.3337
3806.00,1.3233
3805.00,1.3126
3804.00,1.3014
3803.00,1.2899
3802.00,1.2783
3801.00,1.2666
3800.00,1.2549
3799.00,1.2430
3798.00,1.2313
3797.00,1.2198
3796.00,1.2084
3795.00,1.1971
3794.00,1.1856
3793.00,1.1737
3792.00,1.1616
3791.00,1.1491
3790.00,1.1365
3789.00,1.1237
3788.00,1.1109
3787.00,1.0979
3786.00,1.0848
3785.00,1.0717
3784.00,1.0584
3783.00,1.0452
3782.00,1.0321
3781.00,1.0190
3780.00,1.0058
3779.00,0.9926
3778.00,0.9793
3777.00,0.9659
3776.00,0.9528
3775.00,0.9401
3774.00,0.9278
3773.00,0.9156
3772.00,0.9035
3771.00,0.8915
3770.00,0.8798
3769.00,0.8682
3768.00,0.8567
3767.00,0.8456
3766.00,0.8350
3765.00,0.8250
3764.00,0.8156
3763.00,0.8067
3762.00,0.7985
3761.00,0.7909
3760.00,0.7839
3759.00,0.7774
3758.00,0.7716
3757.00,0.7666
3756.00,0.7623
3755.00,0.7587
3754.00,0.7559
3753.00,0.7539
3752.00,0.7524
3751.00,0.7511
3750.00,0.7507
3749.00,0.7515
3748.00,0.7530
3747.00,0.7544
3746.00,0.7561
3745.00,0.7594
3744.00,0.7640
3743.00,0.7691
3742.00,0.7744
3741.00,0.7803
3740.00,0.7873
3739.00,0.7950
3738.00,0.8034
3737.00,0.8126
3736.00,0.8226
3735.00,0.8326
3734.00,0.8423
3733.00,0.8520
3732.00,0.8624
3731.00,0.8733
3730.00,0.8841
3729.00,0.8945
3728.00,0.9049
3727.00,0.9160
3726.00,0.9278
3725.00,0.9399
3724.00,0.9523
3723.00,0.9651
3722.00,0.9783
3721.00,0.9920
3720.00,1.0059
3719.00,1.0199
3718.00,1.0342
3717.00,1.0485
3716.00,1.0622
3715.00,1.0752
3714.00,1.0879
3713.00,1.1012
3712.00,1.1156
3711.00,1.1307
3710.00,1.1456
3709.00,1.1602
3708.00,1.1745
3707.00,1.1886
3706.00,1.2022
3705.00,1.2156
3704.00,1.2289
3703.00,1.2423
3702.00,1.2560
3701.00,1.2700
3700.00,1.2840
3699.00,1.2975
3698.00,1.3106
3697.00,1.3235
3696.00,1.3362
3695.00,1.3487
3694.00,1.3608
3693.00,1.3729
3692.00,1.3852
3691.00,1.3972
3690.00,1.4089
3689.00,1.4208
3688.00,1.4333
3687.00,1.4456
3686.00,1.4573
3685.00,1.4684
3684.00,1.4792
3683.00,1.4896
3682.00,1.4997
3681.00,1.5096
3680.00,1.5197
3679.00,1.5292
3678.00,1.5378
3677.00,1.5460
3676.00,1.5552
3675.00,1.5653
3674.00,1.5753
3673.00,1.5843
3672.00,1.5928
3671.00,1.6014
3670.00,1.6106
3669.00,1.6198
3668.00,1.6288
3667.00,1.6373
3666.00,1.6455
3665.00,1.6534
3664.00,1.6613
3663.00,1.6688
3662.00,1.6761
3661.00,1.6836
3660.00,1.6910
3659.00,1.6976
3658.00,1.7034
3657.00,1.7091
3656.00,1.7152
3655.00,1.7216
3654.00,1.7273
3653.00,1.7325
3652.00,1.7377
3651.00,1.7433
3650.00,1.7490
3649.00,1.7548
3648.00,1.7607
3647.00,1.7668
3646.00,1.7731
3645.00,1.7793
3644.00,1.7856
3643.00,1.7915
3642.00,1.7970
3641.00,1.8025
3640.00,1.8079
3639.00,1.8132
3638.00,1.8181
3637.00,1.8228
3636.00,1.8274
3635.00,1.8320
3634.00,1.8367
3633.00,1.8409
3632.00,1.8443
3631.00,1.8468
3630.00,1.8492
3629.00,1.8520
3628.00,1.8553
3627.00,1.8583
3626.00,1.8610
3625.00,1.8641
3624.00,1.8680
3623.00,1.8718
3622.00,1.8749
3621.00,1.8774
3620.00,1.8798
3619.00,1.8825
3618.00,1.8856
3617.00,1.8891
3616.00,1.8927
3615.00,1.8962
3614.00,1.8993
3613.00,1.9023
3612.00,1.9052
3611.00,1.9078
3610.00,1.9099
3609.00,1.9119
3608.00,1.9139
3607.00,1.9159
3606.00,1.9180
3605.00,1.9204
3604.00,1.9228
3603.00,1.9249
3602.00,1.9267
3601.00,1.9287
3600.00,1.9311
3599.00,1.9333
3598.00,1.9350
3597.00,1.9366
3596.00,1.9381
3595.00,1.9397
3594.00,1.9412
3593.00,1.9427
3592.00,1.9442
3591.00,1.9453
3590.00,1.9460
3589.00,1.9466
3588.00,1.9471
3587.00,1.9477
3586.00,1.9485
3585.00,1.9496
3584.00,1.9507
3583.00,1.9515
3582.00,1.9517
3581.00,1.9518
3580.00,1.9517
3579.00,1.9513
3578.00,1.9508
3577.00,1.9504
3576.00,1.9504
3575.00,1.9504
3574.00,1.9503
3573.00,1.9502
3572.00,1.9501
3571.00,1.9495
3570.00,1.9483
3569.00,1.9468
3568.00,1.9453
3567.00,1.9438
3566.00,1.9421
3565.00,1.9408
3564.00,1.9400
3563.00,1.9393
3562.00,1.9384
3561.00,1.9373
3560.00,1.9360
3559.00,1.9346
3558.00,1.9331
3557.00,1.9313
3556.00,1.9294
3555.00,1.9272
3554.00,1.9248
3553.00,1.9229
3552.00,1.9216
3551.00,1.9206
3550.00,1.9196
3549.00,1.9187
3548.00,1.9178
3547.00,1.9170
3546.00,1.9163
3545.00,1.9156
3544.00,1.9145
3543.00,1.9129
3542.00,1.9108
3541.00,1.9088
3540.00,1.9070
3539.00,1.9055
3538.00,1.9039
3537.00,1.9021
3536.00,1.8998
3535.00,1.8968
3534.00,1.8932
3533.00,1.8897
3532.00,1.8864
3531.00,1.8833
3530.00,1.8803
3529.00,1.8775
3528.00,1.8748
3527.00,1.8721
3526.00,1.8690
3525.00,1.8658
3524.00,1.8625
3523.00,1.8587
3522.00,1.8547
3521.00,1.8506
3520.00,1.8467
3519.00,1.8428
3518.00,1.8387
3517.00,1.8345
3516.00,1.8302
3515.00,1.8259
3514.00,1.8215
3513.00,1.8170
3512.00,1.8123
3511.00,1.8072
3510.00,1.8019
3509.00,1.7965
3508.00,1.7911
3507.00,1.7857
3506.00,1.7803
3505.00,1.7749
3504.00,1.7694
3503.00,1.7638
3502.00,1.7580
3501.00,1.7522
3500.00,1.7464
3499.00,1.7404
3498.00,1.7341
3497.00,1.7276
3496.00,1.7208
3495.00,1.7137
3494.00,1.7064
3493.00,1.6991
3492.00,1.6920
3491.00,1.6847
3490.00,1.6771
3489.00,1.6692
3488.00,1.6613
3487.00,1.6531
3486.00,1.6447
3485.00,1.6363
3484.00,1.6277
3483.00,1.6192
3482.00,1.6105
3481.00,1.6018
3480.00,1.5931
3479.00,1.5840
3478.00,1.5747
3477.00,1.5652
3476.00,1.5556
3475.00,1.5459
3474.00,1.5359
3473.00,1.5257
3472.00,1.5154
3471.00,1.5049
3470.00,1.4942
3469.00,1.4833
3468.00,1.4722
3467.00,1.4609
3466.00,1.4494
3465.00,1.4377
3464.00,1.4258
3463.00,1.4138
3462.00,1.4016
3461.00,1.3893
3460.00,1.3768
3459.00,1.3642
3458.00,1.3515
3457.00,1.3387
3456.00,1.3257
3455.00,1.3126
3454.00,1.2993
3453.00,1.2859
3452.00,1.2725
3451.00,1.2590
3450.00,1.2455
3449.00,1.2318
3448.00,1.2182
3447.00,1.2046
3446.00,1.1910
3445.00,1.1775
3444.00,1.1641
3443.00,1.1509
3442.00,1.1379
3441.00,1.1250
3440.00,1.1123
3439.00,1.0999
3438.00,1.0878
3437.00,1.0759
3436.00,1.0645
3435.00,1.0536
3434.00,1.0432
3433.00,1.0335
3432.00,1.0244
3431.00,1.0161
3430.00,1.0084
3429.00,1.0016
3428.00,0.9955
3427.00,0.9904
3426.00,0.9862
3425.00,0.9830
3424.00,0.9807
3423.00,0.9794
3422.00,0.9791
3421.00,0.9798
3420.00,0.9815
3419.00,0.9839
3418.00,0.9872
3417.00,0.9911
3416.00,0.9957
3415.00,1.0008
3414.00,1.0063
3413.00,1.0120
3412.00,1.0177
3411.00,1.0233
3410.00,1.0287
3409.00,1.0339
3408.00,1.0388
3407.00,1.0432
3406.00,1.0469
3405.00,1.0501
3404.00,1.0527
3403.00,1.0549
3402.00,1.0566
3401.00,1.0582
3400.00,1.0597
3399.00,1.0613
3398.00,1.0633
3397.00,1.0656
3396.00,1.0685
3395.00,1.0720
3394.00,1.0762
3393.00,1.0811
3392.00,1.0869
3391.00,1.0934
3390.00,1.1007
3389.00,1.1088
3388.00,1.1176
3387.00,1.1270
3386.00,1.1369
3385.00,1.1474
3384.00,1.1583
3383.00,1.1696
3382.00,1.1812
3381.00,1.1931
3380.00,1.2054
3379.00,1.2179
3378.00,1.2307
3377.00,1.2438
3376.00,1.2570
3375.00,1.2704
3374.00,1.2839
3373.00,1.2974
3372.00,1.3108
3371.00,1.3241
3370.00,1.3374
3369.00,1.3507
3368.00,1.3640
3367.00,1.3775
3366.00,1.3909
3365.00,1.4043
3364.00,1.4176
3363.00,1.4306
3362.00,1.4434
3361.00,1.4560
3360.00,1.4685
3359.00,1.4810
3358.00,1.4934
3357.00,1.5056
3356.00,1.5177
3355.00,1.5296
3354.00,1.5413
3353.00,1.5530
3352.00,1.5646
3351.00,1.5759
3350.00,1.5869
3349.00,1.5976
3348.00,1.6082
3347.00,1.6187
3346.00,1.6291
3345.00,1.6393
3344.00,1.6495
3343.00,1.6593
3342.00,1.6691
3341.00,1.6787
3340.00,1.6884
3339.00,1.6980
3338.00,1.7073
3337.00,1.7163
3336.00,1.7251
3335.00,1.7338
3334.00,1.7424
3333.00,1.7509
3332.00,1.7591
3331.00,1.7672
3330.00,1.7749
3329.00,1.7826
3328.00,1.7903
3327.00,1.7979
3326.00,1.8054
3325.00,1.8128
3324.00,1.8201
3323.00,1.8271
3322.00,1.8338
3321.00,1.8401
3320.00,1.8463
3319.00,1.8523
3318.00,1.8582
3317.00,1.8640
3316.00,1.8699
3315.00,1.8759
3314.00,1.8819
3313.00,1.8879
3312.00,1.8939
3311.00,1.8997
3310.00,1.9054
3309.00,1.9113
3308.00,1.9176
3307.00,1.9242
3306.00,1.9306
3305.00,1.9364
3304.00,1.9410
3303.00,1.9448
3302.00,1.9483
3301.00,1.9524
3300.00,1.9573
3299.00,1.9624
3298.00,1.9675
3297.00,1.9727
3296.00,1.9778
3295.00,1.9828
3294.00,1.9874
3293.00,1.9920
3292.00,1.9965
3291.00,2.0007
3290.00,2.0046
3289.00,2.0082
3288.00,2.0116
3287.00,2.0152
3286.00,2.0189
3285.00,2.0227
3284.00,2.0263
3283.00,2.0295
3282.00,2.0326
3281.00,2.0359
3280.00,2.0395
3279.00,2.0429
3278.00,2.0460
3277.00,2.0491
3276.00,2.0524
3275.00,2.0555
3274.00,2.0585
3273.00,2.0616
3272.00,2.0650
3271.00,2.0683
3270.00,2.0712
3269.00,2.0734
3268.00,2.0750
3267.00,2.0761
3266.00,2.0771
3265.00,2.0782
3264.00,2.0799
3263.00,2.0819
3262.00,2.0840
3261.00,2.0861
3260.00,2.0882
3259.00,2.0899
3258.00,2.0913
3257.00,2.0928
3256.00,2.0944
3255.00,2.0958
3254.00,2.0969
3253.00,2.0975
3252.00,2.0981
3251.00,2.0987
3250.00,2.0995
3249.00,2.1007
3248.00,2.1020
3247.00,2.1032
3246.00,2.1041
3245.00,2.1047
3244.00,2.1052
3243.00,2.1053
3242.00,2.1051
3241.00,2.1051
3240.00,2.1053
3239.00,2.1057
3238.00,2.1060
3237.00,2.1063
3236.00,2.1064
3235.00,2.1062
3234.00,2.1059
3233.00,2.1056
3232.00,2.1050
3231.00,2.1040
3230.00,2.1028
3229.00,2.1019
3228.00,2.1014
3227.00,2.1009
3226.00,2.1002
3225.00,2.0992
3224.00,2.0978
3223.00,2.0962
3222.00,2.0945
3221.00,2.0933
3220.00,2.0925
3219.00,2.0917
3218.00,2.0905
3217.00,2.0888
3216.00,2.0867
3215.00,2.0843
3214.00,2.0822
3213.00,2.0805
3212.00,2.0791
3211.00,2.0775
3210.00,2.0752
3209.00,2.0725
3208.00,2.0698
3207.00,2.0671
3206.00,2.0643
3205.00,2.0614
3204.00,2.0582
3203.00,2.0549
3202.00,2.0516
3201.00,2.0486
3200.00,2.0460
3199.00,2.0432
3198.00,2.0400
3197.00,2.0366
3196.00,2.0332
3195.00,2.0296
3194.00,2.0258
3193.00,2.0219
3192.00,2.0180
3191.00,2.0140
3190.00,2.0098
3189.00,2.0057
3188.00,2.0015
3187.00,1.9971
3186.00,1.9926
3185.00,1.9881
3184.00,1.9837
3183.00,1.9789
3182.00,1.9737
3181.00,1.9683
3180.00,1.9627
3179.00,1.9572
3178.00,1.9519
3177.00,1.9467
3176.00,1.9414
3175.00,1.9357
3174.00,1.9293
3173.00,1.9228
3172.00,1.9164
3171.00,1.9100
3170.00,1.9034
3169.00,1.8967
3168.00,1.8900
3167.00,1.8833
3166.00,1.8765
3165.00,1.8692
3164.00,1.8617
3163.00,1.8538
3162.00,1.8458
3161.00,1.8377
3160.00,1.8296
3159.00,1.8215
3158.00,1.8135
3157.00,1.8053
3156.00,1.7967
3155.00,1.7877
3154.00,1.7784
3153.00,1.7690
3152.00,1.7597
3151.00,1.7501
3150.00,1.7402
3149.00,1.7301
3148.00,1.7199
3147.00,1.7097
3146.00,1.6994
3145.00,1.6888
3144.00,1.6778
3143.00,1.6665
3142.00,1.6549
3141.00,1.6430
3140.00,1.6309
3139.00,1.6186
3138.00,1.6060
3137.00,1.5932
3136.00,1.5803
3135.00,1.5672
3134.00,1.5539
3133.00,1.5402
3132.00,1.5263
3131.00,1.5122
3130.00,1.4978
3129.00,1.4832
3128.00,1.4683
3127.00,1.4530
3126.00,1.4374
3125.00,1.4216
3124.00,1.4056
3123.00,1.3893
3122.00,1.3728
3121.00,1.3561
3120.00,1.3391
3119.00,1.3220
3118.00,1.3047
3117.00,1.2873
3116.00,1.2697
3115.00,1.2521
3114.00,1.2344
3113.00,1.2167
3112.00,1.1990
3111.00,1.1814
3110.00,1.1638
3109.00,1.1464
3108.00,1.1293
3107.00,1.1125
3106.00,1.0961
3105.00,1.0802
3104.00,1.0648
3103.00,1.0499
3102.00,1.0357
3101.00,1.0222
3100.00,1.0096
3099.00,0.9979
3098.00,0.9872
3097.00,0.9776
3096.00,0.9693
3095.00,0.9621
3094.00,0.9563
3093.00,0.9518
3092.00,0.9487
3091.00,0.9470
3090.00,0.9468
3089.00,0.9479
3088.00,0.9505
3087.00,0.9543
3086.00,0.9594
3085.00,0.9656
3084.00,0.9731
3083.00,0.9817
3082.00,0.9914
3081.00,1.0022
3080.00,1.0139
3079.00,1.0266
3078.00,1.0401
3077.00,1.0545
3076.00,1.0696
3075.00,1.0854
3074.00,1.1017
3073.00,1.1186
3072.00,1.1359
3071.00,1.1537
3070.00,1.1718
3069.00,1.1903
3068.00,1.2089
3067.00,1.2277
3066.00,1.2467
3065.00,1.2658
3064.00,1.2850
3063.00,1.3043
3062.00,1.3235
3061.00,1.3427
3060.00,1.3618
3059.00,1.3809
3058.00,1.3998
3057.00,1.4186
3056.00,1.4373
3055.00,1.4557
3054.00,1.4738
3053.00,1.4919
3052.00,1.5099
3051.00,1.5277
3050.00,1.5451
3049.00,1.5624
3048.00,1.5794
3047.00,1.5964
3046.00,1.6133
3045.00,1.6301
3044.00,1.6468
3043.00,1.6633
3042.00,1.6797
3041.00,1.6960
3040.00,1.7120
3039.00,1.7279
3038.00,1.7435
3037.00,1.7589
3036.00,1.7742
3035.00,1.7893
3034.00,1.8040
3033.00,1.8184
3032.00,1.8325
3031.00,1.8461
3030.00,1.8594
3029.00,1.8724
3028.00,1.8853
3027.00,1.8979
3026.00,1.9102
3025.00,1.9222
3024.00,1.9339
3023.00,1.9454
3022.00,1.9570
3021.00,1.9685
3020.00,1.9799
3019.00,1.9911
3018.00,2.0023
3017.00,2.0136
3016.00,2.0249
3015.00,2.0357
3014.00,2.0462
3013.00,2.0563
3012.00,2.0664
3011.00,2.0761
3010.00,2.0854
3009.00,2.0945
3008.00,2.1038
3007.00,2.1133
3006.00,2.1231
3005.00,2.1327
3004.00,2.1418
3003.00,2.1503
3002.00,2.1588
3001.00,2.1675
3000.00,2.1764
2999.00,2.1849
2998.00,2.1928
2997.00,2.2006
2996.00,2.2083
2995.00,2.2160
2994.00,2.2233
2993.00,2.2303
2992.00,2.2371
2991.00,2.2438
2990.00,2.2506
2989.00,2.2576
2988.00,2.2645
2987.00,2.2711
2986.00,2.2772
2985.00,2.2827
2984.00,2.2881
2983.00,2.2936
2982.00,2.2993
2981.00,2.3054
2980.00,2.3114
2979.00,2.3170
2978.00,2.3222
2977.00,2.3275
2976.00,2.3336
2975.00,2.3409
2974.00,2.3504
2973.00,2.3623
2972.00,2.3759
2971.00,2.3906
2970.00,2.4066
2969.00,2.4251
2968.00,2.4469
2967.00,2.4715
2966.00,2.4986
2965.00,2.5283
2964.00,2.5612
2963.00,2.5970
2962.00,2.6343
2961.00,2.6712
2960.00,2.7056
2959.00,2.7366
2958.00,2.7650
2957.00,2.7922
2956.00,2.8188
2955.00,2.8441
2954.00,2.8684
2953.00,2.8933
2952.00,2.9198
2951.00,2.9480
2950.00,2.9776
2949.00,3.0095
2948.00,3.0434
2947.00,3.0774
2946.00,3.1095
2945.00,3.1397
2944.00,3.1683
2943.00,3.1938
2942.00,3.2137
2941.00,3.2274
2940.00,3.2375
2939.00,3.2478
2938.00,3.2599
2937.00,3.2708
2936.00,3.2736
2935.00,3.2632
2934.00,3.2402
2933.00,3.2087
2932.00,3.1715
2931.00,3.1310
2930.00,3.0895
2929.00,3.0473
2928.00,3.0018
2927.00,2.9520
2926.00,2.9006
2925.00,2.8512
2924.00,2.8045
2923.00,2.7590
2922.00,2.7143
2921.00,2.6712
2920.00,2.6308
2919.00,2.5932
2918.00,2.5582
2917.00,2.5260
2916.00,2.4978
2915.00,2.4744
2914.00,2.4557
2913.00,2.4410
2912.00,2.4291
2911.00,2.4198
2910.00,2.4133
2909.00,2.4094
2908.00,2.4069
2907.00,2.4046
2906.00,2.4024
2905.00,2.4010
2904.00,2.4007
2903.00,2.4009
2902.00,2.4010
2901.00,2.4010
2900.00,2.4010
2899.00,2.4010
2898.00,2.4013
2897.00,2.4018
2896.00,2.4023
2895.00,2.4026
2894.00,2.4029
2893.00,2.4041
2892.00,2.4064
2891.00,2.4095
2890.00,2.4127
2889.00,2.4157
2888.00,2.4182
2887.00,2.4207
2886.00,2.4238
2885.00,2.4277
2884.00,2.4324
2883.00,2.4378
2882.00,2.4441
2881.00,2.4516
2880.00,2.4597
2879.00,2.4674
2878.00,2.4749
2877.00,2.4834
2876.00,2.4938
2875.00,2.5060
2874.00,2.5194
2873.00,2.5343
2872.00,2.5512
2871.00,2.5705
2870.00,2.5923
2869.00,2.6169
2868.00,2.6435
2867.00,2.6702
2866.00,2.6946
2865.00,2.7150
2864.00,2.7298
2863.00,2.7376
2862.00,2.7372
2861.00,2.7282
2860.00,2.7110
2859.00,2.6865
2858.00,2.6563
2857.00,2.6228
2856.00,2.5885
2855.00,2.5551
2854.00,2.5243
2853.00,2.4968
2852.00,2.4724
2851.00,2.4506
2850.00,2.4314
2849.00,2.4154
2848.00,2.4030
2847.00,2.3937
2846.00,2.3869
2845.00,2.3818
2844.00,2.3782
2843.00,2.3761
2842.00,2.3754
2841.00,2.3758
2840.00,2.3762
2839.00,2.3757
2838.00,2.3744
2837.00,2.3729
2836.00,2.3718
2835.00,2.3707
2834.00,2.3694
2833.00,2.3680
2832.00,2.3666
2831.00,2.3654
2830.00,2.3646
2829.00,2.3640
2828.00,2.3634
2827.00,2.3623
2826.00,2.3606
2825.00,2.3587
2824.00,2.3567
2823.00,2.3546
2822.00,2.3523
2821.00,2.3497
2820.00,2.3468
2819.00,2.3437
2818.00,2.3403
2817.00,2.3366
2816.00,2.3325
2815.00,2.3283
2814.00,2.3245
2813.00,2.3209
2812.00,2.3171
2811.00,2.3123
2810.00,2.3071
2809.00,2.3022
2808.00,2.2977
2807.00,2.2932
2806.00,2.2882
2805.00,2.2828
2804.00,2.2771
2803.00,2.2711
2802.00,2.2651
2801.00,2.2594
2800.00,2.2540
2799.00,2.2490
2798.00,2.2441
2797.00,2.2392
2796.00,2.2338
2795.00,2.2276
2794.00,2.2207
2793.00,2.2136
2792.00,2.2066
2791.00,2.2000
2790.00,2.1937
2789.00,2.1874
2788.00,2.1807
2787.00,2.1731
2786.00,2.1650
2785.00,2.1565
2784.00,2.1478
2783.00,2.1391
2782.00,2.1306
2781.00,2.1223
2780.00,2.1139
2779.00,2.1050
2778.00,2.0957
2777.00,2.0863
2776.00,2.0769
2775.00,2.0673
2774.00,2.0573
2773.00,2.0470
2772.00,2.0364
2771.00,2.0258
2770.00,2.0154
2769.00,2.0051
2768.00,1.9947
2767.00,1.9838
2766.00,1.9723
2765.00,1.9604
2764.00,1.9483
2763.00,1.9363
2762.00,1.9242
2761.00,1.9119
2760.00,1.8993
2759.00,1.8864
2758.00,1.8730
2757.00,1.8593
2756.00,1.8451
2755.00,1.8305
2754.00,1.8153
2753.00,1.7997
2752.00,1.7840
2751.00,1.7679
2750.00,1.7515
2749.00,1.7345
2748.00,1.7171
2747.00,1.6992
2746.00,1.6810
2745.00,1.6625
2744.00,1.6438
2743.00,1.6248
2742.00,1.6055
2741.00,1.5859
2740.00,1.5659
2739.00,1.5455
2738.00,1.5248
2737.00,1.5039
2736.00,1.4828
2735.00,1.4614
2734.00,1.4398
2733.00,1.4180
2732.00,1.3959
2731.00,1.3736
2730.00,1.3510
2729.00,1.3282
2728.00,1.3053
2727.00,1.2823
2726.00,1.2595
2725.00,1.2368
2724.00,1.2146
2723.00,1.1928
2722.00,1.1717
2721.00,1.1515
2720.00,1.1323
2719.00,1.1143
2718.00,1.0977
2717.00,1.0825
2716.00,1.0687
2715.00,1.0564
2714.00,1.0456
2713.00,1.0365
2712.00,1.0292
2711.00,1.0237
2710.00,1.0201
2709.00,1.0185
2708.00,1.0188
2707.00,1.0211
2706.00,1.0252
2705.00,1.0311
2704.00,1.0389
2703.00,1.0483
2702.00,1.0592
2701.00,1.0717
2700.00,1.0854
2699.00,1.1004
2698.00,1.1164
2697.00,1.1335
2696.00,1.1515
2695.00,1.1703
2694.00,1.1899
2693.00,1.2102
2692.00,1.2311
2691.00,1.2526
2690.00,1.2745
2689.00,1.2970
2688.00,1.3200
2687.00,1.3435
2686.00,1.3673
2685.00,1.3915
2684.00,1.4159
2683.00,1.4401
2682.00,1.4639
2681.00,1.4873
2680.00,1.5099
2679.00,1.5317
2678.00,1.5523
2677.00,1.5716
2676.00,1.5896
2675.00,1.6064
2674.00,1.6222
2673.00,1.6375
2672.00,1.6522
2671.00,1.6664
2670.00,1.6801
2669.00,1.6931
2668.00,1.7055
2667.00,1.7175
2666.00,1.7292
2665.00,1.7411
2664.00,1.7535
2663.00,1.7666
2662.00,1.7803
2661.00,1.7945
2660.00,1.8093
2659.00,1.8244
2658.00,1.8399
2657.00,1.8553
2656.00,1.8706
2655.00,1.8855
2654.00,1.8999
2653.00,1.9138
2652.00,1.9274
2651.00,1.9406
2650.00,1.9534
2649.00,1.9658
2648.00,1.9779
2647.00,1.9895
2646.00,2.0009
2645.00,2.0118
2644.00,2.0225
2643.00,2.0332
2642.00,2.0443
2641.00,2.0557
2640.00,2.0671
2639.00,2.0782
2638.00,2.0890
2637.00,2.0996
2636.00,2.1102
2635.00,2.1205
2634.00,2.1304
2633.00,2.1405
2632.00,2.1507
2631.00,2.1607
2630.00,2.1702
2629.00,2.1793
2628.00,2.1882
2627.00,2.1973
2626.00,2.2063
2625.00,2.2149
2624.00,2.2231
2623.00,2.2311
2622.00,2.2392
2621.00,2.2476
2620.00,2.2559
2619.00,2.2639
2618.00,2.2715
2617.00,2.2787
2616.00,2.2859
2615.00,2.2928
2614.00,2.2995
2613.00,2.3059
2612.00,2.3121
2611.00,2.3182
2610.00,2.3246
2609.00,2.3312
2608.00,2.3376
2607.00,2.3432
2606.00,2.3479
2605.00,2.3520
2604.00,2.3563
2603.00,2.3612
2602.00,2.3666
2601.00,2.3723
2600.00,2.3780
2599.00,2.3834
2598.00,2.3887
2597.00,2.3941
2596.00,2.3992
2595.00,2.4039
2594.00,2.4082
2593.00,2.4127
2592.00,2.4171
2591.00,2.4210
2590.00,2.4245
2589.00,2.4280
2588.00,2.4320
2587.00,2.4366
2586.00,2.4413
2585.00,2.4457
2584.00,2.4495
2583.00,2.4531
2582.00,2.4571
2581.00,2.4616
2580.00,2.4661
2579.00,2.4699
2578.00,2.4728
2577.00,2.4753
2576.00,2.4777
2575.00,2.4800
2574.00,2.4821
2573.00,2.4845
2572.00,2.4872
2571.00,2.4900
2570.00,2.4927
2569.00,2.4952
2568.00,2.4975
2567.00,2.4997
2566.00,2.5018
2565.00,2.5041
2564.00,2.5064
2563.00,2.5086
2562.00,2.5105
2561.00,2.5120
2560.00,2.5132
2559.00,2.5144
2558.00,2.5161
2557.00,2.5183
2556.00,2.5202
2555.00,2.5211
2554.00,2.5210
2553.00,2.5208
2552.00,2.5210
2551.00,2.5220
2550.00,2.5237
2549.00,2.5254
2548.00,2.5267
2547.00,2.5278
2546.00,2.5292
2545.00,2.5310
2544.00,2.5324
2543.00,2.5328
2542.00,2.5324
2541.00,2.5322
2540.00,2.5327
2539.00,2.5337
2538.00,2.5343
2537.00,2.5340
2536.00,2.5325
2535.00,2.5306
2534.00,2.5294
2533.00,2.5293
2532.00,2.5298
2531.00,2.5303
2530.00,2.5308
2529.00,2.5310
2528.00,2.5308
2527.00,2.5299
2526.00,2.5285
2525.00,2.5273
2524.00,2.5267
2523.00,2.5265
2522.00,2.5261
2521.00,2.5252
2520.00,2.5235
2519.00,2.5209
2518.00,2.5179
2517.00,2.5153
2516.00,2.5135
2515.00,2.5123
2514.00,2.5113
2513.00,2.5099
2512.00,2.5078
2511.00,2.5048
2510.00,2.5015
2509.00,2.4988
2508.00,2.4971
2507.00,2.4960
2506.00,2.4949
2505.00,2.4930
2504.00,2.4900
2503.00,2.4861
2502.00,2.4821
2501.00,2.4787
2500.00,2.4760
2499.00,2.4736
2498.00,2.4710
2497.00,2.4680
2496.00,2.4643
2495.00,2.4601
2494.00,2.4555
2493.00,2.4512
2492.00,2.4473
2491.00,2.4439
2490.00,2.4405
2489.00,2.4368
2488.00,2.4326
2487.00,2.4280
2486.00,2.4237
2485.00,2.4195
2484.00,2.4153
2483.00,2.4109
2482.00,2.4063
2481.00,2.4014
2480.00,2.3958
2479.00,2.3895
2478.00,2.3830
2477.00,2.3772
2476.00,2.3720
2475.00,2.3671
2474.00,2.3619
2473.00,2.3562
2472.00,2.3502
2471.00,2.3439
2470.00,2.3374
2469.00,2.3309
2468.00,2.3244
2467.00,2.3181
2466.00,2.3122
2465.00,2.3063
2464.00,2.2998
2463.00,2.2924
2462.00,2.2843
2461.00,2.2764
2460.00,2.2690
2459.00,2.2619
2458.00,2.2545
2457.00,2.2464
2456.00,2.2377
2455.00,2.2287
2454.00,2.2197
2453.00,2.2110
2452.00,2.2025
2451.00,2.1938
2450.00,2.1845
2449.00,2.1747
2448.00,2.1645
2447.00,2.1542
2446.00,2.1438
2445.00,2.1334
2444.00,2.1227
2443.00,2.1118
2442.00,2.1007
2441.00,2.0893
2440.00,2.0777
2439.00,2.0657
2438.00,2.0534
2437.00,2.0409
2436.00,2.0282
2435.00,2.0152
2434.00,2.0018
2433.00,1.9881
2432.00,1.9742
2431.00,1.9601
2430.00,1.9457
2429.00,1.9311
2428.00,1.9163
2427.00,1.9013
2426.00,1.8860
2425.00,1.8706
2424.00,1.8549
2423.00,1.8389
2422.00,1.8224
2421.00,1.8053
2420.00,1.7877
2419.00,1.7696
2418.00,1.7511
2417.00,1.7323
2416.00,1.7130
2415.00,1.6932
2414.00,1.6728
2413.00,1.6520
2412.00,1.6306
2411.00,1.6089
2410.00,1.5867
2409.00,1.5640
2408.00,1.5409
2407.00,1.5173
2406.00,1.4934
2405.00,1.4693
2404.00,1.4450
2403.00,1.4206
2402.00,1.3964
2401.00,1.3724
2400.00,1.3486
2399.00,1.3253
2398.00,1.3023
2397.00,1.2801
2396.00,1.2587
2395.00,1.2383
2394.00,1.2191
2393.00,1.2013
2392.00,1.1850
2391.00,1.1706
2390.00,1.1582
2389.00,1.1483
2388.00,1.1412
2387.00,1.1372
2386.00,1.1367
2385.00,1.1399
2384.00,1.1471
2383.00,1.1583
2382.00,1.1731
2381.00,1.1913
2380.00,1.2120
2379.00,1.2343
2378.00,1.2573
2377.00,1.2800
2376.00,1.3016
2375.00,1.3218
2374.00,1.3404
2373.00,1.3576
2372.00,1.3740
2371.00,1.3899
2370.00,1.4057
2369.00,1.4214
2368.00,1.4375
2367.00,1.4538
2366.00,1.4703
2365.00,1.4869
2364.00,1.5038
2363.00,1.5209
2362.00,1.5382
2361.00,1.5559
2360.00,1.5744
2359.00,1.5934
2358.00,1.6125
2357.00,1.6308
2356.00,1.6489
2355.00,1.6668
2354.00,1.6850
2353.00,1.7043
2352.00,1.7256
2351.00,1.7486
2350.00,1.7702
2349.00,1.7887
2348.00,1.8053
2347.00,1.8223
2346.00,1.8407
2345.00,1.8594
2344.00,1.8776
2343.00,1.8950
2342.00,1.9128
2341.00,1.9316
2340.00,1.9513
2339.00,1.9712
2338.00,1.9911
2337.00,2.0113
2336.00,2.0323
2335.00,2.0543
2334.00,2.0772
2333.00,2.1014
2332.00,2.1265
2331.00,2.1515
2330.00,2.1750
2329.00,2.1962
2328.00,2.2151
2327.00,2.2322
2326.00,2.2490
2325.00,2.2668
2324.00,2.2865
2323.00,2.3066
2322.00,2.3256
2321.00,2.3421
2320.00,2.3561
2319.00,2.3680
2318.00,2.3780
2317.00,2.3867
2316.00,2.3949
2315.00,2.4037
2314.00,2.4136
2313.00,2.4244
2312.00,2.4352
2311.00,2.4450
2310.00,2.4532
2309.00,2.4593
2308.00,2.4637
2307.00,2.4671
2306.00,2.4699
2305.00,2.4723
2304.00,2.4741
2303.00,2.4754
2302.00,2.4769
2301.00,2.4792
2300.00,2.4824
2299.00,2.4859
2298.00,2.4889
2297.00,2.4913
2296.00,2.4935
2295.00,2.4962
2294.00,2.4996
2293.00,2.5033
2292.00,2.5070
2291.00,2.5110
2290.00,2.5157
2289.00,2.5211
2288.00,2.5264
2287.00,2.5313
2286.00,2.5363
2285.00,2.5420
2284.00,2.5483
2283.00,2.5543
2282.00,2.5595
2281.00,2.5641
2280.00,2.5684
2279.00,2.5728
2278.00,2.5773
2277.00,2.5823
2276.00,2.5875
2275.00,2.5926
2274.00,2.5974
2273.00,2.6020
2272.00,2.6069
2271.00,2.6121
2270.00,2.6174
2269.00,2.6222
2268.00,2.6263
2267.00,2.6299
2266.00,2.6335
2265.00,2.6377
2264.00,2.6429
2263.00,2.6492
2262.00,2.6563
2261.00,2.6631
2260.00,2.6683
2259.00,2.6716
2258.00,2.6736
2257.00,2.6754
2256.00,2.6776
2255.00,2.6807
2254.00,2.6845
2253.00,2.6886
2252.00,2.6922
2251.00,2.6951
2250.00,2.6982
2249.00,2.7017
2248.00,2.7054
2247.00,2.7086
2246.00,2.7113
2245.00,2.7142
2244.00,2.7172
2243.00,2.7199
2242.00,2.7223
2241.00,2.7253
2240.00,2.7290
2239.00,2.7326
2238.00,2.7350
2237.00,2.7366
2236.00,2.7378
2235.00,2.7390
2234.00,2.7399
2233.00,2.7406
2232.00,2.7419
2231.00,2.7438
2230.00,2.7462
2229.00,2.7483
2228.00,2.7499
2227.00,2.7508
2226.00,2.7510
2225.00,2.7510
2224.00,2.7513
2223.00,2.7521
2222.00,2.7529
2221.00,2.7533
2220.00,2.7534
2219.00,2.7540
2218.00,2.7558
2217.00,2.7587
2216.00,2.7622
2215.00,2.7654
2214.00,2.7674
2213.00,2.7678
2212.00,2.7671
2211.00,2.7659
2210.00,2.7643
2209.00,2.7622
2208.00,2.7603
2207.00,2.7596
2206.00,2.7605
2205.00,2.7618
2204.00,2.7624
2203.00,2.7617
2202.00,2.7607
2201.00,2.7600
2200.00,2.7601
2199.00,2.7608
2198.00,2.7617
2197.00,2.7623
2196.00,2.7623
2195.00,2.7618
2194.00,2.7612
2193.00,2.7601
2192.00,2.7580
2191.00,2.7547
2190.00,2.7507
2189.00,2.7467
2188.00,2.7435
2187.00,2.7415
2186.00,2.7406
2185.00,2.7401
2184.00,2.7391
2183.00,2.7374
2182.00,2.7355
2181.00,2.7338
2180.00,2.7324
2179.00,2.7313
2178.00,2.7307
2177.00,2.7306
2176.00,2.7304
2175.00,2.7295
2174.00,2.7279
2173.00,2.7257
2172.00,2.7228
2171.00,2.7188
2170.00,2.7139
2169.00,2.7087
2168.00,2.7045
2167.00,2.7016
2166.00,2.6996
2165.00,2.6973
2164.00,2.6941
2163.00,2.6906
2162.00,2.6874
2161.00,2.6844
2160.00,2.6805
2159.00,2.6755
2158.00,2.6700
2157.00,2.6653
2156.00,2.6615
2155.00,2.6579
2154.00,2.6540
2153.00,2.6496
2152.00,2.6449
2151.00,2.6400
2150.00,2.6346
2149.00,2.6282
2148.00,2.6207
2147.00,2.6129
2146.00,2.6061
2145.00,2.6011
2144.00,2.5972
2143.00,2.5932
2142.00,2.5879
2141.00,2.5815
2140.00,2.5747
2139.00,2.5686
2138.00,2.5634
2137.00,2.5582
2136.00,2.5521
2135.00,2.5451
2134.00,2.5380
2133.00,2.5313
2132.00,2.5248
2131.00,2.5175
2130.00,2.5094
2129.00,2.5009
2128.00,2.4924
2127.00,2.4841
2126.00,2.4759
2125.00,2.4676
2124.00,2.4592
2123.00,2.4504
2122.00,2.4411
2121.00,2.4316
2120.00,2.4220
2119.00,2.4123
2118.00,2.4026
2117.00,2.3929
2116.00,2.3832
2115.00,2.3732
2114.00,2.3626
2113.00,2.3511
2112.00,2.3389
2111.00,2.3266
2110.00,2.3145
2109.00,2.3026
2108.00,2.2903
2107.00,2.2775
2106.00,2.2642
2105.00,2.2507
2104.00,2.2371
2103.00,2.2234
2102.00,2.2096
2101.00,2.1958
2100.00,2.1819
2099.00,2.1678
2098.00,2.1532
2097.00,2.1382
2096.00,2.1227
2095.00,2.1067
2094.00,2.0901
2093.00,2.0729
2092.00,2.0553
2091.00,2.0375
2090.00,2.0194
2089.00,2.0010
2088.00,1.9821
2087.00,1.9625
2086.00,1.9422
2085.00,1.9212
2084.00,1.8995
2083.00,1.8769
2082.00,1.8536
2081.00,1.8298
2080.00,1.8054
2079.00,1.7805
2078.00,1.7551
2077.00,1.7292
2076.00,1.7031
2075.00,1.6770
2074.00,1.6509
2073.00,1.6250
2072.00,1.5996
2071.00,1.5748
2070.00,1.5508
2069.00,1.5278
2068.00,1.5060
2067.00,1.4855
2066.00,1.4666
2065.00,1.4490
2064.00,1.4323
2063.00,1.4161
2062.00,1.4003
2061.00,1.3848
2060.00,1.3695
2059.00,1.3547
2058.00,1.3404
2057.00,1.3271
2056.00,1.3154
2055.00,1.3057
2054.00,1.2982
2053.00,1.2934
2052.00,1.2916
2051.00,1.2929
2050.00,1.2972
2049.00,1.3045
2048.00,1.3146
2047.00,1.3274
2046.00,1.3425
2045.00,1.3596
2044.00,1.3786
2043.00,1.3994
2042.00,1.4217
2041.00,1.4454
2040.00,1.4700
2039.00,1.4953
2038.00,1.5213
2037.00,1.5480
2036.00,1.5752
2035.00,1.6027
2034.00,1.6301
2033.00,1.6575
2032.00,1.6849
2031.00,1.7122
2030.00,1.7394
2029.00,1.7665
2028.00,1.7934
2027.00,1.8199
2026.00,1.8460
2025.00,1.8717
2024.00,1.8970
2023.00,1.9220
2022.00,1.9465
2021.00,1.9703
2020.00,1.9933
2019.00,2.0156
2018.00,2.0378
2017.00,2.0598
2016.00,2.0811
2015.00,2.1014
2014.00,2.1208
2013.00,2.1401
2012.00,2.1593
2011.00,2.1781
2010.00,2.1966
2009.00,2.2148
2008.00,2.2328
2007.00,2.2501
2006.00,2.2667
2005.00,2.2828
2004.00,2.2986
2003.00,2.3142
2002.00,2.3296
2001.00,2.3451
2000.00,2.3603
1999.00,2.3754
1998.00,2.3899
1997.00,2.4037
1996.00,2.4165
1995.00,2.4287
1994.00,2.4419
1993.00,2.4566
1992.00,2.4720
1991.00,2.4866
1990.00,2.5000
1989.00,2.5122
1988.00,2.5234
1987.00,2.5336
1986.00,2.5431
1985.00,2.5528
1984.00,2.5632
1983.00,2.5742
1982.00,2.5850
1981.00,2.5955
1980.00,2.6055
1979.00,2.6157
1978.00,2.6260
1977.00,2.6361
1976.00,2.6456
1975.00,2.6547
1974.00,2.6643
1973.00,2.6742
1972.00,2.6833
1971.00,2.6908
1970.00,2.6973
1969.00,2.7041
1968.00,2.7116
1967.00,2.7196
1966.00,2.7275
1965.00,2.7352
1964.00,2.7428
1963.00,2.7505
1962.00,2.7578
1961.00,2.7643
1960.00,2.7697
1959.00,2.7753
1958.00,2.7825
1957.00,2.7920
1956.00,2.8021
1955.00,2.8108
1954.00,2.8173
1953.00,2.8226
1952.00,2.8277
1951.00,2.8329
1950.00,2.8377
1949.00,2.8426
1948.00,2.8483
1947.00,2.8547
1946.00,2.8610
1945.00,2.8670
1944.00,2.8731
1943.00,2.8793
1942.00,2.8843
1941.00,2.8876
1940.00,2.8904
1939.00,2.8942
1938.00,2.8988
1937.00,2.9025
1936.00,2.9046
1935.00,2.9068
1934.00,2.9103
1933.00,2.9153
1932.00,2.9216
1931.00,2.9285
1930.00,2.9355
1929.00,2.9418
1928.00,2.9466
1927.00,2.9498
1926.00,2.9516
1925.00,2.9533
1924.00,2.9572
1923.00,2.9635
1922.00,2.9691
1921.00,2.9705
1920.00,2.9689
1919.00,2.9686
1918.00,2.9714
1917.00,2.9750
1916.00,2.9770
1915.00,2.9780
1914.00,2.9794
1913.00,2.9810
1912.00,2.9822
1911.00,2.9835
1910.00,2.9859
1909.00,2.9893
1908.00,2.9931
1907.00,2.9977
1906.00,3.0024
1905.00,3.0057
1904.00,3.0068
1903.00,3.0067
1902.00,3.0073
1901.00,3.0086
1900.00,3.0098
1899.00,3.0103
1898.00,3.0096
1897.00,3.0081
1896.00,3.0075
1895.00,3.0092
1894.00,3.0122
1893.00,3.0133
1892.00,3.0117
1891.00,3.0101
1890.00,3.0114
1889.00,3.0150
1888.00,3.0180
1887.00,3.0187
1886.00,3.0179
1885.00,3.0166
1884.00,3.0155
1883.00,3.0150
1882.00,3.0146
1881.00,3.0133
1880.00,3.0108
1879.00,3.0092
1878.00,3.0102
1877.00,3.0127
1876.00,3.0150
1875.00,3.0160
1874.00,3.0149
1873.00,3.0110
1872.00,3.0066
1871.00,3.0054
1870.00,3.0087
1869.00,3.0125
1868.00,3.0125
1867.00,3.0091
1866.00,3.0045
1865.00,2.9997
1864.00,2.9948
1863.00,2.9918
1862.00,2.9918
1861.00,2.9926
1860.00,2.9903
1859.00,2.9841
1858.00,2.9771
1857.00,2.9715
1856.00,2.9673
1855.00,2.9642
1854.00,2.9621
1853.00,2.9610
1852.00,2.9595
1851.00,2.9575
1850.00,2.9556
1849.00,2.9525
1848.00,2.9465
1847.00,2.9383
1846.00,2.9319
1845.00,2.9293
1844.00,2.9280
1843.00,2.9240
1842.00,2.9169
1841.00,2.9083
1840.00,2.9003
1839.00,2.8937
1838.00,2.8879
1837.00,2.8829
1836.00,2.8792
1835.00,2.8759
1834.00,2.8708
1833.00,2.8628
1832.00,2.8545
1831.00,2.8495
1830.00,2.8468
1829.00,2.8402
1828.00,2.8272
1827.00,2.8127
1826.00,2.8028
1825.00,2.7969
1824.00,2.7901
1823.00,2.7804
1822.00,2.7693
1821.00,2.7576
1820.00,2.7454
1819.00,2.7339
1818.00,2.7243
1817.00,2.7159
1816.00,2.7065
1815.00,2.6954
1814.00,2.6839
1813.00,2.6728
1812.00,2.6625
1811.00,2.6529
1810.00,2.6433
1809.00,2.6331
1808.00,2.6225
1807.00,2.6124
1806.00,2.6023
1805.00,2.5915
1804.00,2.5796
1803.00,2.5678
1802.00,2.5566
1801.00,2.5436
1800.00,2.5268
1799.00,2.5063
1798.00,2.4838
1797.00,2.4604
1796.00,2.4355
1795.00,2.4087
1794.00,2.3805
1793.00,2.3507
1792.00,2.3182
1791.00,2.2830
1790.00,2.2459
1789.00,2.2073
1788.00,2.1675
1787.00,2.1275
1786.00,2.0879
1785.00,2.0489
1784.00,2.0090
1783.00,1.9676
1782.00,1.9265
1781.00,1.8871
1780.00,1.8504
1779.00,1.8179
1778.00,1.7928
1777.00,1.7772
1776.00,1.7702
1775.00,1.7719
1774.00,1.7858
1773.00,1.8130
1772.00,1.8478
1771.00,1.8833
1770.00,1.9172
1769.00,1.9532
1768.00,1.9928
1767.00,2.0297
1766.00,2.0567
1765.00,2.0741
1764.00,2.0895
1763.00,2.1109
1762.00,2.1406
1761.00,2.1754
1760.00,2.2115
1759.00,2.2484
1758.00,2.2904
1757.00,2.3413
1756.00,2.3964
1755.00,2.4482
1754.00,2.4946
1753.00,2.5419
1752.00,2.5951
1751.00,2.6494
1750.00,2.6964
1749.00,2.7349
1748.00,2.7683
1747.00,2.7993
1746.00,2.8308
1745.00,2.8665
1744.00,2.9077
1743.00,2.9497
1742.00,2.9876
1741.00,3.0243
1740.00,3.0655
1739.00,3.1075
1738.00,3.1414
1737.00,3.1676
1736.00,3.1984
1735.00,3.2442
1734.00,3.2980
1733.00,3.3449
1732.00,3.3798
1731.00,3.4085
1730.00,3.4433
1729.00,3.4956
1728.00,3.5674
1727.00,3.6536
1726.00,3.7524
1725.00,3.8756
1724.00,4.0400
1723.00,4.2388
1722.00,4.4340
1721.00,4.5916
1720.00,4.6824
1719.00,4.6717
1718.00,4.5863
1717.00,4.5094
1716.00,4.4925
1715.00,4.5325
1714.00,4.6192
1713.00,4.7358
1712.00,4.9224
1711.00,5.3035
1710.00,5.3291
1709.00,5.1186
1708.00,5.0951
1707.00,4.9881
1706.00,4.8378
1705.00,4.6669
1704.00,4.4612
1703.00,4.2588
1702.00,4.0768
1701.00,3.9122
1700.00,3.7633
1699.00,3.6356
1698.00,3.5291
1697.00,3.4423
1696.00,3.3760
1695.00,3.3265
1694.00,3.2879
1693.00,3.2567
1692.00,3.2310
1691.00,3.2092
1690.00,3.1901
1689.00,3.1717
1688.00,3.1509
1687.00,3.1279
1686.00,3.1071
1685.00,3.0892
1684.00,3.0657
1683.00,3.0303
1682.00,2.9876
1681.00,2.9470
1680.00,2.9142
1679.00,2.8873
1678.00,2.8622
1677.00,2.8394
1676.00,2.8204
1675.00,2.8017
1674.00,2.7782
1673.00,2.7488
1672.00,2.7167
1671.00,2.6829
1670.00,2.6447
1669.00,2.6014
1668.00,2.5553
1667.00,2.5086
1666.00,2.4605
1665.00,2.4101
1664.00,2.3570
1663.00,2.2995
1662.00,2.2375
1661.00,2.1745
1660.00,2.1150
1659.00,2.0629
1658.00,2.0189
1657.00,1.9803
1656.00,1.9459
1655.00,1.9223
1654.00,1.9117
1653.00,1.9088
1652.00,1.9090
1651.00,1.9089
1650.00,1.9092
1649.00,1.9142
1648.00,1.9254
1647.00,1.9407
1646.00,1.9580
1645.00,1.9771
1644.00,1.9972
1643.00,2.0189
1642.00,2.0460
1641.00,2.0803
1640.00,2.1185
1639.00,2.1555
1638.00,2.1898
1637.00,2.2236
1636.00,2.2565
1635.00,2.2860
1634.00,2.3082
1633.00,2.3234
1632.00,2.3363
1631.00,2.3507
1630.00,2.3688
1629.00,2.3908
1628.00,2.4155
1627.00,2.4401
1626.00,2.4636
1625.00,2.4876
1624.00,2.5136
1623.00,2.5410
1622.00,2.5685
1621.00,2.5946
1620.00,2.6183
1619.00,2.6415
1618.00,2.6672
1617.00,2.6945
1616.00,2.7180
1615.00,2.7339
1614.00,2.7450
1613.00,2.7568
1612.00,2.7711
1611.00,2.7843
1610.00,2.7942
1609.00,2.8026
1608.00,2.8110
1607.00,2.8189
1606.00,2.8276
1605.00,2.8392
1604.00,2.8536
1603.00,2.8690
1602.00,2.8841
1601.00,2.8991
1600.00,2.9131
1599.00,2.9258
1598.00,2.9393
1597.00,2.9552
1596.00,2.9715
1595.00,2.9837
1594.00,2.9911
1593.00,2.9973
1592.00,3.0054
1591.00,3.0159
1590.00,3.0279
1589.00,3.0399
1588.00,3.0499
1587.00,3.0565
1586.00,3.0620
1585.00,3.0695
1584.00,3.0778
1583.00,3.0862
1582.00,3.0982
1581.00,3.1152
1580.00,3.1312
1579.00,3.1398
1578.00,3.1435
1577.00,3.1489
1576.00,3.1575
1575.00,3.1647
1574.00,3.1693
1573.00,3.1749
1572.00,3.1847
1571.00,3.1965
1570.00,3.2060
1569.00,3.2122
1568.00,3.2147
1567.00,3.2132
1566.00,3.2119
1565.00,3.2168
1564.00,3.2268
1563.00,3.2365
1562.00,3.2454
1561.00,3.2642
1560.00,3.2924
1559.00,3.3107
1558.00,3.3126
1557.00,3.3035
1556.00,3.2881
1555.00,3.2737
1554.00,3.2660
1553.00,3.2637
1552.00,3.2621
1551.00,3.2605
1550.00,3.2616
1549.00,3.2673
1548.00,3.2757
1547.00,3.2855
1546.00,3.3001
1545.00,3.3211
1544.00,3.3438
1543.00,3.3613
1542.00,3.3702
1541.00,3.3681
1540.00,3.3559
1539.00,3.3412
1538.00,3.3318
1537.00,3.3310
1536.00,3.3376
1535.00,3.3486
1534.00,3.3600
1533.00,3.3655
1532.00,3.3616
1531.00,3.3501
1530.00,3.3382
1529.00,3.3339
1528.00,3.3390
1527.00,3.3482
1526.00,3.3565
1525.00,3.3614
1524.00,3.3621
1523.00,3.3596
1522.00,3.3587
1521.00,3.3629
1520.00,3.3667
1519.00,3.3634
1518.00,3.3560
1517.00,3.3538
1516.00,3.3596
1515.00,3.3660
1514.00,3.3669
1513.00,3.3643
1512.00,3.3616
1511.00,3.3580
1510.00,3.3534
1509.00,3.3519
1508.00,3.3524
1507.00,3.3469
1506.00,3.3372
1505.00,3.3327
1504.00,3.3365
1503.00,3.3440
1502.00,3.3487
1501.00,3.3468
1500.00,3.3389
1499.00,3.3301
1498.00,3.3260
1497.00,3.3295
1496.00,3.3366
1495.00,3.3364
1494.00,3.3244
1493.00,3.3079
1492.00,3.2957
1491.00,3.2886
1490.00,3.2812
1489.00,3.2717
1488.00,3.2645
1487.00,3.2624
1486.00,3.2650
1485.00,3.2707
1484.00,3.2764
1483.00,3.2800
1482.00,3.2797
1481.00,3.2741
1480.00,3.2641
1479.00,3.2531
1478.00,3.2450
1477.00,3.2395
1476.00,3.2322
1475.00,3.2208
1474.00,3.2099
1473.00,3.2043
1472.00,3.2033
1471.00,3.2017
1470.00,3.1968
1469.00,3.1903
1468.00,3.1852
1467.00,3.1809
1466.00,3.1765
1465.00,3.1717
1464.00,3.1675
1463.00,3.1656
1462.00,3.1654
1461.00,3.1637
1460.00,3.1556
1459.00,3.1409
1458.00,3.1273
1457.00,3.1276
1456.00,3.1473
1455.00,3.1790
1454.00,3.2173
1453.00,3.2652
1452.00,3.3248
1451.00,3.3900
1450.00,3.4488
1449.00,3.4907
1448.00,3.5071
1447.00,3.4941
1446.00,3.4600
1445.00,3.4171
1444.00,3.3731
1443.00,3.3318
1442.00,3.2957
1441.00,3.2649
1440.00,3.2375
1439.00,3.2135
1438.00,3.1965
1437.00,3.1896
1436.00,3.1899
1435.00,3.1930
1434.00,3.1991
1433.00,3.2115
1432.00,3.2313
1431.00,3.2538
1430.00,3.2722
1429.00,3.2829
1428.00,3.2861
1427.00,3.2848
1426.00,3.2862
1425.00,3.2956
1424.00,3.3097
1423.00,3.3205
1422.00,3.3243
1421.00,3.3239
1420.00,3.3216
1419.00,3.3152
1418.00,3.3025
1417.00,3.2840
1416.00,3.2601
1415.00,3.2321
1414.00,3.2050
1413.00,3.1830
1412.00,3.1665
1411.00,3.1522
1410.00,3.1364
1409.00,3.1179
1408.00,3.0978
1407.00,3.0771
1406.00,3.0577
1405.00,3.0405
1404.00,3.0241
1403.00,3.0058
1402.00,2.9843
1401.00,2.9613
1400.00,2.9393
1399.00,2.9183
1398.00,2.8964
1397.00,2.8722
1396.00,2.8462
1395.00,2.8203
1394.00,2.7958
1393.00,2.7720
1392.00,2.7466
1391.00,2.7187
1390.00,2.6888
1389.00,2.6585
1388.00,2.6292
1387.00,2.6007
1386.00,2.5719
1385.00,2.5416
1384.00,2.5094
1383.00,2.4763
1382.00,2.4435
1381.00,2.4112
1380.00,2.3796
1379.00,2.3481
1378.00,2.3156
1377.00,2.2812
1376.00,2.2449
1375.00,2.2072
1374.00,2.1690
1373.00,2.1319
1372.00,2.0976
1371.00,2.0677
1370.00,2.0443
1369.00,2.0291
1368.00,2.0224
1367.00,2.0245
1366.00,2.0354
1365.00,2.0550
1364.00,2.0821
1363.00,2.1144
1362.00,2.1491
1361.00,2.1853
1360.00,2.2245
1359.00,2.2693
1358.00,2.3215
1357.00,2.3812
1356.00,2.4478
1355.00,2.5211
1354.00,2.6004
1353.00,2.6841
1352.00,2.7694
1351.00,2.8537
1350.00,2.9333
1349.00,3.0010
1348.00,3.0467
1347.00,3.0632
1346.00,3.0525
1345.00,3.0265
1344.00,3.0013
1343.00,2.9906
1342.00,3.0028
1341.00,3.0381
1340.00,3.0849
1339.00,3.1185
1338.00,3.1098
1337.00,3.0494
1336.00,2.9577
1335.00,2.8633
1334.00,2.7853
1333.00,2.7310
1332.00,2.7007
1331.00,2.6915
1330.00,2.6993
1329.00,2.7198
1328.00,2.7501
1327.00,2.7883
1326.00,2.8333
1325.00,2.8841
1324.00,2.9391
1323.00,2.9969
1322.00,3.0555
1321.00,3.1129
1320.00,3.1673
1319.00,3.2191
1318.00,3.2708
1317.00,3.3243
1316.00,3.3802
1315.00,3.4375
1314.00,3.4898
1313.00,3.5221
1312.00,3.5189
1311.00,3.4779
1310.00,3.4073
1309.00,3.3156
1308.00,3.2109
1307.00,3.1036
1306.00,3.0039
1305.00,2.9183
1304.00,2.8499
1303.00,2.8001
1302.00,2.7688
1301.00,2.7536
1300.00,2.7509
1299.00,2.7580
1298.00,2.7744
1297.00,2.7991
1296.00,2.8293
1295.00,2.8611
1294.00,2.8924
1293.00,2.9234
1292.00,2.9551
1291.00,2.9887
1290.00,3.0251
1289.00,3.0627
1288.00,3.0964
1287.00,3.1219
1286.00,3.1414
1285.00,3.1625
1284.00,3.1898
1283.00,3.2199
1282.00,3.2442
1281.00,3.2583
1280.00,3.2658
1279.00,3.2731
1278.00,3.2844
1277.00,3.2982
1276.00,3.3094
1275.00,3.3172
1274.00,3.3271
1273.00,3.3453
1272.00,3.3706
1271.00,3.3956
1270.00,3.4131
1269.00,3.4217
1268.00,3.4240
1267.00,3.4232
1266.00,3.4222
1265.00,3.4248
1264.00,3.4343
1263.00,3.4497
1262.00,3.4647
1261.00,3.4718
1260.00,3.4710
1259.00,3.4739
1258.00,3.4925
1257.00,3.5279
1256.00,3.5657
1255.00,3.5869
1254.00,3.5889
1253.00,3.5867
1252.00,3.5919
1251.00,3.6047
1250.00,3.6184
1249.00,3.6226
1248.00,3.6105
1247.00,3.5879
1246.00,3.5736
1245.00,3.5837
1244.00,3.6189
1243.00,3.6626
1242.00,3.6939
1241.00,3.7042
1240.00,3.7029
1239.00,3.7073
1238.00,3.7289
1237.00,3.7655
1236.00,3.8024
1235.00,3.8248
1234.00,3.8300
1233.00,3.8239
1232.00,3.8132
1231.00,3.8091
1230.00,3.8274
1229.00,3.8745
1228.00,3.9374
1227.00,3.9958
1226.00,4.0411
1225.00,4.0709
1224.00,4.0770
1223.00,4.0464
1222.00,3.9876
1221.00,3.9301
1220.00,3.8927
1219.00,3.8732
1218.00,3.8526
1217.00,3.8130
1216.00,3.7592
1215.00,3.7077
1214.00,3.6716
1213.00,3.6546
1212.00,3.6506
1211.00,3.6507
1210.00,3.6510
1209.00,3.6526
1208.00,3.6591
1207.00,3.6744
1206.00,3.7011
1205.00,3.7373
1204.00,3.7718
1203.00,3.7938
1202.00,3.8049
1201.00,3.8103
1200.00,3.8152
1199.00,3.8228
1198.00,3.8315
1197.00,3.8364
1196.00,3.8323
1195.00,3.8166
1194.00,3.7942
1193.00,3.7740
1192.00,3.7625
1191.00,3.7609
1190.00,3.7641
1189.00,3.7623
1188.00,3.7486
1187.00,3.7297
1186.00,3.7235
1185.00,3.7466
1184.00,3.8006
1183.00,3.8659
1182.00,3.9095
1181.00,3.9105
1180.00,3.8789
1179.00,3.8383
1178.00,3.8055
1177.00,3.7891
1176.00,3.7945
1175.00,3.8235
1174.00,3.8692
1173.00,3.9132
1172.00,3.9378
1171.00,3.9419
1170.00,3.9346
1169.00,3.9197
1168.00,3.8953
1167.00,3.8665
1166.00,3.8452
1165.00,3.8403
1164.00,3.8436
1163.00,3.8308
1162.00,3.7923
1161.00,3.7503
1160.00,3.7348
1159.00,3.7577
1158.00,3.8044
1157.00,3.8362
1156.00,3.8227
1155.00,3.7805
1154.00,3.7476
1153.00,3.7418
1152.00,3.7561
1151.00,3.7740
1150.00,3.7890
1149.00,3.8046
1148.00,3.8223
1147.00,3.8347
1146.00,3.8342
1145.00,3.8324
1144.00,3.8458
1143.00,3.8711
1142.00,3.8894
1141.00,3.8906
1140.00,3.8843
1139.00,3.8811
1138.00,3.8805
1137.00,3.8752
1136.00,3.8579
1135.00,3.8249
1134.00,3.7814
1133.00,3.7436
1132.00,3.7274
1131.00,3.7322
1130.00,3.7366
1129.00,3.7176
1128.00,3.6790
1127.00,3.6470
1126.00,3.6415
1125.00,3.6608
1124.00,3.6887
1123.00,3.7172
1122.00,3.7500
1121.00,3.7856
1120.00,3.8212
1119.00,3.8560
1118.00,3.8887
1117.00,3.9264
1116.00,3.9728
1115.00,3.9913
1114.00,3.9546
1113.00,3.8984
1112.00,3.8651
1111.00,3.8806
1110.00,3.9395
1109.00,3.9925
1108.00,3.9789
1107.00,3.9275
1106.00,3.9113
1105.00,3.9435
1104.00,3.9932
1103.00,4.0433
1102.00,4.1003
1101.00,4.1583
1100.00,4.1885
1099.00,4.1521
1098.00,4.0472
1097.00,3.9242
1096.00,3.8356
1095.00,3.8014
1094.00,3.8132
1093.00,3.8465
1092.00,3.8763
1091.00,3.8924
1090.00,3.8938
1089.00,3.8721
1088.00,3.8212
1087.00,3.7609
1086.00,3.7207
1085.00,3.7141
1084.00,3.7328
1083.00,3.7541
1082.00,3.7576
1081.00,3.7425
1080.00,3.7206
1079.00,3.6975
1078.00,3.6704
1077.00,3.6421
1076.00,3.6260
1075.00,3.6322
1074.00,3.6557
1073.00,3.6811
1072.00,3.7023
1071.00,3.7267
1070.00,3.7509
1069.00,3.7499
1068.00,3.7109
1067.00,3.6577
1066.00,3.6117
1065.00,3.5717
1064.00,3.5379
1063.00,3.5243
1062.00,3.5382
1061.00,3.5674
1060.00,3.5907
1059.00,3.6014
1058.00,3.6093
1057.00,3.6198
1056.00,3.6302
1055.00,3.6419
1054.00,3.6606
1053.00,3.6846
1052.00,3.6959
1051.00,3.6790
1050.00,3.6475
1049.00,3.6185
1048.00,3.5833
1047.00,3.5434
1046.00,3.5211
1045.00,3.5223
1044.00,3.5293
1043.00,3.5203
1042.00,3.4942
1041.00,3.4659
1040.00,3.4437
1039.00,3.4247
1038.00,3.3999
1037.00,3.3640
1036.00,3.3217
1035.00,3.2855
1034.00,3.2630
1033.00,3.2482
1032.00,3.2281
1031.00,3.1973
1030.00,3.1634
1029.00,3.1355
1028.00,3.1168
1027.00,3.1057
1026.00,3.1012
1025.00,3.1048
1024.00,3.1195
1023.00,3.1479
1022.00,3.1911
1021.00,3.2453
1020.00,3.3014
1019.00,3.3522
1018.00,3.3966
1017.00,3.4287
1016.00,3.4310
1015.00,3.3944
1014.00,3.3371
1013.00,3.2827
1012.00,3.2379
1011.00,3.1975
1010.00,3.1574
1009.00,3.1199
1008.00,3.0886
1007.00,3.0642
1006.00,3.0454
1005.00,3.0321
1004.00,3.0262
1003.00,3.0309
1002.00,3.0469
1001.00,3.0712
1000.00,3.1003
999.00,3.1339
998.00,3.1749
997.00,3.2240
996.00,3.2768
995.00,3.3275
994.00,3.3767
993.00,3.4304
992.00,3.4843
991.00,3.5221
990.00,3.5364
989.00,3.5360
988.00,3.5350
987.00,3.5425
986.00,3.5613
985.00,3.5916
984.00,3.6348
983.00,3.6950
982.00,3.7740
981.00,3.8652
980.00,3.9507
979.00,3.9844
978.00,3.9572
977.00,3.9497
976.00,3.9961
975.00,4.0629
974.00,4.1068
973.00,4.1567
972.00,4.2503
971.00,4.3242
970.00,4.3389
969.00,4.3582
968.00,4.4071
967.00,4.4385
966.00,4.3569
965.00,4.2121
964.00,4.1275
963.00,4.1536
962.00,4.2929
961.00,4.4846
960.00,4.6085
959.00,4.6241
958.00,4.5046
957.00,4.3759
956.00,4.2661
955.00,4.1991
954.00,4.1886
953.00,4.1949
952.00,4.1678
951.00,4.1276
950.00,4.1191
949.00,4.1529
948.00,4.2125
947.00,4.2629
946.00,4.3033
945.00,4.3651
944.00,4.4264
943.00,4.4700
942.00,4.5264
941.00,4.6869
940.00,4.9871
939.00,4.4402
938.00,4.2041
937.00,4.1956
936.00,4.4078
935.00,4.6599
934.00,4.4418
933.00,4.4591
932.00,4.7015
931.00,4.8256
930.00,4.6176
929.00,4.4932
928.00,4.5616
927.00,5.0522
926.00,4.9955
925.00,4.6952
924.00,4.7055
923.00,4.8050
922.00,4.8083
921.00,4.7545
920.00,4.8026
919.00,5.1183
918.00,5.3151
917.00,5.2489
916.00,4.9318
915.00,4.6492
914.00,4.5731
913.00,4.5578
912.00,4.4969
911.00,4.4313
910.00,4.3909
909.00,4.3677
908.00,4.3725
907.00,4.4302
906.00,4.5099
905.00,4.5182
904.00,4.5306
903.00,4.6745
902.00,4.8452
901.00,4.5550
900.00,4.3338
899.00,4.2903
898.00,4.3639
897.00,4.4412
896.00,4.3605
895.00,4.1705
894.00,4.0120
893.00,3.9305
892.00,3.9309
891.00,3.9875
890.00,4.0551
889.00,4.1131
888.00,4.0876
887.00,4.0282
886.00,4.0712
885.00,4.2343
884.00,4.4539
883.00,4.5977
882.00,4.5536
881.00,4.3474
880.00,4.1476
879.00,4.0371
878.00,4.0178
877.00,4.0643
876.00,4.1301
875.00,4.1810
874.00,4.2210
873.00,4.2790
872.00,4.3620
871.00,4.3897
870.00,4.2986
869.00,4.1362
868.00,4.0186
867.00,3.9837
866.00,4.0020
865.00,4.0288
864.00,4.0397
863.00,4.0206
862.00,3.9880
861.00,3.9923
860.00,4.1410
859.00,4.6662
858.00,4.7257
857.00,4.4375
856.00,4.6865
855.00,4.9106
854.00,4.3836
853.00,4.1685
852.00,4.0668
851.00,4.0432
850.00,4.0886
849.00,4.2230
848.00,4.5285
847.00,4.5960
846.00,4.5010
845.00,4.4994
844.00,4.2588
843.00,4.1158
842.00,4.0881
841.00,4.0932
840.00,4.1084
839.00,4.1529
838.00,4.2269
837.00,4.2389
836.00,4.1252
835.00,3.9775
834.00,3.8671
833.00,3.7987
832.00,3.7655
831.00,3.7690
830.00,3.8062
829.00,3.8612
828.00,3.9169
827.00,3.9611
826.00,3.9937
825.00,4.0154
824.00,4.0074
823.00,3.9762
822.00,3.9865
821.00,4.1020
820.00,4.3980
819.00,4.7519
818.00,4.6343
817.00,4.5859
816.00,4.3835
815.00,4.1561
814.00,3.9923
813.00,3.8876
812.00,3.8711
811.00,3.9599
810.00,4.1487
809.00,4.2547
808.00,4.1252
807.00,4.0305
806.00,4.0457
805.00,4.1414
804.00,4.2801
803.00,4.4131
802.00,4.3986
801.00,4.2485
800.00,4.0972
799.00,3.9904
798.00,3.9365
797.00,3.9194
796.00,3.9212
795.00,3.9328
794.00,3.9508
793.00,3.9651
792.00,3.9789
791.00,4.0102
790.00,4.0936
789.00,4.2205
788.00,4.4602
787.00,4.9260
786.00,4.4375
785.00,4.1067
784.00,3.9537
783.00,3.9157
782.00,3.9914
781.00,4.1122
780.00,4.1195
779.00,4.0131
778.00,3.9422
777.00,3.9703
776.00,4.0562
775.00,4.0852
774.00,4.1053
773.00,4.1922
772.00,4.3005
771.00,4.3625
770.00,4.4141
769.00,4.4951
768.00,4.5642
767.00,4.5912
766.00,4.5069
765.00,4.3648
764.00,4.2505
763.00,4.1841
762.00,4.1857
761.00,4.2553
760.00,4.2953
759.00,4.2461
758.00,4.2025
757.00,4.1884
756.00,4.1921
755.00,4.1966
754.00,4.1862
753.00,4.1341
752.00,4.0553
751.00,4.0326
750.00,4.1060
749.00,4.2434
748.00,4.3165
747.00,4.2286
746.00,4.0975
745.00,4.0328
744.00,4.0620
743.00,4.1949
742.00,4.4600
741.00,4.6633
740.00,4.4780
739.00,4.3690
738.00,4.3496
737.00,4.2428
736.00,4.0823
735.00,3.9713
734.00,3.9471
733.00,4.0446
732.00,4.2190
731.00,4.2084
730.00,4.0851
729.00,4.0205
728.00,4.0066
727.00,4.0029
726.00,3.9603
725.00,3.8830
724.00,3.8185
723.00,3.8086
722.00,3.8692
721.00,3.9860
720.00,4.0960
719.00,4.1230
718.00,4.1008
717.00,4.0961
716.00,4.1008
715.00,4.0762
714.00,4.0315
713.00,3.9863
712.00,3.9448
711.00,3.9270
710.00,3.9508
709.00,4.0260
708.00,4.1561
707.00,4.3140
706.00,4.4767
705.00,4.5639
704.00,4.4624
703.00,4.3778
702.00,4.3175
701.00,4.1871
700.00,4.0749
699.00,4.0441
698.00,4.0935
697.00,4.1866
696.00,4.2390
695.00,4.3214
694.00,4.5186
693.00,4.5492
692.00,4.6028
691.00,4.7189
690.00,4.4507
689.00,4.2663
688.00,4.1977
687.00,4.1411
686.00,4.1488
685.00,4.2265
684.00,4.1679
683.00,4.1030
682.00,4.2367
681.00,4.2822
680.00,4.0033
679.00,3.8110
678.00,3.7181
677.00,3.7008
676.00,3.7556
675.00,3.8423
674.00,3.9230
673.00,4.0090
672.00,4.1530
671.00,4.3444
670.00,4.3905
669.00,4.2960
668.00,4.2122
667.00,4.1354
666.00,4.1002
665.00,4.1621
664.00,4.2760
663.00,4.3337
662.00,4.3948
661.00,4.4679
660.00,4.3533
659.00,4.2440
658.00,4.1958
657.00,4.3972
656.00,4.6720
655.00,4.2247
654.00,4.0798
653.00,4.2416
652.00,4.6675
651.00,4.3967
650.00,4.2352
649.00,4.3231
648.00,4.1900
647.00,4.0047
646.00,3.9220
645.00,3.8989
644.00,3.8918
643.00,3.9245
642.00,3.9854
641.00,4.0031
640.00,3.9333
639.00,3.8451
638.00,3.8056
637.00,3.8263
636.00,3.8620
635.00,3.9127
634.00,4.0281
633.00,4.3709
632.00,4.8154
631.00,4.3038
630.00,4.0842
629.00,3.9938
628.00,3.9450
627.00,3.9256
626.00,3.8992
625.00,3.8912
624.00,3.8993
623.00,3.9274
622.00,3.9573
621.00,3.9774
620.00,3.9564
619.00,3.8766
618.00,3.8330
617.00,3.8953
616.00,3.9816
615.00,3.9597
614.00,3.8822
613.00,3.8293
612.00,3.8606
611.00,4.0064
610.00,4.2195
609.00,4.3208
608.00,4.3689
607.00,4.3061
606.00,4.0042
605.00,3.8172
604.00,3.7926
603.00,3.9148
602.00,4.1713
601.00,4.3646
600.00,4.2685
599.00,4.1387
598.00,4.0904
597.00,4.0017
596.00,3.8479
595.00,3.7374
594.00,3.6861
593.00,3.6459
592.00,3.5967
591.00,3.5837
590.00,3.6554
589.00,3.8168
588.00,4.0717
587.00,4.2988
586.00,4.1794
585.00,3.9973
584.00,3.8505
583.00,3.7522
582.00,3.7267
581.00,3.7653
580.00,3.8655
579.00,4.0049
578.00,4.0965
577.00,4.0411
576.00,3.9383
575.00,3.8761
574.00,3.8516
573.00,3.8249
572.00,3.7534
571.00,3.6996
570.00,3.7103
569.00,3.8238
568.00,3.9815
567.00,3.9075
566.00,3.8186
565.00,3.8813
564.00,4.0008
563.00,4.0280
562.00,4.0686
561.00,4.2070
560.00,4.2794
559.00,4.3234
558.00,4.1127
557.00,3.8141
556.00,3.6670
555.00,3.6251
554.00,3.6438
553.00,3.7073
552.00,3.8039
551.00,3.8827
550.00,3.8992
549.00,3.8073
548.00,3.6270
547.00,3.4839
546.00,3.4118
545.00,3.4057
544.00,3.4713
543.00,3.5708
542.00,3.6878
541.00,3.8190
540.00,4.1637
539.00,4.6103
538.00,4.2464
537.00,4.4932
536.00,4.1435
535.00,3.7386
534.00,3.6189
533.00,3.6108
532.00,3.7316
531.00,4.0524
530.00,4.7052
529.00,4.5273
528.00,4.0054
527.00,3.7270
526.00,3.6246
525.00,3.6600
524.00,3.7964
523.00,3.9742
522.00,4.0470
521.00,3.9889
520.00,3.9342
519.00,3.8545
518.00,3.7335
517.00,3.6242
516.00,3.5330
515.00,3.4468
514.00,3.3529
513.00,3.2592
512.00,3.1854
511.00,3.1495
510.00,3.1575
509.00,3.2021
508.00,3.2733
507.00,3.3772
506.00,3.5580
505.00,3.8542
504.00,4.0340
503.00,3.7726
502.00,3.5005
501.00,3.3651
500.00,3.3552
499.00,3.4549
498.00,3.6285
497.00,3.7450
496.00,3.6650
495.00,3.4915
494.00,3.3534
493.00,3.2756
492.00,3.2256
491.00,3.1752
490.00,3.1377
489.00,3.1553
488.00,3.2698
487.00,3.5280
486.00,3.8482
485.00,3.7185
484.00,3.4190
483.00,3.2080
482.00,3.0742
481.00,2.9921
480.00,2.9519
479.00,2.9601
478.00,3.0050
477.00,3.0614
476.00,3.1374
475.00,3.2771
474.00,3.4956
473.00,3.7159
472.00,3.8258
471.00,3.8482
470.00,3.7900
469.00,3.6995
468.00,3.6584
467.00,3.6411
466.00,3.5611
465.00,3.4378
464.00,3.3428
463.00,3.3670
462.00,3.4902
461.00,3.7046
460.00,4.2052
459.00,3.9675
458.00,3.6741
457.00,3.6422
456.00,3.8298
455.00,4.1870
454.00,3.7376
453.00,3.4972
452.00,3.4554
451.00,3.5782
450.00,3.8930
449.00,3.8597
448.00,3.6068
447.00,3.4612
446.00,3.3610
445.00,3.3208
444.00,3.3198
443.00,3.4267
442.00,3.7836
441.00,3.6199
440.00,3.2684
439.00,3.1726
438.00,3.1850
437.00,3.1727
436.00,3.1458
435.00,3.1790
434.00,3.2294
433.00,3.2441
432.00,3.2385
431.00,3.2407
430.00,3.2779
429.00,3.3608
428.00,3.4430
427.00,3.4140
426.00,3.2709
425.00,3.1109
424.00,3.0227
423.00,3.0341
422.00,3.0853
421.00,3.0790
420.00,3.0341
419.00,3.0211
418.00,3.0250
417.00,2.9803
416.00,2.9045
415.00,2.8797
414.00,2.9556
413.00,3.0403
412.00,3.0046
411.00,2.9469
410.00,2.9396
409.00,2.9582
408.00,3.0652
407.00,3.3356
406.00,3.2041
405.00,2.9254
404.00,2.8338
403.00,2.8300
402.00,2.8350
401.00,2.8013
400.00,2.7548
