Created as New Dataset,Sample 172 By Administrator Date Friday, November 26 2021
cm-1,A
7000.00,1.0263
6999.00,1.0301
6998.00,1.0340
6997.00,1.0379
6996.00,1.0419
6995.00,1.0463
6994.00,1.0510
6993.00,1.0558
6992.00,1.0603
6991.00,1.0643
6990.00,1.0682
6989.00,1.0720
6988.00,1.0755
6987.00,1.0790
6986.00,1.0825
6985.00,1.0862
6984.00,1.0901
6983.00,1.0939
6982.00,1.0975
6981.00,1.1010
6980.00,1.1044
6979.00,1.1079
6978.00,1.1115
6977.00,1.1149
6976.00,1.1180
6975.00,1.1208
6974.00,1.1235
6973.00,1.1266
6972.00,1.1299
6971.00,1.1331
6970.00,1.1359
6969.00,1.1385
6968.00,1.1412
6967.00,1.1439
6966.00,1.1467
6965.00,1.1495
6964.00,1.1521
6963.00,1.1547
6962.00,1.1576
6961.00,1.1607
6960.00,1.1637
6959.00,1.1661
6958.00,1.1680
6957.00,1.1696
6956.00,1.1711
6955.00,1.1728
6954.00,1.1747
6953.00,1.1766
6952.00,1.1785
6951.00,1.1802
6950.00,1.1819
6949.00,1.1836
6948.00,1.1855
6947.00,1.1873
6946.00,1.1889
6945.00,1.1904
6944.00,1.1919
6943.00,1.1934
6942.00,1.1947
6941.00,1.1958
6940.00,1.1968
6939.00,1.1976
6938.00,1.1985
6937.00,1.1995
6936.00,1.2007
6935.00,1.2021
6934.00,1.2036
6933.00,1.2051
6932.00,1.2065
6931.00,1.2079
6930.00,1.2091
6929.00,1.2101
6928.00,1.2107
6927.00,1.2110
6926.00,1.2112
6925.00,1.2114
6924.00,1.2115
6923.00,1.2117
6922.00,1.2117
6921.00,1.2116
6920.00,1.2113
6919.00,1.2113
6918.00,1.2117
6917.00,1.2122
6916.00,1.2126
6915.00,1.2128
6914.00,1.2129
6913.00,1.2130
6912.00,1.2129
6911.00,1.2124
6910.00,1.2116
6909.00,1.2108
6908.00,1.2101
6907.00,1.2093
6906.00,1.2085
6905.00,1.2076
6904.00,1.2066
6903.00,1.2055
6902.00,1.2044
6901.00,1.2033
6900.00,1.2024
6899.00,1.2015
6898.00,1.2008
6897.00,1.2002
6896.00,1.1993
6895.00,1.1981
6894.00,1.1966
6893.00,1.1951
6892.00,1.1936
6891.00,1.1920
6890.00,1.1903
6889.00,1.1887
6888.00,1.1874
6887.00,1.1862
6886.00,1.1849
6885.00,1.1834
6884.00,1.1817
6883.00,1.1798
6882.00,1.1779
6881.00,1.1760
6880.00,1.1740
6879.00,1.1718
6878.00,1.1693
6877.00,1.1669
6876.00,1.1646
6875.00,1.1624
6874.00,1.1602
6873.00,1.1578
6872.00,1.1553
6871.00,1.1528
6870.00,1.1502
6869.00,1.1475
6868.00,1.1446
6867.00,1.1416
6866.00,1.1387
6865.00,1.1361
6864.00,1.1335
6863.00,1.1307
6862.00,1.1275
6861.00,1.1241
6860.00,1.1207
6859.00,1.1174
6858.00,1.1140
6857.00,1.1106
6856.00,1.1073
6855.00,1.1041
6854.00,1.1011
6853.00,1.0981
6852.00,1.0951
6851.00,1.0920
6850.00,1.0887
6849.00,1.0852
6848.00,1.0815
6847.00,1.0777
6846.00,1.0738
6845.00,1.0696
6844.00,1.0654
6843.00,1.0613
6842.00,1.0576
6841.00,1.0542
6840.00,1.0507
6839.00,1.0468
6838.00,1.0427
6837.00,1.0387
6836.00,1.0347
6835.00,1.0306
6834.00,1.0264
6833.00,1.0222
6832.00,1.0182
6831.00,1.0143
6830.00,1.0102
6829.00,1.0057
6828.00,1.0013
6827.00,0.9970
6826.00,0.9928
6825.00,0.9885
6824.00,0.9841
6823.00,0.9795
6822.00,0.9748
6821.00,0.9701
6820.00,0.9655
6819.00,0.9609
6818.00,0.9564
6817.00,0.9520
6816.00,0.9475
6815.00,0.9429
6814.00,0.9382
6813.00,0.9335
6812.00,0.9285
6811.00,0.9234
6810.00,0.9184
6809.00,0.9136
6808.00,0.9087
6807.00,0.9037
6806.00,0.8986
6805.00,0.8936
6804.00,0.8885
6803.00,0.8832
6802.00,0.8780
6801.00,0.8728
6800.00,0.8678
6799.00,0.8627
6798.00,0.8575
6797.00,0.8522
6796.00,0.8469
6795.00,0.8416
6794.00,0.8364
6793.00,0.8312
6792.00,0.8260
6791.00,0.8210
6790.00,0.8162
6789.00,0.8117
6788.00,0.8072
6787.00,0.8027
6786.00,0.7981
6785.00,0.7936
6784.00,0.7891
6783.00,0.7846
6782.00,0.7800
6781.00,0.7754
6780.00,0.7708
6779.00,0.7662
6778.00,0.7618
6777.00,0.7575
6776.00,0.7533
6775.00,0.7494
6774.00,0.7458
6773.00,0.7423
6772.00,0.7388
6771.00,0.7354
6770.00,0.7320
6769.00,0.7288
6768.00,0.7257
6767.00,0.7227
6766.00,0.7199
6765.00,0.7173
6764.00,0.7148
6763.00,0.7125
6762.00,0.7103
6761.00,0.7082
6760.00,0.7063
6759.00,0.7044
6758.00,0.7028
6757.00,0.7014
6756.00,0.7001
6755.00,0.6989
6754.00,0.6978
6753.00,0.6969
6752.00,0.6962
6751.00,0.6956
6750.00,0.6953
6749.00,0.6952
6748.00,0.6951
6747.00,0.6951
6746.00,0.6952
6745.00,0.6953
6744.00,0.6957
6743.00,0.6962
6742.00,0.6969
6741.00,0.6977
6740.00,0.6987
6739.00,0.6999
6738.00,0.7012
6737.00,0.7026
6736.00,0.7040
6735.00,0.7054
6734.00,0.7070
6733.00,0.7090
6732.00,0.7112
6731.00,0.7135
6730.00,0.7159
6729.00,0.7185
6728.00,0.7213
6727.00,0.7241
6726.00,0.7269
6725.00,0.7296
6724.00,0.7324
6723.00,0.7353
6722.00,0.7384
6721.00,0.7416
6720.00,0.7449
6719.00,0.7482
6718.00,0.7516
6717.00,0.7552
6716.00,0.7590
6715.00,0.7629
6714.00,0.7669
6713.00,0.7710
6712.00,0.7752
6711.00,0.7795
6710.00,0.7839
6709.00,0.7883
6708.00,0.7926
6707.00,0.7969
6706.00,0.8013
6705.00,0.8056
6704.00,0.8100
6703.00,0.8145
6702.00,0.8191
6701.00,0.8238
6700.00,0.8286
6699.00,0.8335
6698.00,0.8384
6697.00,0.8435
6696.00,0.8485
6695.00,0.8535
6694.00,0.8584
6693.00,0.8634
6692.00,0.8684
6691.00,0.8735
6690.00,0.8786
6689.00,0.8837
6688.00,0.8888
6687.00,0.8940
6686.00,0.8993
6685.00,0.9046
6684.00,0.9099
6683.00,0.9150
6682.00,0.9201
6681.00,0.9253
6680.00,0.9305
6679.00,0.9356
6678.00,0.9405
6677.00,0.9454
6676.00,0.9503
6675.00,0.9551
6674.00,0.9601
6673.00,0.9652
6672.00,0.9703
6671.00,0.9754
6670.00,0.9804
6669.00,0.9855
6668.00,0.9908
6667.00,0.9960
6666.00,1.0011
6665.00,1.0061
6664.00,1.0109
6663.00,1.0156
6662.00,1.0201
6661.00,1.0245
6660.00,1.0289
6659.00,1.0333
6658.00,1.0378
6657.00,1.0424
6656.00,1.0468
6655.00,1.0513
6654.00,1.0557
6653.00,1.0601
6652.00,1.0645
6651.00,1.0690
6650.00,1.0735
6649.00,1.0781
6648.00,1.0829
6647.00,1.0875
6646.00,1.0918
6645.00,1.0960
6644.00,1.1001
6643.00,1.1041
6642.00,1.1081
6641.00,1.1120
6640.00,1.1156
6639.00,1.1193
6638.00,1.1229
6637.00,1.1265
6636.00,1.1301
6635.00,1.1334
6634.00,1.1366
6633.00,1.1398
6632.00,1.1431
6631.00,1.1467
6630.00,1.1504
6629.00,1.1541
6628.00,1.1574
6627.00,1.1606
6626.00,1.1636
6625.00,1.1667
6624.00,1.1698
6623.00,1.1730
6622.00,1.1760
6621.00,1.1788
6620.00,1.1816
6619.00,1.1842
6618.00,1.1866
6617.00,1.1888
6616.00,1.1911
6615.00,1.1935
6614.00,1.1962
6613.00,1.1988
6612.00,1.2014
6611.00,1.2038
6610.00,1.2062
6609.00,1.2085
6608.00,1.2106
6607.00,1.2126
6606.00,1.2146
6605.00,1.2163
6604.00,1.2179
6603.00,1.2194
6602.00,1.2211
6601.00,1.2228
6600.00,1.2245
6599.00,1.2262
6598.00,1.2280
6597.00,1.2298
6596.00,1.2315
6595.00,1.2329
6594.00,1.2339
6593.00,1.2348
6592.00,1.2358
6591.00,1.2370
6590.00,1.2381
6589.00,1.2392
6588.00,1.2403
6587.00,1.2415
6586.00,1.2425
6585.00,1.2432
6584.00,1.2435
6583.00,1.2438
6582.00,1.2444
6581.00,1.2451
6580.00,1.2458
6579.00,1.2463
6578.00,1.2465
6577.00,1.2466
6576.00,1.2467
6575.00,1.2471
6574.00,1.2476
6573.00,1.2481
6572.00,1.2483
6571.00,1.2481
6570.00,1.2480
6569.00,1.2480
6568.00,1.2480
6567.00,1.2480
6566.00,1.2482
6565.00,1.2486
6564.00,1.2491
6563.00,1.2490
6562.00,1.2482
6561.00,1.2471
6560.00,1.2462
6559.00,1.2457
6558.00,1.2454
6557.00,1.2450
6556.00,1.2445
6555.00,1.2437
6554.00,1.2425
6553.00,1.2407
6552.00,1.2387
6551.00,1.2369
6550.00,1.2356
6549.00,1.2345
6548.00,1.2333
6547.00,1.2321
6546.00,1.2311
6545.00,1.2302
6544.00,1.2288
6543.00,1.2272
6542.00,1.2255
6541.00,1.2241
6540.00,1.2227
6539.00,1.2211
6538.00,1.2194
6537.00,1.2178
6536.00,1.2162
6535.00,1.2145
6534.00,1.2126
6533.00,1.2105
6532.00,1.2081
6531.00,1.2057
6530.00,1.2031
6529.00,1.2007
6528.00,1.1985
6527.00,1.1965
6526.00,1.1945
6525.00,1.1922
6524.00,1.1897
6523.00,1.1870
6522.00,1.1842
6521.00,1.1813
6520.00,1.1784
6519.00,1.1754
6518.00,1.1725
6517.00,1.1693
6516.00,1.1660
6515.00,1.1626
6514.00,1.1592
6513.00,1.1558
6512.00,1.1524
6511.00,1.1490
6510.00,1.1458
6509.00,1.1426
6508.00,1.1393
6507.00,1.1357
6506.00,1.1319
6505.00,1.1280
6504.00,1.1241
6503.00,1.1199
6502.00,1.1155
6501.00,1.1113
6500.00,1.1074
6499.00,1.1036
6498.00,1.0998
6497.00,1.0957
6496.00,1.0915
6495.00,1.0871
6494.00,1.0827
6493.00,1.0780
6492.00,1.0732
6491.00,1.0683
6490.00,1.0637
6489.00,1.0591
6488.00,1.0544
6487.00,1.0496
6486.00,1.0448
6485.00,1.0403
6484.00,1.0358
6483.00,1.0312
6482.00,1.0263
6481.00,1.0213
6480.00,1.0163
6479.00,1.0111
6478.00,1.0058
6477.00,1.0005
6476.00,0.9953
6475.00,0.9902
6474.00,0.9850
6473.00,0.9797
6472.00,0.9744
6471.00,0.9691
6470.00,0.9638
6469.00,0.9584
6468.00,0.9529
6467.00,0.9473
6466.00,0.9418
6465.00,0.9363
6464.00,0.9308
6463.00,0.9254
6462.00,0.9201
6461.00,0.9148
6460.00,0.9096
6459.00,0.9041
6458.00,0.8985
6457.00,0.8929
6456.00,0.8873
6455.00,0.8818
6454.00,0.8765
6453.00,0.8712
6452.00,0.8659
6451.00,0.8606
6450.00,0.8551
6449.00,0.8497
6448.00,0.8444
6447.00,0.8391
6446.00,0.8339
6445.00,0.8289
6444.00,0.8241
6443.00,0.8193
6442.00,0.8144
6441.00,0.8094
6440.00,0.8045
6439.00,0.7997
6438.00,0.7951
6437.00,0.7906
6436.00,0.7862
6435.00,0.7819
6434.00,0.7778
6433.00,0.7738
6432.00,0.7700
6431.00,0.7661
6430.00,0.7623
6429.00,0.7586
6428.00,0.7551
6427.00,0.7516
6426.00,0.7482
6425.00,0.7450
6424.00,0.7419
6423.00,0.7390
6422.00,0.7364
6421.00,0.7340
6420.00,0.7317
6419.00,0.7296
6418.00,0.7275
6417.00,0.7256
6416.00,0.7238
6415.00,0.7222
6414.00,0.7208
6413.00,0.7195
6412.00,0.7183
6411.00,0.7172
6410.00,0.7163
6409.00,0.7156
6408.00,0.7151
6407.00,0.7148
6406.00,0.7148
6405.00,0.7151
6404.00,0.7155
6403.00,0.7160
6402.00,0.7166
6401.00,0.7173
6400.00,0.7181
6399.00,0.7190
6398.00,0.7202
6397.00,0.7217
6396.00,0.7233
6395.00,0.7250
6394.00,0.7270
6393.00,0.7291
6392.00,0.7313
6391.00,0.7336
6390.00,0.7359
6389.00,0.7384
6388.00,0.7411
6387.00,0.7440
6386.00,0.7470
6385.00,0.7501
6384.00,0.7534
6383.00,0.7567
6382.00,0.7601
6381.00,0.7637
6380.00,0.7674
6379.00,0.7712
6378.00,0.7752
6377.00,0.7794
6376.00,0.7836
6375.00,0.7879
6374.00,0.7922
6373.00,0.7966
6372.00,0.8010
6371.00,0.8053
6370.00,0.8097
6369.00,0.8143
6368.00,0.8192
6367.00,0.8242
6366.00,0.8293
6365.00,0.8344
6364.00,0.8396
6363.00,0.8447
6362.00,0.8499
6361.00,0.8551
6360.00,0.8603
6359.00,0.8655
6358.00,0.8708
6357.00,0.8762
6356.00,0.8816
6355.00,0.8871
6354.00,0.8925
6353.00,0.8980
6352.00,0.9035
6351.00,0.9090
6350.00,0.9144
6349.00,0.9198
6348.00,0.9252
6347.00,0.9305
6346.00,0.9359
6345.00,0.9414
6344.00,0.9468
6343.00,0.9522
6342.00,0.9576
6341.00,0.9630
6340.00,0.9685
6339.00,0.9740
6338.00,0.9795
6337.00,0.9850
6336.00,0.9904
6335.00,0.9957
6334.00,1.0010
6333.00,1.0064
6332.00,1.0117
6331.00,1.0170
6330.00,1.0222
6329.00,1.0271
6328.00,1.0320
6327.00,1.0367
6326.00,1.0415
6325.00,1.0464
6324.00,1.0513
6323.00,1.0563
6322.00,1.0612
6321.00,1.0662
6320.00,1.0711
6319.00,1.0757
6318.00,1.0803
6317.00,1.0848
6316.00,1.0894
6315.00,1.0940
6314.00,1.0985
6313.00,1.1029
6312.00,1.1070
6311.00,1.1111
6310.00,1.1153
6309.00,1.1196
6308.00,1.1239
6307.00,1.1280
6306.00,1.1319
6305.00,1.1358
6304.00,1.1397
6303.00,1.1435
6302.00,1.1472
6301.00,1.1510
6300.00,1.1549
6299.00,1.1587
6298.00,1.1622
6297.00,1.1655
6296.00,1.1684
6295.00,1.1713
6294.00,1.1742
6293.00,1.1773
6292.00,1.1806
6291.00,1.1839
6290.00,1.1872
6289.00,1.1903
6288.00,1.1934
6287.00,1.1964
6286.00,1.1993
6285.00,1.2022
6284.00,1.2051
6283.00,1.2080
6282.00,1.2108
6281.00,1.2133
6280.00,1.2154
6279.00,1.2175
6278.00,1.2197
6277.00,1.2219
6276.00,1.2241
6275.00,1.2262
6274.00,1.2283
6273.00,1.2305
6272.00,1.2324
6271.00,1.2341
6270.00,1.2356
6269.00,1.2372
6268.00,1.2390
6267.00,1.2410
6266.00,1.2430
6265.00,1.2449
6264.00,1.2467
6263.00,1.2485
6262.00,1.2501
6261.00,1.2512
6260.00,1.2520
6259.00,1.2527
6258.00,1.2533
6257.00,1.2539
6256.00,1.2544
6255.00,1.2551
6254.00,1.2560
6253.00,1.2570
6252.00,1.2579
6251.00,1.2586
6250.00,1.2592
6249.00,1.2597
6248.00,1.2602
6247.00,1.2606
6246.00,1.2612
6245.00,1.2619
6244.00,1.2626
6243.00,1.2632
6242.00,1.2638
6241.00,1.2643
6240.00,1.2646
6239.00,1.2645
6238.00,1.2641
6237.00,1.2637
6236.00,1.2633
6235.00,1.2629
6234.00,1.2626
6233.00,1.2623
6232.00,1.2619
6231.00,1.2614
6230.00,1.2605
6229.00,1.2594
6228.00,1.2582
6227.00,1.2572
6226.00,1.2564
6225.00,1.2556
6224.00,1.2546
6223.00,1.2537
6222.00,1.2527
6221.00,1.2517
6220.00,1.2506
6219.00,1.2493
6218.00,1.2481
6217.00,1.2469
6216.00,1.2455
6215.00,1.2437
6214.00,1.2417
6213.00,1.2396
6212.00,1.2375
6211.00,1.2356
6210.00,1.2340
6209.00,1.2325
6208.00,1.2309
6207.00,1.2291
6206.00,1.2274
6205.00,1.2254
6204.00,1.2231
6203.00,1.2204
6202.00,1.2177
6201.00,1.2153
6200.00,1.2128
6199.00,1.2102
6198.00,1.2074
6197.00,1.2047
6196.00,1.2021
6195.00,1.1995
6194.00,1.1966
6193.00,1.1936
6192.00,1.1905
6191.00,1.1874
6190.00,1.1843
6189.00,1.1813
6188.00,1.1782
6187.00,1.1750
6186.00,1.1718
6185.00,1.1684
6184.00,1.1648
6183.00,1.1609
6182.00,1.1569
6181.00,1.1529
6180.00,1.1491
6179.00,1.1455
6178.00,1.1419
6177.00,1.1383
6176.00,1.1345
6175.00,1.1307
6174.00,1.1267
6173.00,1.1227
6172.00,1.1186
6171.00,1.1144
6170.00,1.1102
6169.00,1.1060
6168.00,1.1017
6167.00,1.0972
6166.00,1.0927
6165.00,1.0882
6164.00,1.0837
6163.00,1.0793
6162.00,1.0749
6161.00,1.0705
6160.00,1.0660
6159.00,1.0613
6158.00,1.0565
6157.00,1.0518
6156.00,1.0471
6155.00,1.0424
6154.00,1.0377
6153.00,1.0331
6152.00,1.0284
6151.00,1.0236
6150.00,1.0188
6149.00,1.0142
6148.00,1.0095
6147.00,1.0049
6146.00,1.0003
6145.00,0.9959
6144.00,0.9914
6143.00,0.9869
6142.00,0.9821
6141.00,0.9773
6140.00,0.9726
6139.00,0.9679
6138.00,0.9632
6137.00,0.9585
6136.00,0.9537
6135.00,0.9490
6134.00,0.9443
6133.00,0.9397
6132.00,0.9351
6131.00,0.9305
6130.00,0.9258
6129.00,0.9211
6128.00,0.9165
6127.00,0.9117
6126.00,0.9070
6125.00,0.9021
6124.00,0.8972
6123.00,0.8922
6122.00,0.8872
6121.00,0.8822
6120.00,0.8773
6119.00,0.8724
6118.00,0.8675
6117.00,0.8627
6116.00,0.8578
6115.00,0.8528
6114.00,0.8477
6113.00,0.8427
6112.00,0.8377
6111.00,0.8327
6110.00,0.8279
6109.00,0.8230
6108.00,0.8181
6107.00,0.8131
6106.00,0.8080
6105.00,0.8031
6104.00,0.7982
6103.00,0.7933
6102.00,0.7886
6101.00,0.7840
6100.00,0.7795
6099.00,0.7750
6098.00,0.7706
6097.00,0.7663
6096.00,0.7620
6095.00,0.7578
6094.00,0.7537
6093.00,0.7497
6092.00,0.7459
6091.00,0.7421
6090.00,0.7384
6089.00,0.7350
6088.00,0.7317
6087.00,0.7284
6086.00,0.7253
6085.00,0.7224
6084.00,0.7197
6083.00,0.7171
6082.00,0.7146
6081.00,0.7123
6080.00,0.7102
6079.00,0.7082
6078.00,0.7064
6077.00,0.7048
6076.00,0.7035
6075.00,0.7023
6074.00,0.7012
6073.00,0.7004
6072.00,0.6998
6071.00,0.6992
6070.00,0.6989
6069.00,0.6987
6068.00,0.6988
6067.00,0.6990
6066.00,0.6994
6065.00,0.6999
6064.00,0.7007
6063.00,0.7016
6062.00,0.7027
6061.00,0.7040
6060.00,0.7055
6059.00,0.7071
6058.00,0.7090
6057.00,0.7110
6056.00,0.7132
6055.00,0.7155
6054.00,0.7180
6053.00,0.7207
6052.00,0.7236
6051.00,0.7265
6050.00,0.7296
6049.00,0.7328
6048.00,0.7363
6047.00,0.7398
6046.00,0.7434
6045.00,0.7472
6044.00,0.7510
6043.00,0.7550
6042.00,0.7591
6041.00,0.7634
6040.00,0.7678
6039.00,0.7724
6038.00,0.7771
6037.00,0.7818
6036.00,0.7867
6035.00,0.7916
6034.00,0.7966
6033.00,0.8017
6032.00,0.8069
6031.00,0.8120
6030.00,0.8171
6029.00,0.8224
6028.00,0.8278
6027.00,0.8334
6026.00,0.8391
6025.00,0.8449
6024.00,0.8507
6023.00,0.8565
6022.00,0.8624
6021.00,0.8683
6020.00,0.8742
6019.00,0.8801
6018.00,0.8859
6017.00,0.8918
6016.00,0.8976
6015.00,0.9035
6014.00,0.9093
6013.00,0.9153
6012.00,0.9214
6011.00,0.9275
6010.00,0.9336
6009.00,0.9396
6008.00,0.9456
6007.00,0.9515
6006.00,0.9574
6005.00,0.9633
6004.00,0.9693
6003.00,0.9753
6002.00,0.9813
6001.00,0.9873
6000.00,0.9933
5999.00,0.9992
5998.00,1.0051
5997.00,1.0109
5996.00,1.0166
5995.00,1.0223
5994.00,1.0279
5993.00,1.0335
5992.00,1.0392
5991.00,1.0449
5990.00,1.0507
5989.00,1.0564
5988.00,1.0620
5987.00,1.0676
5986.00,1.0730
5985.00,1.0784
5984.00,1.0836
5983.00,1.0889
5982.00,1.0941
5981.00,1.0995
5980.00,1.1047
5979.00,1.1097
5978.00,1.1146
5977.00,1.1193
5976.00,1.1241
5975.00,1.1288
5974.00,1.1335
5973.00,1.1382
5972.00,1.1430
5971.00,1.1477
5970.00,1.1524
5969.00,1.1569
5968.00,1.1612
5967.00,1.1654
5966.00,1.1697
5965.00,1.1740
5964.00,1.1784
5963.00,1.1828
5962.00,1.1871
5961.00,1.1913
5960.00,1.1954
5959.00,1.1993
5958.00,1.2028
5957.00,1.2063
5956.00,1.2097
5955.00,1.2131
5954.00,1.2167
5953.00,1.2203
5952.00,1.2239
5951.00,1.2275
5950.00,1.2310
5949.00,1.2345
5948.00,1.2380
5947.00,1.2416
5946.00,1.2452
5945.00,1.2487
5944.00,1.2518
5943.00,1.2548
5942.00,1.2575
5941.00,1.2601
5940.00,1.2625
5939.00,1.2651
5938.00,1.2678
5937.00,1.2706
5936.00,1.2734
5935.00,1.2759
5934.00,1.2781
5933.00,1.2803
5932.00,1.2824
5931.00,1.2845
5930.00,1.2867
5929.00,1.2888
5928.00,1.2908
5927.00,1.2927
5926.00,1.2944
5925.00,1.2961
5924.00,1.2979
5923.00,1.2999
5922.00,1.3021
5921.00,1.3043
5920.00,1.3064
5919.00,1.3081
5918.00,1.3094
5917.00,1.3105
5916.00,1.3113
5915.00,1.3121
5914.00,1.3130
5913.00,1.3140
5912.00,1.3152
5911.00,1.3164
5910.00,1.3174
5909.00,1.3182
5908.00,1.3188
5907.00,1.3194
5906.00,1.3199
5905.00,1.3205
5904.00,1.3212
5903.00,1.3220
5902.00,1.3226
5901.00,1.3231
5900.00,1.3233
5899.00,1.3235
5898.00,1.3235
5897.00,1.3235
5896.00,1.3235
5895.00,1.3236
5894.00,1.3238
5893.00,1.3240
5892.00,1.3241
5891.00,1.3241
5890.00,1.3242
5889.00,1.3241
5888.00,1.3238
5887.00,1.3232
5886.00,1.3225
5885.00,1.3219
5884.00,1.3213
5883.00,1.3208
5882.00,1.3202
5881.00,1.3194
5880.00,1.3183
5879.00,1.3170
5878.00,1.3157
5877.00,1.3146
5876.00,1.3135
5875.00,1.3124
5874.00,1.3113
5873.00,1.3102
5872.00,1.3088
5871.00,1.3073
5870.00,1.3057
5869.00,1.3041
5868.00,1.3024
5867.00,1.3007
5866.00,1.2990
5865.00,1.2973
5864.00,1.2957
5863.00,1.2941
5862.00,1.2924
5861.00,1.2906
5860.00,1.2886
5859.00,1.2863
5858.00,1.2838
5857.00,1.2812
5856.00,1.2787
5855.00,1.2761
5854.00,1.2734
5853.00,1.2706
5852.00,1.2678
5851.00,1.2650
5850.00,1.2622
5849.00,1.2595
5848.00,1.2566
5847.00,1.2537
5846.00,1.2508
5845.00,1.2480
5844.00,1.2451
5843.00,1.2421
5842.00,1.2392
5841.00,1.2360
5840.00,1.2326
5839.00,1.2289
5838.00,1.2250
5837.00,1.2211
5836.00,1.2172
5835.00,1.2133
5834.00,1.2095
5833.00,1.2059
5832.00,1.2022
5831.00,1.1983
5830.00,1.1942
5829.00,1.1898
5828.00,1.1855
5827.00,1.1813
5826.00,1.1770
5825.00,1.1727
5824.00,1.1684
5823.00,1.1642
5822.00,1.1599
5821.00,1.1555
5820.00,1.1508
5819.00,1.1461
5818.00,1.1413
5817.00,1.1364
5816.00,1.1314
5815.00,1.1263
5814.00,1.1213
5813.00,1.1163
5812.00,1.1113
5811.00,1.1061
5810.00,1.1008
5809.00,1.0956
5808.00,1.0903
5807.00,1.0849
5806.00,1.0794
5805.00,1.0738
5804.00,1.0682
5803.00,1.0627
5802.00,1.0571
5801.00,1.0515
5800.00,1.0458
5799.00,1.0400
5798.00,1.0342
5797.00,1.0282
5796.00,1.0223
5795.00,1.0163
5794.00,1.0102
5793.00,1.0040
5792.00,0.9976
5791.00,0.9912
5790.00,0.9849
5789.00,0.9785
5788.00,0.9723
5787.00,0.9660
5786.00,0.9598
5785.00,0.9535
5784.00,0.9472
5783.00,0.9408
5782.00,0.9344
5781.00,0.9280
5780.00,0.9216
5779.00,0.9151
5778.00,0.9087
5777.00,0.9022
5776.00,0.8958
5775.00,0.8893
5774.00,0.8829
5773.00,0.8766
5772.00,0.8702
5771.00,0.8640
5770.00,0.8578
5769.00,0.8517
5768.00,0.8456
5767.00,0.8395
5766.00,0.8336
5765.00,0.8278
5764.00,0.8221
5763.00,0.8163
5762.00,0.8107
5761.00,0.8051
5760.00,0.7997
5759.00,0.7943
5758.00,0.7891
5757.00,0.7841
5756.00,0.7793
5755.00,0.7746
5754.00,0.7700
5753.00,0.7655
5752.00,0.7613
5751.00,0.7572
5750.00,0.7531
5749.00,0.7493
5748.00,0.7455
5747.00,0.7419
5746.00,0.7384
5745.00,0.7351
5744.00,0.7320
5743.00,0.7292
5742.00,0.7265
5741.00,0.7240
5740.00,0.7217
5739.00,0.7196
5738.00,0.7177
5737.00,0.7160
5736.00,0.7146
5735.00,0.7133
5734.00,0.7122
5733.00,0.7113
5732.00,0.7106
5731.00,0.7100
5730.00,0.7096
5729.00,0.7094
5728.00,0.7094
5727.00,0.7097
5726.00,0.7101
5725.00,0.7108
5724.00,0.7117
5723.00,0.7128
5722.00,0.7141
5721.00,0.7155
5720.00,0.7171
5719.00,0.7188
5718.00,0.7206
5717.00,0.7227
5716.00,0.7251
5715.00,0.7277
5714.00,0.7304
5713.00,0.7334
5712.00,0.7364
5711.00,0.7396
5710.00,0.7430
5709.00,0.7466
5708.00,0.7505
5707.00,0.7545
5706.00,0.7587
5705.00,0.7629
5704.00,0.7671
5703.00,0.7714
5702.00,0.7759
5701.00,0.7805
5700.00,0.7852
5699.00,0.7901
5698.00,0.7952
5697.00,0.8003
5696.00,0.8056
5695.00,0.8110
5694.00,0.8165
5693.00,0.8222
5692.00,0.8280
5691.00,0.8338
5690.00,0.8396
5689.00,0.8455
5688.00,0.8514
5687.00,0.8575
5686.00,0.8636
5685.00,0.8698
5684.00,0.8760
5683.00,0.8823
5682.00,0.8885
5681.00,0.8948
5680.00,0.9011
5679.00,0.9074
5678.00,0.9138
5677.00,0.9203
5676.00,0.9268
5675.00,0.9333
5674.00,0.9398
5673.00,0.9463
5672.00,0.9528
5671.00,0.9592
5670.00,0.9656
5669.00,0.9721
5668.00,0.9786
5667.00,0.9852
5666.00,0.9917
5665.00,0.9981
5664.00,1.0044
5663.00,1.0107
5662.00,1.0170
5661.00,1.0233
5660.00,1.0295
5659.00,1.0358
5658.00,1.0421
5657.00,1.0483
5656.00,1.0545
5655.00,1.0606
5654.00,1.0666
5653.00,1.0726
5652.00,1.0785
5651.00,1.0844
5650.00,1.0903
5649.00,1.0962
5648.00,1.1019
5647.00,1.1074
5646.00,1.1129
5645.00,1.1183
5644.00,1.1236
5643.00,1.1291
5642.00,1.1345
5641.00,1.1399
5640.00,1.1451
5639.00,1.1504
5638.00,1.1557
5637.00,1.1609
5636.00,1.1659
5635.00,1.1708
5634.00,1.1757
5633.00,1.1805
5632.00,1.1853
5631.00,1.1899
5630.00,1.1946
5629.00,1.1992
5628.00,1.2037
5627.00,1.2081
5626.00,1.2124
5625.00,1.2166
5624.00,1.2209
5623.00,1.2251
5622.00,1.2292
5621.00,1.2332
5620.00,1.2371
5619.00,1.2409
5618.00,1.2447
5617.00,1.2484
5616.00,1.2521
5615.00,1.2557
5614.00,1.2595
5613.00,1.2632
5612.00,1.2669
5611.00,1.2704
5610.00,1.2738
5609.00,1.2771
5608.00,1.2802
5607.00,1.2832
5606.00,1.2862
5605.00,1.2892
5604.00,1.2921
5603.00,1.2951
5602.00,1.2980
5601.00,1.3008
5600.00,1.3034
5599.00,1.3059
5598.00,1.3082
5597.00,1.3106
5596.00,1.3131
5595.00,1.3156
5594.00,1.3180
5593.00,1.3203
5592.00,1.3226
5591.00,1.3246
5590.00,1.3266
5589.00,1.3287
5588.00,1.3307
5587.00,1.3328
5586.00,1.3348
5585.00,1.3366
5584.00,1.3381
5583.00,1.3395
5582.00,1.3408
5581.00,1.3421
5580.00,1.3436
5579.00,1.3451
5578.00,1.3465
5577.00,1.3479
5576.00,1.3492
5575.00,1.3503
5574.00,1.3514
5573.00,1.3524
5572.00,1.3534
5571.00,1.3543
5570.00,1.3552
5569.00,1.3561
5568.00,1.3568
5567.00,1.3575
5566.00,1.3583
5565.00,1.3589
5564.00,1.3595
5563.00,1.3600
5562.00,1.3604
5561.00,1.3608
5560.00,1.3611
5559.00,1.3612
5558.00,1.3611
5557.00,1.3610
5556.00,1.3608
5555.00,1.3606
5554.00,1.3605
5553.00,1.3604
5552.00,1.3604
5551.00,1.3603
5550.00,1.3600
5549.00,1.3596
5548.00,1.3592
5547.00,1.3586
5546.00,1.3580
5545.00,1.3572
5544.00,1.3563
5543.00,1.3553
5542.00,1.3543
5541.00,1.3533
5540.00,1.3525
5539.00,1.3516
5538.00,1.3507
5537.00,1.3495
5536.00,1.3481
5535.00,1.3465
5534.00,1.3447
5533.00,1.3429
5532.00,1.3413
5531.00,1.3401
5530.00,1.3389
5529.00,1.3376
5528.00,1.3361
5527.00,1.3344
5526.00,1.3325
5525.00,1.3305
5524.00,1.3284
5523.00,1.3262
5522.00,1.3242
5521.00,1.3221
5520.00,1.3200
5519.00,1.3179
5518.00,1.3158
5517.00,1.3135
5516.00,1.3110
5515.00,1.3083
5514.00,1.3055
5513.00,1.3027
5512.00,1.2999
5511.00,1.2970
5510.00,1.2942
5509.00,1.2913
5508.00,1.2882
5507.00,1.2849
5506.00,1.2814
5505.00,1.2778
5504.00,1.2743
5503.00,1.2710
5502.00,1.2677
5501.00,1.2645
5500.00,1.2612
5499.00,1.2576
5498.00,1.2539
5497.00,1.2499
5496.00,1.2459
5495.00,1.2417
5494.00,1.2377
5493.00,1.2337
5492.00,1.2298
5491.00,1.2257
5490.00,1.2214
5489.00,1.2169
5488.00,1.2123
5487.00,1.2075
5486.00,1.2029
5485.00,1.1984
5484.00,1.1941
5483.00,1.1896
5482.00,1.1850
5481.00,1.1802
5480.00,1.1754
5479.00,1.1706
5478.00,1.1657
5477.00,1.1607
5476.00,1.1554
5475.00,1.1498
5474.00,1.1440
5473.00,1.1383
5472.00,1.1326
5471.00,1.1269
5470.00,1.1212
5469.00,1.1154
5468.00,1.1097
5467.00,1.1039
5466.00,1.0981
5465.00,1.0923
5464.00,1.0863
5463.00,1.0801
5462.00,1.0738
5461.00,1.0674
5460.00,1.0610
5459.00,1.0546
5458.00,1.0481
5457.00,1.0418
5456.00,1.0353
5455.00,1.0288
5454.00,1.0221
5453.00,1.0155
5452.00,1.0088
5451.00,1.0020
5450.00,0.9952
5449.00,0.9883
5448.00,0.9814
5447.00,0.9745
5446.00,0.9674
5445.00,0.9602
5444.00,0.9531
5443.00,0.9460
5442.00,0.9388
5441.00,0.9316
5440.00,0.9244
5439.00,0.9172
5438.00,0.9101
5437.00,0.9030
5436.00,0.8959
5435.00,0.8887
5434.00,0.8815
5433.00,0.8744
5432.00,0.8674
5431.00,0.8605
5430.00,0.8535
5429.00,0.8465
5428.00,0.8395
5427.00,0.8327
5426.00,0.8260
5425.00,0.8195
5424.00,0.8130
5423.00,0.8066
5422.00,0.8003
5421.00,0.7941
5420.00,0.7880
5419.00,0.7820
5418.00,0.7760
5417.00,0.7701
5416.00,0.7644
5415.00,0.7587
5414.00,0.7532
5413.00,0.7478
5412.00,0.7427
5411.00,0.7378
5410.00,0.7331
5409.00,0.7285
5408.00,0.7241
5407.00,0.7199
5406.00,0.7160
5405.00,0.7123
5404.00,0.7089
5403.00,0.7057
5402.00,0.7027
5401.00,0.6999
5400.00,0.6974
5399.00,0.6950
5398.00,0.6929
5397.00,0.6910
5396.00,0.6893
5395.00,0.6878
5394.00,0.6865
5393.00,0.6855
5392.00,0.6848
5391.00,0.6844
5390.00,0.6843
5389.00,0.6844
5388.00,0.6848
5387.00,0.6855
5386.00,0.6864
5385.00,0.6875
5384.00,0.6889
5383.00,0.6905
5382.00,0.6924
5381.00,0.6944
5380.00,0.6968
5379.00,0.6994
5378.00,0.7023
5377.00,0.7053
5376.00,0.7086
5375.00,0.7121
5374.00,0.7158
5373.00,0.7197
5372.00,0.7239
5371.00,0.7282
5370.00,0.7328
5369.00,0.7376
5368.00,0.7426
5367.00,0.7478
5366.00,0.7530
5365.00,0.7584
5364.00,0.7640
5363.00,0.7696
5362.00,0.7754
5361.00,0.7813
5360.00,0.7873
5359.00,0.7934
5358.00,0.7995
5357.00,0.8058
5356.00,0.8121
5355.00,0.8186
5354.00,0.8251
5353.00,0.8317
5352.00,0.8384
5351.00,0.8451
5350.00,0.8519
5349.00,0.8587
5348.00,0.8655
5347.00,0.8725
5346.00,0.8796
5345.00,0.8867
5344.00,0.8937
5343.00,0.9007
5342.00,0.9076
5341.00,0.9147
5340.00,0.9217
5339.00,0.9287
5338.00,0.9359
5337.00,0.9431
5336.00,0.9505
5335.00,0.9578
5334.00,0.9650
5333.00,0.9721
5332.00,0.9792
5331.00,0.9863
5330.00,0.9934
5329.00,1.0004
5328.00,1.0073
5327.00,1.0140
5326.00,1.0209
5325.00,1.0278
5324.00,1.0348
5323.00,1.0418
5322.00,1.0488
5321.00,1.0557
5320.00,1.0624
5319.00,1.0690
5318.00,1.0756
5317.00,1.0822
5316.00,1.0888
5315.00,1.0955
5314.00,1.1020
5313.00,1.1084
5312.00,1.1147
5311.00,1.1208
5310.00,1.1269
5309.00,1.1330
5308.00,1.1392
5307.00,1.1454
5306.00,1.1516
5305.00,1.1578
5304.00,1.1638
5303.00,1.1698
5302.00,1.1755
5301.00,1.1810
5300.00,1.1865
5299.00,1.1920
5298.00,1.1975
5297.00,1.2029
5296.00,1.2081
5295.00,1.2133
5294.00,1.2184
5293.00,1.2235
5292.00,1.2286
5291.00,1.2337
5290.00,1.2386
5289.00,1.2434
5288.00,1.2481
5287.00,1.2528
5286.00,1.2575
5285.00,1.2621
5284.00,1.2667
5283.00,1.2710
5282.00,1.2753
5281.00,1.2794
5280.00,1.2835
5279.00,1.2876
5278.00,1.2916
5277.00,1.2956
5276.00,1.2994
5275.00,1.3033
5274.00,1.3071
5273.00,1.3109
5272.00,1.3146
5271.00,1.3182
5270.00,1.3218
5269.00,1.3253
5268.00,1.3286
5267.00,1.3318
5266.00,1.3350
5265.00,1.3380
5264.00,1.3409
5263.00,1.3438
5262.00,1.3470
5261.00,1.3503
5260.00,1.3535
5259.00,1.3564
5258.00,1.3591
5257.00,1.3616
5256.00,1.3640
5255.00,1.3665
5254.00,1.3690
5253.00,1.3714
5252.00,1.3736
5251.00,1.3757
5250.00,1.3776
5249.00,1.3795
5248.00,1.3813
5247.00,1.3831
5246.00,1.3849
5245.00,1.3868
5244.00,1.3887
5243.00,1.3905
5242.00,1.3923
5241.00,1.3942
5240.00,1.3958
5239.00,1.3973
5238.00,1.3986
5237.00,1.4000
5236.00,1.4014
5235.00,1.4028
5234.00,1.4041
5233.00,1.4053
5232.00,1.4065
5231.00,1.4075
5230.00,1.4085
5229.00,1.4093
5228.00,1.4100
5227.00,1.4106
5226.00,1.4111
5225.00,1.4115
5224.00,1.4119
5223.00,1.4123
5222.00,1.4128
5221.00,1.4132
5220.00,1.4135
5219.00,1.4137
5218.00,1.4137
5217.00,1.4137
5216.00,1.4137
5215.00,1.4135
5214.00,1.4134
5213.00,1.4132
5212.00,1.4131
5211.00,1.4130
5210.00,1.4129
5209.00,1.4126
5208.00,1.4120
5207.00,1.4112
5206.00,1.4103
5205.00,1.4093
5204.00,1.4086
5203.00,1.4080
5202.00,1.4075
5201.00,1.4069
5200.00,1.4061
5199.00,1.4051
5198.00,1.4040
5197.00,1.4028
5196.00,1.4014
5195.00,1.3999
5194.00,1.3984
5193.00,1.3969
5192.00,1.3954
5191.00,1.3940
5190.00,1.3926
5189.00,1.3911
5188.00,1.3895
5187.00,1.3876
5186.00,1.3856
5185.00,1.3834
5184.00,1.3812
5183.00,1.3791
5182.00,1.3770
5181.00,1.3748
5180.00,1.3725
5179.00,1.3700
5178.00,1.3676
5177.00,1.3652
5176.00,1.3628
5175.00,1.3603
5174.00,1.3576
5173.00,1.3548
5172.00,1.3519
5171.00,1.3488
5170.00,1.3456
5169.00,1.3425
5168.00,1.3393
5167.00,1.3361
5166.00,1.3327
5165.00,1.3292
5164.00,1.3257
5163.00,1.3221
5162.00,1.3184
5161.00,1.3147
5160.00,1.3110
5159.00,1.3071
5158.00,1.3031
5157.00,1.2990
5156.00,1.2948
5155.00,1.2906
5154.00,1.2863
5153.00,1.2821
5152.00,1.2780
5151.00,1.2739
5150.00,1.2695
5149.00,1.2649
5148.00,1.2602
5147.00,1.2553
5146.00,1.2505
5145.00,1.2455
5144.00,1.2405
5143.00,1.2355
5142.00,1.2304
5141.00,1.2253
5140.00,1.2202
5139.00,1.2149
5138.00,1.2095
5137.00,1.2038
5136.00,1.1980
5135.00,1.1923
5134.00,1.1867
5133.00,1.1811
5132.00,1.1754
5131.00,1.1694
5130.00,1.1631
5129.00,1.1568
5128.00,1.1504
5127.00,1.1440
5126.00,1.1376
5125.00,1.1312
5124.00,1.1246
5123.00,1.1180
5122.00,1.1113
5121.00,1.1045
5120.00,1.0977
5119.00,1.0909
5118.00,1.0839
5117.00,1.0769
5116.00,1.0696
5115.00,1.0623
5114.00,1.0550
5113.00,1.0476
5112.00,1.0402
5111.00,1.0328
5110.00,1.0253
5109.00,1.0177
5108.00,1.0101
5107.00,1.0025
5106.00,0.9948
5105.00,0.9872
5104.00,0.9795
5103.00,0.9718
5102.00,0.9640
5101.00,0.9563
5100.00,0.9485
5099.00,0.9407
5098.00,0.9329
5097.00,0.9251
5096.00,0.9173
5095.00,0.9094
5094.00,0.9016
5093.00,0.8937
5092.00,0.8859
5091.00,0.8782
5090.00,0.8705
5089.00,0.8629
5088.00,0.8553
5087.00,0.8478
5086.00,0.8404
5085.00,0.8331
5084.00,0.8259
5083.00,0.8188
5082.00,0.8118
5081.00,0.8049
5080.00,0.7981
5079.00,0.7914
5078.00,0.7848
5077.00,0.7784
5076.00,0.7722
5075.00,0.7662
5074.00,0.7604
5073.00,0.7548
5072.00,0.7494
5071.00,0.7443
5070.00,0.7393
5069.00,0.7346
5068.00,0.7301
5067.00,0.7258
5066.00,0.7217
5065.00,0.7179
5064.00,0.7143
5063.00,0.7109
5062.00,0.7080
5061.00,0.7053
5060.00,0.7029
5059.00,0.7008
5058.00,0.6990
5057.00,0.6975
5056.00,0.6963
5055.00,0.6954
5054.00,0.6947
5053.00,0.6944
5052.00,0.6944
5051.00,0.6947
5050.00,0.6953
5049.00,0.6962
5048.00,0.6975
5047.00,0.6989
5046.00,0.7006
5045.00,0.7027
5044.00,0.7050
5043.00,0.7076
5042.00,0.7105
5041.00,0.7136
5040.00,0.7170
5039.00,0.7206
5038.00,0.7245
5037.00,0.7286
5036.00,0.7329
5035.00,0.7375
5034.00,0.7424
5033.00,0.7475
5032.00,0.7528
5031.00,0.7583
5030.00,0.7639
5029.00,0.7696
5028.00,0.7755
5027.00,0.7815
5026.00,0.7878
5025.00,0.7943
5024.00,0.8009
5023.00,0.8077
5022.00,0.8146
5021.00,0.8217
5020.00,0.8288
5019.00,0.8361
5018.00,0.8434
5017.00,0.8507
5016.00,0.8582
5015.00,0.8658
5014.00,0.8735
5013.00,0.8813
5012.00,0.8892
5011.00,0.8970
5010.00,0.9049
5009.00,0.9128
5008.00,0.9209
5007.00,0.9289
5006.00,0.9371
5005.00,0.9453
5004.00,0.9534
5003.00,0.9616
5002.00,0.9698
5001.00,0.9779
5000.00,0.9860
4999.00,0.9941
4998.00,1.0022
4997.00,1.0102
4996.00,1.0182
4995.00,1.0261
4994.00,1.0339
4993.00,1.0416
4992.00,1.0493
4991.00,1.0571
4990.00,1.0649
4989.00,1.0728
4988.00,1.0805
4987.00,1.0882
4986.00,1.0957
4985.00,1.1032
4984.00,1.1106
4983.00,1.1180
4982.00,1.1255
4981.00,1.1328
4980.00,1.1400
4979.00,1.1471
4978.00,1.1542
4977.00,1.1612
4976.00,1.1680
4975.00,1.1748
4974.00,1.1815
4973.00,1.1883
4972.00,1.1950
4971.00,1.2016
4970.00,1.2080
4969.00,1.2143
4968.00,1.2204
4967.00,1.2265
4966.00,1.2327
4965.00,1.2388
4964.00,1.2449
4963.00,1.2508
4962.00,1.2566
4961.00,1.2622
4960.00,1.2678
4959.00,1.2733
4958.00,1.2789
4957.00,1.2844
4956.00,1.2898
4955.00,1.2951
4954.00,1.3002
4953.00,1.3052
4952.00,1.3102
4951.00,1.3153
4950.00,1.3202
4949.00,1.3250
4948.00,1.3296
4947.00,1.3341
4946.00,1.3386
4945.00,1.3431
4944.00,1.3476
4943.00,1.3518
4942.00,1.3559
4941.00,1.3598
4940.00,1.3637
4939.00,1.3679
4938.00,1.3722
4937.00,1.3765
4936.00,1.3806
4935.00,1.3845
4934.00,1.3882
4933.00,1.3917
4932.00,1.3953
4931.00,1.3988
4930.00,1.4023
4929.00,1.4056
4928.00,1.4088
4927.00,1.4119
4926.00,1.4150
4925.00,1.4179
4924.00,1.4209
4923.00,1.4237
4922.00,1.4264
4921.00,1.4291
4920.00,1.4317
4919.00,1.4342
4918.00,1.4368
4917.00,1.4393
4916.00,1.4418
4915.00,1.4444
4914.00,1.4468
4913.00,1.4490
4912.00,1.4512
4911.00,1.4532
4910.00,1.4550
4909.00,1.4568
4908.00,1.4585
4907.00,1.4602
4906.00,1.4618
4905.00,1.4635
4904.00,1.4654
4903.00,1.4673
4902.00,1.4692
4901.00,1.4708
4900.00,1.4722
4899.00,1.4734
4898.00,1.4744
4897.00,1.4753
4896.00,1.4763
4895.00,1.4773
4894.00,1.4783
4893.00,1.4790
4892.00,1.4796
4891.00,1.4802
4890.00,1.4806
4889.00,1.4811
4888.00,1.4817
4887.00,1.4823
4886.00,1.4829
4885.00,1.4834
4884.00,1.4837
4883.00,1.4839
4882.00,1.4841
4881.00,1.4841
4880.00,1.4842
4879.00,1.4842
4878.00,1.4842
4877.00,1.4842
4876.00,1.4840
4875.00,1.4838
4874.00,1.4833
4873.00,1.4828
4872.00,1.4822
4871.00,1.4816
4870.00,1.4809
4869.00,1.4802
4868.00,1.4795
4867.00,1.4788
4866.00,1.4781
4865.00,1.4773
4864.00,1.4764
4863.00,1.4753
4862.00,1.4741
4861.00,1.4729
4860.00,1.4717
4859.00,1.4705
4858.00,1.4691
4857.00,1.4674
4856.00,1.4655
4855.00,1.4636
4854.00,1.4618
4853.00,1.4600
4852.00,1.4582
4851.00,1.4565
4850.00,1.4548
4849.00,1.4527
4848.00,1.4503
4847.00,1.4478
4846.00,1.4453
4845.00,1.4429
4844.00,1.4406
4843.00,1.4384
4842.00,1.4363
4841.00,1.4339
4840.00,1.4313
4839.00,1.4287
4838.00,1.4260
4837.00,1.4232
4836.00,1.4201
4835.00,1.4168
4834.00,1.4134
4833.00,1.4100
4832.00,1.4066
4831.00,1.4033
4830.00,1.4000
4829.00,1.3967
4828.00,1.3933
4827.00,1.3897
4826.00,1.3862
4825.00,1.3826
4824.00,1.3790
4823.00,1.3753
4822.00,1.3715
4821.00,1.3674
4820.00,1.3630
4819.00,1.3584
4818.00,1.3537
4817.00,1.3490
4816.00,1.3444
4815.00,1.3398
4814.00,1.3353
4813.00,1.3306
4812.00,1.3258
4811.00,1.3210
4810.00,1.3161
4809.00,1.3111
4808.00,1.3061
4807.00,1.3010
4806.00,1.2957
4805.00,1.2902
4804.00,1.2847
4803.00,1.2791
4802.00,1.2735
4801.00,1.2678
4800.00,1.2619
4799.00,1.2558
4798.00,1.2496
4797.00,1.2433
4796.00,1.2370
4795.00,1.2307
4794.00,1.2243
4793.00,1.2178
4792.00,1.2111
4791.00,1.2043
4790.00,1.1974
4789.00,1.1905
4788.00,1.1836
4787.00,1.1766
4786.00,1.1695
4785.00,1.1623
4784.00,1.1549
4783.00,1.1474
4782.00,1.1398
4781.00,1.1322
4780.00,1.1246
4779.00,1.1168
4778.00,1.1090
4777.00,1.1011
4776.00,1.0930
4775.00,1.0849
4774.00,1.0767
4773.00,1.0685
4772.00,1.0602
4771.00,1.0519
4770.00,1.0435
4769.00,1.0350
4768.00,1.0263
4767.00,1.0176
4766.00,1.0088
4765.00,1.0001
4764.00,0.9913
4763.00,0.9825
4762.00,0.9737
4761.00,0.9649
4760.00,0.9560
4759.00,0.9471
4758.00,0.9382
4757.00,0.9292
4756.00,0.9203
4755.00,0.9114
4754.00,0.9026
4753.00,0.8939
4752.00,0.8852
4751.00,0.8765
4750.00,0.8678
4749.00,0.8592
4748.00,0.8506
4747.00,0.8422
4746.00,0.8340
4745.00,0.8258
4744.00,0.8178
4743.00,0.8098
4742.00,0.8020
4741.00,0.7944
4740.00,0.7870
4739.00,0.7798
4738.00,0.7728
4737.00,0.7659
4736.00,0.7593
4735.00,0.7529
4734.00,0.7468
4733.00,0.7410
4732.00,0.7354
4731.00,0.7301
4730.00,0.7251
4729.00,0.7204
4728.00,0.7160
4727.00,0.7120
4726.00,0.7082
4725.00,0.7048
4724.00,0.7017
4723.00,0.6989
4722.00,0.6965
4721.00,0.6945
4720.00,0.6928
4719.00,0.6915
4718.00,0.6906
4717.00,0.6900
4716.00,0.6898
4715.00,0.6899
4714.00,0.6905
4713.00,0.6914
4712.00,0.6927
4711.00,0.6943
4710.00,0.6963
4709.00,0.6986
4708.00,0.7013
4707.00,0.7042
4706.00,0.7075
4705.00,0.7111
4704.00,0.7150
4703.00,0.7193
4702.00,0.7238
4701.00,0.7287
4700.00,0.7339
4699.00,0.7393
4698.00,0.7450
4697.00,0.7510
4696.00,0.7573
4695.00,0.7640
4694.00,0.7708
4693.00,0.7779
4692.00,0.7852
4691.00,0.7926
4690.00,0.8002
4689.00,0.8080
4688.00,0.8159
4687.00,0.8240
4686.00,0.8322
4685.00,0.8404
4684.00,0.8488
4683.00,0.8572
4682.00,0.8656
4681.00,0.8742
4680.00,0.8828
4679.00,0.8915
4678.00,0.9002
4677.00,0.9089
4676.00,0.9176
4675.00,0.9263
4674.00,0.9351
4673.00,0.9438
4672.00,0.9526
4671.00,0.9613
4670.00,0.9701
4669.00,0.9790
4668.00,0.9878
4667.00,0.9965
4666.00,1.0053
4665.00,1.0140
4664.00,1.0227
4663.00,1.0314
4662.00,1.0401
4661.00,1.0488
4660.00,1.0575
4659.00,1.0662
4658.00,1.0749
4657.00,1.0835
4656.00,1.0920
4655.00,1.1004
4654.00,1.1089
4653.00,1.1173
4652.00,1.1257
4651.00,1.1342
4650.00,1.1425
4649.00,1.1508
4648.00,1.1589
4647.00,1.1669
4646.00,1.1748
4645.00,1.1826
4644.00,1.1903
4643.00,1.1980
4642.00,1.2058
4641.00,1.2135
4640.00,1.2212
4639.00,1.2289
4638.00,1.2365
4637.00,1.2439
4636.00,1.2512
4635.00,1.2582
4634.00,1.2651
4633.00,1.2719
4632.00,1.2785
4631.00,1.2852
4630.00,1.2919
4629.00,1.2988
4628.00,1.3056
4627.00,1.3124
4626.00,1.3189
4625.00,1.3251
4624.00,1.3311
4623.00,1.3370
4622.00,1.3430
4621.00,1.3489
4620.00,1.3547
4619.00,1.3604
4618.00,1.3660
4617.00,1.3715
4616.00,1.3769
4615.00,1.3822
4614.00,1.3875
4613.00,1.3927
4612.00,1.3979
4611.00,1.4031
4610.00,1.4082
4609.00,1.4130
4608.00,1.4177
4607.00,1.4222
4606.00,1.4268
4605.00,1.4313
4604.00,1.4358
4603.00,1.4403
4602.00,1.4447
4601.00,1.4488
4600.00,1.4529
4599.00,1.4567
4598.00,1.4606
4597.00,1.4645
4596.00,1.4683
4595.00,1.4721
4594.00,1.4758
4593.00,1.4794
4592.00,1.4831
4591.00,1.4868
4590.00,1.4903
4589.00,1.4936
4588.00,1.4965
4587.00,1.4994
4586.00,1.5022
4585.00,1.5052
4584.00,1.5081
4583.00,1.5110
4582.00,1.5139
4581.00,1.5167
4580.00,1.5196
4579.00,1.5225
4578.00,1.5251
4577.00,1.5274
4576.00,1.5295
4575.00,1.5315
4574.00,1.5336
4573.00,1.5358
4572.00,1.5380
4571.00,1.5402
4570.00,1.5423
4569.00,1.5442
4568.00,1.5460
4567.00,1.5476
4566.00,1.5491
4565.00,1.5505
4564.00,1.5520
4563.00,1.5536
4562.00,1.5551
4561.00,1.5565
4560.00,1.5578
4559.00,1.5590
4558.00,1.5600
4557.00,1.5610
4556.00,1.5621
4555.00,1.5632
4554.00,1.5642
4553.00,1.5651
4552.00,1.5659
4551.00,1.5666
4550.00,1.5673
4549.00,1.5679
4548.00,1.5685
4547.00,1.5690
4546.00,1.5693
4545.00,1.5695
4544.00,1.5696
4543.00,1.5696
4542.00,1.5695
4541.00,1.5693
4540.00,1.5691
4539.00,1.5689
4538.00,1.5688
4537.00,1.5687
4536.00,1.5685
4535.00,1.5682
4534.00,1.5678
4533.00,1.5672
4532.00,1.5666
4531.00,1.5660
4530.00,1.5652
4529.00,1.5644
4528.00,1.5635
4527.00,1.5625
4526.00,1.5615
4525.00,1.5604
4524.00,1.5593
4523.00,1.5582
4522.00,1.5571
4521.00,1.5557
4520.00,1.5542
4519.00,1.5526
4518.00,1.5510
4517.00,1.5495
4516.00,1.5480
4515.00,1.5464
4514.00,1.5447
4513.00,1.5426
4512.00,1.5403
4511.00,1.5379
4510.00,1.5355
4509.00,1.5334
4508.00,1.5314
4507.00,1.5295
4506.00,1.5274
4505.00,1.5251
4504.00,1.5225
4503.00,1.5196
4502.00,1.5165
4501.00,1.5134
4500.00,1.5103
4499.00,1.5074
4498.00,1.5044
4497.00,1.5013
4496.00,1.4980
4495.00,1.4948
4494.00,1.4914
4493.00,1.4881
4492.00,1.4846
4491.00,1.4809
4490.00,1.4769
4489.00,1.4728
4488.00,1.4687
4487.00,1.4645
4486.00,1.4605
4485.00,1.4564
4484.00,1.4525
4483.00,1.4485
4482.00,1.4444
4481.00,1.4402
4480.00,1.4357
4479.00,1.4309
4478.00,1.4261
4477.00,1.4212
4476.00,1.4163
4475.00,1.4113
4474.00,1.4061
4473.00,1.4007
4472.00,1.3951
4471.00,1.3895
4470.00,1.3840
4469.00,1.3786
4468.00,1.3731
4467.00,1.3674
4466.00,1.3615
4465.00,1.3555
4464.00,1.3493
4463.00,1.3431
4462.00,1.3368
4461.00,1.3304
4460.00,1.3239
4459.00,1.3174
4458.00,1.3107
4457.00,1.3039
4456.00,1.2969
4455.00,1.2899
4454.00,1.2828
4453.00,1.2756
4452.00,1.2682
4451.00,1.2607
4450.00,1.2530
4449.00,1.2452
4448.00,1.2375
4447.00,1.2297
4446.00,1.2219
4445.00,1.2139
4444.00,1.2057
4443.00,1.1973
4442.00,1.1889
4441.00,1.1805
4440.00,1.1720
4439.00,1.1634
4438.00,1.1545
4437.00,1.1456
4436.00,1.1365
4435.00,1.1274
4434.00,1.1182
4433.00,1.1090
4432.00,1.0996
4431.00,1.0900
4430.00,1.0803
4429.00,1.0707
4428.00,1.0610
4427.00,1.0513
4426.00,1.0416
4425.00,1.0318
4424.00,1.0220
4423.00,1.0121
4422.00,1.0021
4421.00,0.9921
4420.00,0.9821
4419.00,0.9722
4418.00,0.9622
4417.00,0.9523
4416.00,0.9424
4415.00,0.9326
4414.00,0.9228
4413.00,0.9131
4412.00,0.9035
4411.00,0.8940
4410.00,0.8847
4409.00,0.8755
4408.00,0.8664
4407.00,0.8575
4406.00,0.8487
4405.00,0.8402
4404.00,0.8319
4403.00,0.8238
4402.00,0.8160
4401.00,0.8084
4400.00,0.8011
4399.00,0.7941
4398.00,0.7875
4397.00,0.7812
4396.00,0.7753
4395.00,0.7697
4394.00,0.7645
4393.00,0.7597
4392.00,0.7552
4391.00,0.7512
4390.00,0.7475
4389.00,0.7443
4388.00,0.7415
4387.00,0.7391
4386.00,0.7371
4385.00,0.7355
4384.00,0.7344
4383.00,0.7338
4382.00,0.7335
4381.00,0.7337
4380.00,0.7343
4379.00,0.7352
4378.00,0.7365
4377.00,0.7382
4376.00,0.7403
4375.00,0.7428
4374.00,0.7456
4373.00,0.7486
4372.00,0.7520
4371.00,0.7555
4370.00,0.7593
4369.00,0.7634
4368.00,0.7677
4367.00,0.7723
4366.00,0.7772
4365.00,0.7823
4364.00,0.7875
4363.00,0.7930
4362.00,0.7987
4361.00,0.8046
4360.00,0.8107
4359.00,0.8171
4358.00,0.8238
4357.00,0.8307
4356.00,0.8378
4355.00,0.8451
4354.00,0.8527
4353.00,0.8604
4352.00,0.8685
4351.00,0.8767
4350.00,0.8852
4349.00,0.8938
4348.00,0.9026
4347.00,0.9115
4346.00,0.9205
4345.00,0.9297
4344.00,0.9388
4343.00,0.9480
4342.00,0.9573
4341.00,0.9666
4340.00,0.9760
4339.00,0.9855
4338.00,0.9951
4337.00,1.0048
4336.00,1.0146
4335.00,1.0244
4334.00,1.0344
4333.00,1.0444
4332.00,1.0544
4331.00,1.0644
4330.00,1.0744
4329.00,1.0844
4328.00,1.0945
4327.00,1.1045
4326.00,1.1146
4325.00,1.1247
4324.00,1.1347
4323.00,1.1446
4322.00,1.1544
4321.00,1.1641
4320.00,1.1737
4319.00,1.1832
4318.00,1.1927
4317.00,1.2021
4316.00,1.2115
4315.00,1.2208
4314.00,1.2299
4313.00,1.2388
4312.00,1.2476
4311.00,1.2564
4310.00,1.2650
4309.00,1.2736
4308.00,1.2821
4307.00,1.2905
4306.00,1.2988
4305.00,1.3070
4304.00,1.3150
4303.00,1.3229
4302.00,1.3308
4301.00,1.3386
4300.00,1.3465
4299.00,1.3542
4298.00,1.3618
4297.00,1.3692
4296.00,1.3764
4295.00,1.3834
4294.00,1.3903
4293.00,1.3971
4292.00,1.4039
4291.00,1.4107
4290.00,1.4175
4289.00,1.4241
4288.00,1.4306
4287.00,1.4370
4286.00,1.4433
4285.00,1.4494
4284.00,1.4555
4283.00,1.4615
4282.00,1.4673
4281.00,1.4729
4280.00,1.4783
4279.00,1.4836
4278.00,1.4888
4277.00,1.4940
4276.00,1.4994
4275.00,1.5047
4274.00,1.5099
4273.00,1.5148
4272.00,1.5194
4271.00,1.5239
4270.00,1.5284
4269.00,1.5329
4268.00,1.5376
4267.00,1.5422
4266.00,1.5467
4265.00,1.5510
4264.00,1.5552
4263.00,1.5592
4262.00,1.5632
4261.00,1.5671
4260.00,1.5710
4259.00,1.5748
4258.00,1.5786
4257.00,1.5823
4256.00,1.5861
4255.00,1.5898
4254.00,1.5934
4253.00,1.5969
4252.00,1.6002
4251.00,1.6035
4250.00,1.6067
4249.00,1.6099
4248.00,1.6129
4247.00,1.6158
4246.00,1.6185
4245.00,1.6211
4244.00,1.6238
4243.00,1.6266
4242.00,1.6295
4241.00,1.6324
4240.00,1.6350
4239.00,1.6375
4238.00,1.6399
4237.00,1.6421
4236.00,1.6442
4235.00,1.6462
4234.00,1.6482
4233.00,1.6501
4232.00,1.6521
4231.00,1.6540
4230.00,1.6558
4229.00,1.6574
4228.00,1.6589
4227.00,1.6604
4226.00,1.6619
4225.00,1.6634
4224.00,1.6649
4223.00,1.6662
4222.00,1.6673
4221.00,1.6683
4220.00,1.6693
4219.00,1.6703
4218.00,1.6713
4217.00,1.6723
4216.00,1.6733
4215.00,1.6742
4214.00,1.6750
4213.00,1.6756
4212.00,1.6761
4211.00,1.6766
4210.00,1.6768
4209.00,1.6770
4208.00,1.6769
4207.00,1.6767
4206.00,1.6766
4205.00,1.6765
4204.00,1.6765
4203.00,1.6766
4202.00,1.6767
4201.00,1.6767
4200.00,1.6766
4199.00,1.6763
4198.00,1.6759
4197.00,1.6753
4196.00,1.6748
4195.00,1.6744
4194.00,1.6739
4193.00,1.6732
4192.00,1.6722
4191.00,1.6711
4190.00,1.6699
4189.00,1.6688
4188.00,1.6677
4187.00,1.6665
4186.00,1.6651
4185.00,1.6637
4184.00,1.6623
4183.00,1.6610
4182.00,1.6598
4181.00,1.6585
4180.00,1.6571
4179.00,1.6555
4178.00,1.6537
4177.00,1.6516
4176.00,1.6494
4175.00,1.6472
4174.00,1.6450
4173.00,1.6427
4172.00,1.6402
4171.00,1.6377
4170.00,1.6353
4169.00,1.6329
4168.00,1.6306
4167.00,1.6280
4166.00,1.6253
4165.00,1.6224
4164.00,1.6195
4163.00,1.6165
4162.00,1.6135
4161.00,1.6103
4160.00,1.6071
4159.00,1.6037
4158.00,1.6003
4157.00,1.5969
4156.00,1.5934
4155.00,1.5898
4154.00,1.5862
4153.00,1.5826
4152.00,1.5789
4151.00,1.5752
4150.00,1.5714
4149.00,1.5674
4148.00,1.5632
4147.00,1.5588
4146.00,1.5543
4145.00,1.5497
4144.00,1.5451
4143.00,1.5405
4142.00,1.5358
4141.00,1.5311
4140.00,1.5261
4139.00,1.5210
4138.00,1.5158
4137.00,1.5105
4136.00,1.5052
4135.00,1.4998
4134.00,1.4944
4133.00,1.4888
4132.00,1.4831
4131.00,1.4773
4130.00,1.4714
4129.00,1.4654
4128.00,1.4593
4127.00,1.4530
4126.00,1.4467
4125.00,1.4402
4124.00,1.4337
4123.00,1.4269
4122.00,1.4199
4121.00,1.4127
4120.00,1.4055
4119.00,1.3984
4118.00,1.3912
4117.00,1.3839
4116.00,1.3765
4115.00,1.3688
4114.00,1.3610
4113.00,1.3531
4112.00,1.3449
4111.00,1.3366
4110.00,1.3282
4109.00,1.3198
4108.00,1.3112
4107.00,1.3026
4106.00,1.2938
4105.00,1.2848
4104.00,1.2757
4103.00,1.2664
4102.00,1.2569
4101.00,1.2473
4100.00,1.2375
4099.00,1.2277
4098.00,1.2178
4097.00,1.2079
4096.00,1.1979
4095.00,1.1877
4094.00,1.1774
4093.00,1.1670
4092.00,1.1564
4091.00,1.1457
4090.00,1.1348
4089.00,1.1240
4088.00,1.1130
4087.00,1.1020
4086.00,1.0910
4085.00,1.0799
4084.00,1.0688
4083.00,1.0576
4082.00,1.0463
4081.00,1.0350
4080.00,1.0236
4079.00,1.0122
4078.00,1.0008
4077.00,0.9893
4076.00,0.9779
4075.00,0.9664
4074.00,0.9550
4073.00,0.9436
4072.00,0.9322
4071.00,0.9210
4070.00,0.9098
4069.00,0.8988
4068.00,0.8880
4067.00,0.8773
4066.00,0.8667
4065.00,0.8563
4064.00,0.8462
4063.00,0.8364
4062.00,0.8270
4061.00,0.8178
4060.00,0.8091
4059.00,0.8007
4058.00,0.7928
4057.00,0.7853
4056.00,0.7783
4055.00,0.7718
4054.00,0.7657
4053.00,0.7601
4052.00,0.7550
4051.00,0.7505
4050.00,0.7464
4049.00,0.7430
4048.00,0.7401
4047.00,0.7377
4046.00,0.7359
4045.00,0.7346
4044.00,0.7338
4043.00,0.7335
4042.00,0.7337
4041.00,0.7345
4040.00,0.7358
4039.00,0.7376
4038.00,0.7400
4037.00,0.7428
4036.00,0.7461
4035.00,0.7499
4034.00,0.7542
4033.00,0.7590
4032.00,0.7643
4031.00,0.7701
4030.00,0.7763
4029.00,0.7831
4028.00,0.7903
4027.00,0.7979
4026.00,0.8059
4025.00,0.8143
4024.00,0.8230
4023.00,0.8320
4022.00,0.8414
4021.00,0.8510
4020.00,0.8609
4019.00,0.8710
4018.00,0.8814
4017.00,0.8919
4016.00,0.9025
4015.00,0.9134
4014.00,0.9243
4013.00,0.9355
4012.00,0.9467
4011.00,0.9581
4010.00,0.9695
4009.00,0.9810
4008.00,0.9925
4007.00,1.0042
4006.00,1.0158
4005.00,1.0275
4004.00,1.0392
4003.00,1.0509
4002.00,1.0626
4001.00,1.0745
4000.00,1.0864
3999.00,1.0982
3998.00,1.1099
3997.00,1.1217
3996.00,1.1334
3995.00,1.1451
3994.00,1.1568
3993.00,1.1685
3992.00,1.1801
3991.00,1.1916
3990.00,1.2030
3989.00,1.2143
3988.00,1.2254
3987.00,1.2363
3986.00,1.2472
3985.00,1.2580
3984.00,1.2689
3983.00,1.2798
3982.00,1.2905
3981.00,1.3010
3980.00,1.3112
3979.00,1.3213
3978.00,1.3312
3977.00,1.3410
3976.00,1.3507
3975.00,1.3604
3974.00,1.3699
3973.00,1.3792
3972.00,1.3883
3971.00,1.3973
3970.00,1.4061
3969.00,1.4148
3968.00,1.4236
3967.00,1.4323
3966.00,1.4410
3965.00,1.4496
3964.00,1.4581
3963.00,1.4663
3962.00,1.4742
3961.00,1.4819
3960.00,1.4895
3959.00,1.4970
3958.00,1.5044
3957.00,1.5120
3956.00,1.5195
3955.00,1.5269
3954.00,1.5341
3953.00,1.5410
3952.00,1.5476
3951.00,1.5542
3950.00,1.5607
3949.00,1.5670
3948.00,1.5729
3947.00,1.5787
3946.00,1.5843
3945.00,1.5900
3944.00,1.5958
3943.00,1.6017
3942.00,1.6076
3941.00,1.6133
3940.00,1.6189
3939.00,1.6245
3938.00,1.6300
3937.00,1.6355
3936.00,1.6409
3935.00,1.6460
3934.00,1.6509
3933.00,1.6556
3932.00,1.6603
3931.00,1.6649
3930.00,1.6696
3929.00,1.6741
3928.00,1.6784
3927.00,1.6825
3926.00,1.6866
3925.00,1.6909
3924.00,1.6952
3923.00,1.6993
3922.00,1.7033
3921.00,1.7072
3920.00,1.7109
3919.00,1.7146
3918.00,1.7182
3917.00,1.7218
3916.00,1.7256
3915.00,1.7293
3914.00,1.7329
3913.00,1.7362
3912.00,1.7394
3911.00,1.7426
3910.00,1.7458
3909.00,1.7490
3908.00,1.7519
3907.00,1.7544
3906.00,1.7565
3905.00,1.7584
3904.00,1.7604
3903.00,1.7626
3902.00,1.7650
3901.00,1.7676
3900.00,1.7702
3899.00,1.7727
3898.00,1.7752
3897.00,1.7775
3896.00,1.7795
3895.00,1.7812
3894.00,1.7829
3893.00,1.7845
3892.00,1.7863
3891.00,1.7880
3890.00,1.7898
3889.00,1.7913
3888.00,1.7924
3887.00,1.7933
3886.00,1.7943
3885.00,1.7955
3884.00,1.7967
3883.00,1.7979
3882.00,1.7992
3881.00,1.8005
3880.00,1.8017
3879.00,1.8027
3878.00,1.8034
3877.00,1.8041
3876.00,1.8049
3875.00,1.8059
3874.00,1.8068
3873.00,1.8072
3872.00,1.8070
3871.00,1.8064
3870.00,1.8059
3869.00,1.8057
3868.00,1.8057
3867.00,1.8059
3866.00,1.8060
3865.00,1.8061
3864.00,1.8059
3863.00,1.8056
3862.00,1.8055
3861.00,1.8054
3860.00,1.8053
3859.00,1.8047
3858.00,1.8034
3857.00,1.8013
3856.00,1.7987
3855.00,1.7965
3854.00,1.7950
3853.00,1.7940
3852.00,1.7930
3851.00,1.7923
3850.00,1.7920
3849.00,1.7918
3848.00,1.7918
3847.00,1.7916
3846.00,1.7911
3845.00,1.7901
3844.00,1.7885
3843.00,1.7864
3842.00,1.7839
3841.00,1.7811
3840.00,1.7781
3839.00,1.7750
3838.00,1.7721
3837.00,1.7695
3836.00,1.7671
3835.00,1.7650
3834.00,1.7630
3833.00,1.7609
3832.00,1.7587
3831.00,1.7565
3830.00,1.7543
3829.00,1.7521
3828.00,1.7499
3827.00,1.7473
3826.00,1.7441
3825.00,1.7401
3824.00,1.7357
3823.00,1.7314
3822.00,1.7278
3821.00,1.7244
3820.00,1.7207
3819.00,1.7165
3818.00,1.7121
3817.00,1.7077
3816.00,1.7036
3815.00,1.7000
3814.00,1.6966
3813.00,1.6931
3812.00,1.6892
3811.00,1.6849
3810.00,1.6802
3809.00,1.6753
3808.00,1.6702
3807.00,1.6651
3806.00,1.6600
3805.00,1.6546
3804.00,1.6490
3803.00,1.6435
3802.00,1.6382
3801.00,1.6326
3800.00,1.6268
3799.00,1.6208
3798.00,1.6149
3797.00,1.6089
3796.00,1.6031
3795.00,1.5975
3794.00,1.5918
3793.00,1.5859
3792.00,1.5796
3791.00,1.5732
3790.00,1.5668
3789.00,1.5602
3788.00,1.5533
3787.00,1.5462
3786.00,1.5389
3785.00,1.5313
3784.00,1.5233
3783.00,1.5151
3782.00,1.5068
3781.00,1.4987
3780.00,1.4904
3779.00,1.4821
3778.00,1.4738
3777.00,1.4653
3776.00,1.4567
3775.00,1.4479
3774.00,1.4390
3773.00,1.4298
3772.00,1.4204
3771.00,1.4108
3770.00,1.4009
3769.00,1.3907
3768.00,1.3804
3767.00,1.3701
3766.00,1.3597
3765.00,1.3492
3764.00,1.3386
3763.00,1.3279
3762.00,1.3172
3761.00,1.3062
3760.00,1.2949
3759.00,1.2832
3758.00,1.2711
3757.00,1.2588
3756.00,1.2462
3755.00,1.2335
3754.00,1.2208
3753.00,1.2081
3752.00,1.1952
3751.00,1.1820
3750.00,1.1685
3749.00,1.1551
3748.00,1.1422
3747.00,1.1300
3746.00,1.1182
3745.00,1.1068
3744.00,1.0957
3743.00,1.0849
3742.00,1.0747
3741.00,1.0648
3740.00,1.0548
3739.00,1.0447
3738.00,1.0345
3737.00,1.0238
3736.00,1.0122
3735.00,0.9993
3734.00,0.9854
3733.00,0.9712
3732.00,0.9568
3731.00,0.9425
3730.00,0.9283
3729.00,0.9140
3728.00,0.8995
3727.00,0.8848
3726.00,0.8700
3725.00,0.8556
3724.00,0.8426
3723.00,0.8314
3722.00,0.8217
3721.00,0.8128
3720.00,0.8045
3719.00,0.7976
3718.00,0.7927
3717.00,0.7898
3716.00,0.7881
3715.00,0.7868
3714.00,0.7860
3713.00,0.7856
3712.00,0.7856
3711.00,0.7855
3710.00,0.7852
3709.00,0.7852
3708.00,0.7859
3707.00,0.7876
3706.00,0.7899
3705.00,0.7930
3704.00,0.7967
3703.00,0.8012
3702.00,0.8065
3701.00,0.8124
3700.00,0.8187
3699.00,0.8253
3698.00,0.8326
3697.00,0.8406
3696.00,0.8493
3695.00,0.8584
3694.00,0.8677
3693.00,0.8773
3692.00,0.8873
3691.00,0.8980
3690.00,0.9094
3689.00,0.9219
3688.00,0.9354
3687.00,0.9496
3686.00,0.9636
3685.00,0.9771
3684.00,0.9906
3683.00,1.0043
3682.00,1.0183
3681.00,1.0323
3680.00,1.0460
3679.00,1.0591
3678.00,1.0717
3677.00,1.0850
3676.00,1.0998
3675.00,1.1159
3674.00,1.1318
3673.00,1.1465
3672.00,1.1602
3671.00,1.1745
3670.00,1.1899
3669.00,1.2059
3668.00,1.2216
3667.00,1.2365
3666.00,1.2506
3665.00,1.2643
3664.00,1.2779
3663.00,1.2913
3662.00,1.3046
3661.00,1.3175
3660.00,1.3299
3659.00,1.3420
3658.00,1.3539
3657.00,1.3661
3656.00,1.3787
3655.00,1.3912
3654.00,1.4027
3653.00,1.4132
3652.00,1.4236
3651.00,1.4345
3650.00,1.4464
3649.00,1.4586
3648.00,1.4709
3647.00,1.4832
3646.00,1.4956
3645.00,1.5078
3644.00,1.5199
3643.00,1.5318
3642.00,1.5435
3641.00,1.5552
3640.00,1.5667
3639.00,1.5779
3638.00,1.5889
3637.00,1.5996
3636.00,1.6100
3635.00,1.6202
3634.00,1.6299
3633.00,1.6385
3632.00,1.6457
3631.00,1.6522
3630.00,1.6587
3629.00,1.6660
3628.00,1.6735
3627.00,1.6807
3626.00,1.6869
3625.00,1.6922
3624.00,1.6967
3623.00,1.7009
3622.00,1.7057
3621.00,1.7114
3620.00,1.7180
3619.00,1.7247
3618.00,1.7314
3617.00,1.7381
3616.00,1.7455
3615.00,1.7534
3614.00,1.7614
3613.00,1.7691
3612.00,1.7764
3611.00,1.7835
3610.00,1.7902
3609.00,1.7969
3608.00,1.8033
3607.00,1.8094
3606.00,1.8148
3605.00,1.8198
3604.00,1.8247
3603.00,1.8292
3602.00,1.8333
3601.00,1.8370
3600.00,1.8405
3599.00,1.8437
3598.00,1.8469
3597.00,1.8502
3596.00,1.8538
3595.00,1.8576
3594.00,1.8611
3593.00,1.8644
3592.00,1.8674
3591.00,1.8701
3590.00,1.8726
3589.00,1.8754
3588.00,1.8785
3587.00,1.8818
3586.00,1.8849
3585.00,1.8880
3584.00,1.8912
3583.00,1.8946
3582.00,1.8979
3581.00,1.9014
3580.00,1.9050
3579.00,1.9084
3578.00,1.9114
3577.00,1.9141
3576.00,1.9168
3575.00,1.9196
3574.00,1.9223
3573.00,1.9246
3572.00,1.9268
3571.00,1.9287
3570.00,1.9304
3569.00,1.9323
3568.00,1.9344
3567.00,1.9365
3566.00,1.9385
3565.00,1.9405
3564.00,1.9425
3563.00,1.9443
3562.00,1.9459
3561.00,1.9474
3560.00,1.9489
3559.00,1.9502
3558.00,1.9513
3557.00,1.9522
3556.00,1.9531
3555.00,1.9541
3554.00,1.9554
3553.00,1.9570
3552.00,1.9585
3551.00,1.9595
3550.00,1.9599
3549.00,1.9601
3548.00,1.9608
3547.00,1.9620
3546.00,1.9633
3545.00,1.9642
3544.00,1.9647
3543.00,1.9646
3542.00,1.9644
3541.00,1.9643
3540.00,1.9647
3539.00,1.9653
3538.00,1.9659
3537.00,1.9664
3536.00,1.9669
3535.00,1.9672
3534.00,1.9670
3533.00,1.9668
3532.00,1.9667
3531.00,1.9665
3530.00,1.9661
3529.00,1.9654
3528.00,1.9648
3527.00,1.9641
3526.00,1.9634
3525.00,1.9628
3524.00,1.9623
3523.00,1.9617
3522.00,1.9608
3521.00,1.9597
3520.00,1.9586
3519.00,1.9578
3518.00,1.9572
3517.00,1.9567
3516.00,1.9562
3515.00,1.9556
3514.00,1.9546
3513.00,1.9533
3512.00,1.9516
3511.00,1.9497
3510.00,1.9477
3509.00,1.9459
3508.00,1.9445
3507.00,1.9431
3506.00,1.9416
3505.00,1.9399
3504.00,1.9382
3503.00,1.9364
3502.00,1.9344
3501.00,1.9321
3500.00,1.9296
3499.00,1.9270
3498.00,1.9242
3497.00,1.9215
3496.00,1.9188
3495.00,1.9160
3494.00,1.9128
3493.00,1.9093
3492.00,1.9058
3491.00,1.9022
3490.00,1.8985
3489.00,1.8950
3488.00,1.8915
3487.00,1.8879
3486.00,1.8840
3485.00,1.8798
3484.00,1.8756
3483.00,1.8715
3482.00,1.8674
3481.00,1.8633
3480.00,1.8592
3479.00,1.8550
3478.00,1.8506
3477.00,1.8459
3476.00,1.8412
3475.00,1.8363
3474.00,1.8312
3473.00,1.8260
3472.00,1.8207
3471.00,1.8152
3470.00,1.8095
3469.00,1.8036
3468.00,1.7976
3467.00,1.7914
3466.00,1.7852
3465.00,1.7789
3464.00,1.7727
3463.00,1.7666
3462.00,1.7602
3461.00,1.7536
3460.00,1.7470
3459.00,1.7402
3458.00,1.7332
3457.00,1.7259
3456.00,1.7185
3455.00,1.7109
3454.00,1.7031
3453.00,1.6953
3452.00,1.6873
3451.00,1.6794
3450.00,1.6716
3449.00,1.6637
3448.00,1.6555
3447.00,1.6470
3446.00,1.6380
3445.00,1.6288
3444.00,1.6196
3443.00,1.6104
3442.00,1.6011
3441.00,1.5915
3440.00,1.5818
3439.00,1.5719
3438.00,1.5619
3437.00,1.5519
3436.00,1.5418
3435.00,1.5315
3434.00,1.5212
3433.00,1.5108
3432.00,1.5004
3431.00,1.4897
3430.00,1.4788
3429.00,1.4678
3428.00,1.4569
3427.00,1.4460
3426.00,1.4353
3425.00,1.4246
3424.00,1.4141
3423.00,1.4036
3422.00,1.3931
3421.00,1.3828
3420.00,1.3727
3419.00,1.3629
3418.00,1.3534
3417.00,1.3443
3416.00,1.3355
3415.00,1.3271
3414.00,1.3190
3413.00,1.3111
3412.00,1.3035
3411.00,1.2960
3410.00,1.2885
3409.00,1.2810
3408.00,1.2734
3407.00,1.2657
3406.00,1.2577
3405.00,1.2491
3404.00,1.2400
3403.00,1.2301
3402.00,1.2194
3401.00,1.2081
3400.00,1.1961
3399.00,1.1835
3398.00,1.1703
3397.00,1.1565
3396.00,1.1423
3395.00,1.1277
3394.00,1.1130
3393.00,1.0982
3392.00,1.0836
3391.00,1.0693
3390.00,1.0552
3389.00,1.0417
3388.00,1.0287
3387.00,1.0163
3386.00,1.0044
3385.00,0.9932
3384.00,0.9827
3383.00,0.9730
3382.00,0.9641
3381.00,0.9561
3380.00,0.9489
3379.00,0.9427
3378.00,0.9374
3377.00,0.9331
3376.00,0.9298
3375.00,0.9276
3374.00,0.9263
3373.00,0.9261
3372.00,0.9268
3371.00,0.9284
3370.00,0.9309
3369.00,0.9343
3368.00,0.9386
3367.00,0.9438
3366.00,0.9497
3365.00,0.9564
3364.00,0.9637
3363.00,0.9717
3362.00,0.9803
3361.00,0.9894
3360.00,0.9991
3359.00,1.0094
3358.00,1.0202
3357.00,1.0314
3356.00,1.0432
3355.00,1.0553
3354.00,1.0677
3353.00,1.0804
3352.00,1.0934
3351.00,1.1066
3350.00,1.1201
3349.00,1.1338
3348.00,1.1477
3347.00,1.1618
3346.00,1.1760
3345.00,1.1902
3344.00,1.2045
3343.00,1.2190
3342.00,1.2334
3341.00,1.2479
3340.00,1.2624
3339.00,1.2768
3338.00,1.2912
3337.00,1.3055
3336.00,1.3197
3335.00,1.3339
3334.00,1.3481
3333.00,1.3622
3332.00,1.3763
3331.00,1.3903
3330.00,1.4040
3329.00,1.4174
3328.00,1.4306
3327.00,1.4438
3326.00,1.4568
3325.00,1.4697
3324.00,1.4826
3323.00,1.4954
3322.00,1.5081
3321.00,1.5206
3320.00,1.5327
3319.00,1.5446
3318.00,1.5562
3317.00,1.5677
3316.00,1.5791
3315.00,1.5905
3314.00,1.6016
3313.00,1.6126
3312.00,1.6235
3311.00,1.6342
3310.00,1.6447
3309.00,1.6552
3308.00,1.6654
3307.00,1.6755
3306.00,1.6854
3305.00,1.6952
3304.00,1.7047
3303.00,1.7138
3302.00,1.7226
3301.00,1.7313
3300.00,1.7400
3299.00,1.7486
3298.00,1.7572
3297.00,1.7657
3296.00,1.7742
3295.00,1.7825
3294.00,1.7907
3293.00,1.7987
3292.00,1.8065
3291.00,1.8138
3290.00,1.8207
3289.00,1.8276
3288.00,1.8346
3287.00,1.8417
3286.00,1.8487
3285.00,1.8557
3284.00,1.8626
3283.00,1.8693
3282.00,1.8757
3281.00,1.8821
3280.00,1.8887
3279.00,1.8954
3278.00,1.9020
3277.00,1.9085
3276.00,1.9147
3275.00,1.9208
3274.00,1.9267
3273.00,1.9327
3272.00,1.9391
3271.00,1.9455
3270.00,1.9516
3269.00,1.9571
3268.00,1.9619
3267.00,1.9663
3266.00,1.9705
3265.00,1.9746
3264.00,1.9789
3263.00,1.9832
3262.00,1.9874
3261.00,1.9918
3260.00,1.9963
3259.00,2.0010
3258.00,2.0058
3257.00,2.0106
3256.00,2.0152
3255.00,2.0192
3254.00,2.0228
3253.00,2.0263
3252.00,2.0300
3251.00,2.0338
3250.00,2.0375
3249.00,2.0414
3248.00,2.0452
3247.00,2.0487
3246.00,2.0518
3245.00,2.0547
3244.00,2.0578
3243.00,2.0609
3242.00,2.0640
3241.00,2.0669
3240.00,2.0697
3239.00,2.0726
3238.00,2.0755
3237.00,2.0784
3236.00,2.0811
3235.00,2.0836
3234.00,2.0860
3233.00,2.0883
3232.00,2.0904
3231.00,2.0925
3230.00,2.0947
3229.00,2.0972
3228.00,2.0996
3227.00,2.1014
3226.00,2.1024
3225.00,2.1031
3224.00,2.1037
3223.00,2.1045
3222.00,2.1054
3221.00,2.1069
3220.00,2.1088
3219.00,2.1109
3218.00,2.1125
3217.00,2.1133
3216.00,2.1136
3215.00,2.1140
3214.00,2.1145
3213.00,2.1153
3212.00,2.1160
3211.00,2.1165
3210.00,2.1171
3209.00,2.1177
3208.00,2.1184
3207.00,2.1190
3206.00,2.1194
3205.00,2.1195
3204.00,2.1193
3203.00,2.1187
3202.00,2.1179
3201.00,2.1173
3200.00,2.1172
3199.00,2.1173
3198.00,2.1173
3197.00,2.1168
3196.00,2.1159
3195.00,2.1148
3194.00,2.1135
3193.00,2.1123
3192.00,2.1110
3191.00,2.1097
3190.00,2.1082
3189.00,2.1069
3188.00,2.1059
3187.00,2.1050
3186.00,2.1040
3185.00,2.1029
3184.00,2.1016
3183.00,2.0997
3182.00,2.0974
3181.00,2.0950
3180.00,2.0929
3179.00,2.0912
3178.00,2.0898
3177.00,2.0883
3176.00,2.0862
3175.00,2.0836
3174.00,2.0804
3173.00,2.0772
3172.00,2.0741
3171.00,2.0711
3170.00,2.0681
3169.00,2.0650
3168.00,2.0620
3167.00,2.0590
3166.00,2.0559
3165.00,2.0529
3164.00,2.0498
3163.00,2.0465
3162.00,2.0428
3161.00,2.0386
3160.00,2.0341
3159.00,2.0295
3158.00,2.0250
3157.00,2.0209
3156.00,2.0169
3155.00,2.0129
3154.00,2.0084
3153.00,2.0034
3152.00,1.9981
3151.00,1.9928
3150.00,1.9876
3149.00,1.9826
3148.00,1.9776
3147.00,1.9726
3146.00,1.9672
3145.00,1.9616
3144.00,1.9556
3143.00,1.9493
3142.00,1.9426
3141.00,1.9359
3140.00,1.9294
3139.00,1.9229
3138.00,1.9165
3137.00,1.9098
3136.00,1.9029
3135.00,1.8957
3134.00,1.8884
3133.00,1.8810
3132.00,1.8736
3131.00,1.8660
3130.00,1.8581
3129.00,1.8499
3128.00,1.8415
3127.00,1.8329
3126.00,1.8243
3125.00,1.8155
3124.00,1.8065
3123.00,1.7973
3122.00,1.7878
3121.00,1.7783
3120.00,1.7686
3119.00,1.7586
3118.00,1.7483
3117.00,1.7376
3116.00,1.7268
3115.00,1.7159
3114.00,1.7048
3113.00,1.6935
3112.00,1.6819
3111.00,1.6700
3110.00,1.6577
3109.00,1.6452
3108.00,1.6324
3107.00,1.6194
3106.00,1.6062
3105.00,1.5928
3104.00,1.5791
3103.00,1.5651
3102.00,1.5507
3101.00,1.5358
3100.00,1.5207
3099.00,1.5054
3098.00,1.4897
3097.00,1.4737
3096.00,1.4575
3095.00,1.4409
3094.00,1.4240
3093.00,1.4068
3092.00,1.3894
3091.00,1.3718
3090.00,1.3539
3089.00,1.3358
3088.00,1.3177
3087.00,1.2994
3086.00,1.2810
3085.00,1.2624
3084.00,1.2438
3083.00,1.2253
3082.00,1.2067
3081.00,1.1883
3080.00,1.1701
3079.00,1.1521
3078.00,1.1346
3077.00,1.1175
3076.00,1.1010
3075.00,1.0853
3074.00,1.0703
3073.00,1.0563
3072.00,1.0432
3071.00,1.0311
3070.00,1.0202
3069.00,1.0105
3068.00,1.0020
3067.00,0.9948
3066.00,0.9890
3065.00,0.9846
3064.00,0.9815
3063.00,0.9799
3062.00,0.9796
3061.00,0.9808
3060.00,0.9834
3059.00,0.9873
3058.00,0.9926
3057.00,0.9992
3056.00,1.0071
3055.00,1.0161
3054.00,1.0261
3053.00,1.0372
3052.00,1.0492
3051.00,1.0621
3050.00,1.0758
3049.00,1.0904
3048.00,1.1058
3047.00,1.1221
3046.00,1.1391
3045.00,1.1570
3044.00,1.1758
3043.00,1.1953
3042.00,1.2155
3041.00,1.2364
3040.00,1.2577
3039.00,1.2796
3038.00,1.3018
3037.00,1.3244
3036.00,1.3470
3035.00,1.3696
3034.00,1.3921
3033.00,1.4144
3032.00,1.4366
3031.00,1.4586
3030.00,1.4803
3029.00,1.5017
3028.00,1.5227
3027.00,1.5436
3026.00,1.5641
3025.00,1.5844
3024.00,1.6045
3023.00,1.6243
3022.00,1.6437
3021.00,1.6627
3020.00,1.6816
3019.00,1.7004
3018.00,1.7189
3017.00,1.7369
3016.00,1.7546
3015.00,1.7720
3014.00,1.7896
3013.00,1.8072
3012.00,1.8248
3011.00,1.8423
3010.00,1.8594
3009.00,1.8762
3008.00,1.8928
3007.00,1.9093
3006.00,1.9254
3005.00,1.9411
3004.00,1.9567
3003.00,1.9721
3002.00,1.9874
3001.00,2.0025
3000.00,2.0174
2999.00,2.0322
2998.00,2.0468
2997.00,2.0613
2996.00,2.0759
2995.00,2.0905
2994.00,2.1045
2993.00,2.1177
2992.00,2.1302
2991.00,2.1428
2990.00,2.1559
2989.00,2.1693
2988.00,2.1824
2987.00,2.1952
2986.00,2.2076
2985.00,2.2203
2984.00,2.2331
2983.00,2.2457
2982.00,2.2581
2981.00,2.2704
2980.00,2.2829
2979.00,2.2955
2978.00,2.3078
2977.00,2.3198
2976.00,2.3323
2975.00,2.3458
2974.00,2.3607
2973.00,2.3767
2972.00,2.3938
2971.00,2.4121
2970.00,2.4317
2969.00,2.4529
2968.00,2.4758
2967.00,2.5008
2966.00,2.5278
2965.00,2.5567
2964.00,2.5871
2963.00,2.6189
2962.00,2.6519
2961.00,2.6853
2960.00,2.7184
2959.00,2.7509
2958.00,2.7831
2957.00,2.8143
2956.00,2.8427
2955.00,2.8666
2954.00,2.8872
2953.00,2.9077
2952.00,2.9310
2951.00,2.9575
2950.00,2.9858
2949.00,3.0154
2948.00,3.0465
2947.00,3.0798
2946.00,3.1156
2945.00,3.1520
2944.00,3.1851
2943.00,3.2114
2942.00,3.2311
2941.00,3.2484
2940.00,3.2663
2939.00,3.2821
2938.00,3.2905
2937.00,3.2882
2936.00,3.2770
2935.00,3.2599
2934.00,3.2377
2933.00,3.2088
2932.00,3.1720
2931.00,3.1284
2930.00,3.0798
2929.00,3.0281
2928.00,2.9755
2927.00,2.9241
2926.00,2.8744
2925.00,2.8254
2924.00,2.7759
2923.00,2.7258
2922.00,2.6762
2921.00,2.6278
2920.00,2.5805
2919.00,2.5349
2918.00,2.4922
2917.00,2.4534
2916.00,2.4190
2915.00,2.3892
2914.00,2.3642
2913.00,2.3441
2912.00,2.3286
2911.00,2.3169
2910.00,2.3086
2909.00,2.3030
2908.00,2.2995
2907.00,2.2974
2906.00,2.2962
2905.00,2.2953
2904.00,2.2945
2903.00,2.2933
2902.00,2.2923
2901.00,2.2919
2900.00,2.2925
2899.00,2.2940
2898.00,2.2962
2897.00,2.2991
2896.00,2.3028
2895.00,2.3072
2894.00,2.3120
2893.00,2.3173
2892.00,2.3228
2891.00,2.3285
2890.00,2.3345
2889.00,2.3410
2888.00,2.3481
2887.00,2.3558
2886.00,2.3642
2885.00,2.3734
2884.00,2.3831
2883.00,2.3931
2882.00,2.4030
2881.00,2.4132
2880.00,2.4240
2879.00,2.4362
2878.00,2.4495
2877.00,2.4634
2876.00,2.4773
2875.00,2.4917
2874.00,2.5079
2873.00,2.5268
2872.00,2.5481
2871.00,2.5706
2870.00,2.5940
2869.00,2.6183
2868.00,2.6438
2867.00,2.6688
2866.00,2.6910
2865.00,2.7082
2864.00,2.7185
2863.00,2.7205
2862.00,2.7131
2861.00,2.6965
2860.00,2.6714
2859.00,2.6400
2858.00,2.6046
2857.00,2.5672
2856.00,2.5287
2855.00,2.4898
2854.00,2.4516
2853.00,2.4158
2852.00,2.3838
2851.00,2.3566
2850.00,2.3351
2849.00,2.3197
2848.00,2.3096
2847.00,2.3034
2846.00,2.2998
2845.00,2.2980
2844.00,2.2978
2843.00,2.2991
2842.00,2.3019
2841.00,2.3060
2840.00,2.3111
2839.00,2.3166
2838.00,2.3222
2837.00,2.3279
2836.00,2.3335
2835.00,2.3387
2834.00,2.3429
2833.00,2.3462
2832.00,2.3489
2831.00,2.3513
2830.00,2.3538
2829.00,2.3562
2828.00,2.3583
2827.00,2.3600
2826.00,2.3617
2825.00,2.3634
2824.00,2.3646
2823.00,2.3651
2822.00,2.3649
2821.00,2.3645
2820.00,2.3641
2819.00,2.3637
2818.00,2.3635
2817.00,2.3636
2816.00,2.3639
2815.00,2.3636
2814.00,2.3626
2813.00,2.3611
2812.00,2.3595
2811.00,2.3582
2810.00,2.3573
2809.00,2.3568
2808.00,2.3563
2807.00,2.3553
2806.00,2.3536
2805.00,2.3519
2804.00,2.3505
2803.00,2.3496
2802.00,2.3486
2801.00,2.3473
2800.00,2.3458
2799.00,2.3441
2798.00,2.3423
2797.00,2.3404
2796.00,2.3381
2795.00,2.3353
2794.00,2.3322
2793.00,2.3292
2792.00,2.3265
2791.00,2.3237
2790.00,2.3209
2789.00,2.3179
2788.00,2.3145
2787.00,2.3107
2786.00,2.3064
2785.00,2.3019
2784.00,2.2976
2783.00,2.2934
2782.00,2.2891
2781.00,2.2847
2780.00,2.2799
2779.00,2.2750
2778.00,2.2701
2777.00,2.2655
2776.00,2.2611
2775.00,2.2564
2774.00,2.2510
2773.00,2.2450
2772.00,2.2387
2771.00,2.2327
2770.00,2.2271
2769.00,2.2215
2768.00,2.2156
2767.00,2.2094
2766.00,2.2030
2765.00,2.1965
2764.00,2.1898
2763.00,2.1830
2762.00,2.1764
2761.00,2.1698
2760.00,2.1630
2759.00,2.1561
2758.00,2.1490
2757.00,2.1419
2756.00,2.1345
2755.00,2.1263
2754.00,2.1176
2753.00,2.1087
2752.00,2.0996
2751.00,2.0903
2750.00,2.0806
2749.00,2.0708
2748.00,2.0611
2747.00,2.0514
2746.00,2.0415
2745.00,2.0312
2744.00,2.0207
2743.00,2.0099
2742.00,1.9989
2741.00,1.9879
2740.00,1.9771
2739.00,1.9663
2738.00,1.9550
2737.00,1.9429
2736.00,1.9301
2735.00,1.9168
2734.00,1.9035
2733.00,1.8905
2732.00,1.8778
2731.00,1.8650
2730.00,1.8517
2729.00,1.8377
2728.00,1.8232
2727.00,1.8083
2726.00,1.7930
2725.00,1.7776
2724.00,1.7619
2723.00,1.7457
2722.00,1.7291
2721.00,1.7121
2720.00,1.6947
2719.00,1.6769
2718.00,1.6589
2717.00,1.6406
2716.00,1.6222
2715.00,1.6035
2714.00,1.5844
2713.00,1.5646
2712.00,1.5443
2711.00,1.5238
2710.00,1.5030
2709.00,1.4818
2708.00,1.4604
2707.00,1.4386
2706.00,1.4164
2705.00,1.3941
2704.00,1.3716
2703.00,1.3492
2702.00,1.3268
2701.00,1.3045
2700.00,1.2823
2699.00,1.2604
2698.00,1.2390
2697.00,1.2181
2696.00,1.1980
2695.00,1.1788
2694.00,1.1605
2693.00,1.1433
2692.00,1.1274
2691.00,1.1130
2690.00,1.1003
2689.00,1.0895
2688.00,1.0809
2687.00,1.0748
2686.00,1.0713
2685.00,1.0706
2684.00,1.0727
2683.00,1.0775
2682.00,1.0848
2681.00,1.0943
2680.00,1.1054
2679.00,1.1177
2678.00,1.1304
2677.00,1.1429
2676.00,1.1550
2675.00,1.1663
2674.00,1.1769
2673.00,1.1870
2672.00,1.1969
2671.00,1.2067
2670.00,1.2163
2669.00,1.2253
2668.00,1.2336
2667.00,1.2411
2666.00,1.2483
2665.00,1.2559
2664.00,1.2644
2663.00,1.2746
2662.00,1.2866
2661.00,1.3007
2660.00,1.3166
2659.00,1.3341
2658.00,1.3528
2657.00,1.3725
2656.00,1.3928
2655.00,1.4135
2654.00,1.4342
2653.00,1.4549
2652.00,1.4753
2651.00,1.4954
2650.00,1.5151
2649.00,1.5344
2648.00,1.5532
2647.00,1.5716
2646.00,1.5898
2645.00,1.6078
2644.00,1.6256
2643.00,1.6431
2642.00,1.6605
2641.00,1.6778
2640.00,1.6953
2639.00,1.7129
2638.00,1.7305
2637.00,1.7481
2636.00,1.7657
2635.00,1.7832
2634.00,1.8003
2633.00,1.8170
2632.00,1.8334
2631.00,1.8495
2630.00,1.8654
2629.00,1.8811
2628.00,1.8967
2627.00,1.9122
2626.00,1.9274
2625.00,1.9423
2624.00,1.9567
2623.00,1.9706
2622.00,1.9842
2621.00,1.9976
2620.00,2.0107
2619.00,2.0234
2618.00,2.0358
2617.00,2.0479
2616.00,2.0596
2615.00,2.0709
2614.00,2.0816
2613.00,2.0918
2612.00,2.1016
2611.00,2.1111
2610.00,2.1208
2609.00,2.1306
2608.00,2.1403
2607.00,2.1497
2606.00,2.1588
2605.00,2.1679
2604.00,2.1772
2603.00,2.1864
2602.00,2.1952
2601.00,2.2036
2600.00,2.2118
2599.00,2.2201
2598.00,2.2284
2597.00,2.2367
2596.00,2.2451
2595.00,2.2535
2594.00,2.2617
2593.00,2.2697
2592.00,2.2774
2591.00,2.2849
2590.00,2.2924
2589.00,2.2998
2588.00,2.3069
2587.00,2.3136
2586.00,2.3200
2585.00,2.3265
2584.00,2.3329
2583.00,2.3392
2582.00,2.3454
2581.00,2.3510
2580.00,2.3561
2579.00,2.3609
2578.00,2.3660
2577.00,2.3717
2576.00,2.3778
2575.00,2.3836
2574.00,2.3890
2573.00,2.3944
2572.00,2.3998
2571.00,2.4054
2570.00,2.4109
2569.00,2.4163
2568.00,2.4215
2567.00,2.4265
2566.00,2.4315
2565.00,2.4362
2564.00,2.4404
2563.00,2.4437
2562.00,2.4467
2561.00,2.4499
2560.00,2.4538
2559.00,2.4580
2558.00,2.4620
2557.00,2.4658
2556.00,2.4691
2555.00,2.4720
2554.00,2.4751
2553.00,2.4791
2552.00,2.4835
2551.00,2.4874
2550.00,2.4904
2549.00,2.4930
2548.00,2.4960
2547.00,2.4994
2546.00,2.5026
2545.00,2.5054
2544.00,2.5076
2543.00,2.5098
2542.00,2.5122
2541.00,2.5147
2540.00,2.5170
2539.00,2.5193
2538.00,2.5220
2537.00,2.5248
2536.00,2.5269
2535.00,2.5281
2534.00,2.5289
2533.00,2.5303
2532.00,2.5326
2531.00,2.5351
2530.00,2.5369
2529.00,2.5380
2528.00,2.5386
2527.00,2.5389
2526.00,2.5388
2525.00,2.5385
2524.00,2.5383
2523.00,2.5388
2522.00,2.5401
2521.00,2.5420
2520.00,2.5439
2519.00,2.5455
2518.00,2.5465
2517.00,2.5470
2516.00,2.5470
2515.00,2.5463
2514.00,2.5450
2513.00,2.5440
2512.00,2.5441
2511.00,2.5453
2510.00,2.5468
2509.00,2.5477
2508.00,2.5477
2507.00,2.5470
2506.00,2.5464
2505.00,2.5459
2504.00,2.5454
2503.00,2.5447
2502.00,2.5439
2501.00,2.5427
2500.00,2.5412
2499.00,2.5395
2498.00,2.5386
2497.00,2.5386
2496.00,2.5387
2495.00,2.5379
2494.00,2.5360
2493.00,2.5339
2492.00,2.5319
2491.00,2.5304
2490.00,2.5293
2489.00,2.5285
2488.00,2.5275
2487.00,2.5257
2486.00,2.5232
2485.00,2.5207
2484.00,2.5185
2483.00,2.5167
2482.00,2.5149
2481.00,2.5131
2480.00,2.5111
2479.00,2.5090
2478.00,2.5068
2477.00,2.5045
2476.00,2.5021
2475.00,2.4991
2474.00,2.4956
2473.00,2.4921
2472.00,2.4887
2471.00,2.4856
2470.00,2.4827
2469.00,2.4798
2468.00,2.4767
2467.00,2.4728
2466.00,2.4685
2465.00,2.4643
2464.00,2.4606
2463.00,2.4575
2462.00,2.4545
2461.00,2.4513
2460.00,2.4472
2459.00,2.4424
2458.00,2.4371
2457.00,2.4318
2456.00,2.4269
2455.00,2.4219
2454.00,2.4170
2453.00,2.4120
2452.00,2.4066
2451.00,2.4009
2450.00,2.3952
2449.00,2.3902
2448.00,2.3860
2447.00,2.3815
2446.00,2.3761
2445.00,2.3698
2444.00,2.3628
2443.00,2.3555
2442.00,2.3478
2441.00,2.3402
2440.00,2.3328
2439.00,2.3258
2438.00,2.3190
2437.00,2.3121
2436.00,2.3051
2435.00,2.2980
2434.00,2.2907
2433.00,2.2832
2432.00,2.2755
2431.00,2.2675
2430.00,2.2590
2429.00,2.2502
2428.00,2.2414
2427.00,2.2325
2426.00,2.2235
2425.00,2.2140
2424.00,2.2040
2423.00,2.1939
2422.00,2.1842
2421.00,2.1750
2420.00,2.1657
2419.00,2.1559
2418.00,2.1454
2417.00,2.1344
2416.00,2.1231
2415.00,2.1114
2414.00,2.0995
2413.00,2.0875
2412.00,2.0755
2411.00,2.0634
2410.00,2.0509
2409.00,2.0378
2408.00,2.0240
2407.00,2.0096
2406.00,1.9950
2405.00,1.9805
2404.00,1.9659
2403.00,1.9508
2402.00,1.9352
2401.00,1.9192
2400.00,1.9031
2399.00,1.8867
2398.00,1.8698
2397.00,1.8523
2396.00,1.8342
2395.00,1.8154
2394.00,1.7959
2393.00,1.7758
2392.00,1.7553
2391.00,1.7342
2390.00,1.7129
2389.00,1.6917
2388.00,1.6715
2387.00,1.6530
2386.00,1.6371
2385.00,1.6246
2384.00,1.6153
2383.00,1.6090
2382.00,1.6044
2381.00,1.6004
2380.00,1.5961
2379.00,1.5907
2378.00,1.5835
2377.00,1.5741
2376.00,1.5632
2375.00,1.5521
2374.00,1.5417
2373.00,1.5321
2372.00,1.5240
2371.00,1.5188
2370.00,1.5156
2369.00,1.5130
2368.00,1.5125
2367.00,1.5136
2366.00,1.5140
2365.00,1.5144
2364.00,1.5136
2363.00,1.5135
2362.00,1.5142
2361.00,1.5129
2360.00,1.5110
2359.00,1.5063
2358.00,1.4984
2357.00,1.4877
2356.00,1.4851
2355.00,1.5019
2354.00,1.5261
2353.00,1.5404
2352.00,1.5370
2351.00,1.5316
2350.00,1.5428
2349.00,1.5679
2348.00,1.5935
2347.00,1.6029
2346.00,1.6002
2345.00,1.5950
2344.00,1.5925
2343.00,1.5939
2342.00,1.5974
2341.00,1.6022
2340.00,1.6090
2339.00,1.6180
2338.00,1.6290
2337.00,1.6402
2336.00,1.6508
2335.00,1.6636
2334.00,1.6755
2333.00,1.6902
2332.00,1.7054
2331.00,1.7211
2330.00,1.7364
2329.00,1.7496
2328.00,1.7660
2327.00,1.7831
2326.00,1.8006
2325.00,1.8140
2324.00,1.8241
2323.00,1.8334
2322.00,1.8435
2321.00,1.8562
2320.00,1.8697
2319.00,1.8848
2318.00,1.9001
2317.00,1.9159
2316.00,1.9311
2315.00,1.9457
2314.00,1.9596
2313.00,1.9730
2312.00,1.9862
2311.00,1.9994
2310.00,2.0135
2309.00,2.0283
2308.00,2.0444
2307.00,2.0613
2306.00,2.0786
2305.00,2.0959
2304.00,2.1127
2303.00,2.1292
2302.00,2.1452
2301.00,2.1610
2300.00,2.1765
2299.00,2.1916
2298.00,2.2061
2297.00,2.2196
2296.00,2.2323
2295.00,2.2443
2294.00,2.2561
2293.00,2.2670
2292.00,2.2772
2291.00,2.2867
2290.00,2.2964
2289.00,2.3069
2288.00,2.3184
2287.00,2.3306
2286.00,2.3431
2285.00,2.3557
2284.00,2.3682
2283.00,2.3805
2282.00,2.3924
2281.00,2.4038
2280.00,2.4144
2279.00,2.4243
2278.00,2.4339
2277.00,2.4434
2276.00,2.4526
2275.00,2.4614
2274.00,2.4696
2273.00,2.4772
2272.00,2.4843
2271.00,2.4907
2270.00,2.4970
2269.00,2.5042
2268.00,2.5123
2267.00,2.5202
2266.00,2.5269
2265.00,2.5322
2264.00,2.5368
2263.00,2.5416
2262.00,2.5470
2261.00,2.5534
2260.00,2.5603
2259.00,2.5670
2258.00,2.5728
2257.00,2.5777
2256.00,2.5825
2255.00,2.5882
2254.00,2.5949
2253.00,2.6019
2252.00,2.6082
2251.00,2.6132
2250.00,2.6174
2249.00,2.6220
2248.00,2.6269
2247.00,2.6315
2246.00,2.6349
2245.00,2.6376
2244.00,2.6408
2243.00,2.6454
2242.00,2.6509
2241.00,2.6567
2240.00,2.6621
2239.00,2.6673
2238.00,2.6721
2237.00,2.6766
2236.00,2.6804
2235.00,2.6834
2234.00,2.6859
2233.00,2.6887
2232.00,2.6924
2231.00,2.6966
2230.00,2.7004
2229.00,2.7033
2228.00,2.7057
2227.00,2.7085
2226.00,2.7119
2225.00,2.7151
2224.00,2.7180
2223.00,2.7211
2222.00,2.7245
2221.00,2.7274
2220.00,2.7290
2219.00,2.7299
2218.00,2.7318
2217.00,2.7355
2216.00,2.7405
2215.00,2.7455
2214.00,2.7497
2213.00,2.7524
2212.00,2.7536
2211.00,2.7535
2210.00,2.7531
2209.00,2.7532
2208.00,2.7543
2207.00,2.7563
2206.00,2.7593
2205.00,2.7627
2204.00,2.7654
2203.00,2.7671
2202.00,2.7682
2201.00,2.7691
2200.00,2.7694
2199.00,2.7685
2198.00,2.7670
2197.00,2.7663
2196.00,2.7674
2195.00,2.7697
2194.00,2.7722
2193.00,2.7742
2192.00,2.7755
2191.00,2.7766
2190.00,2.7778
2189.00,2.7793
2188.00,2.7809
2187.00,2.7822
2186.00,2.7835
2185.00,2.7844
2184.00,2.7843
2183.00,2.7824
2182.00,2.7794
2181.00,2.7768
2180.00,2.7758
2179.00,2.7763
2178.00,2.7783
2177.00,2.7811
2176.00,2.7836
2175.00,2.7846
2174.00,2.7840
2173.00,2.7821
2172.00,2.7793
2171.00,2.7762
2170.00,2.7734
2169.00,2.7716
2168.00,2.7705
2167.00,2.7690
2166.00,2.7670
2165.00,2.7652
2164.00,2.7639
2163.00,2.7626
2162.00,2.7610
2161.00,2.7598
2160.00,2.7595
2159.00,2.7600
2158.00,2.7601
2157.00,2.7595
2156.00,2.7580
2155.00,2.7555
2154.00,2.7518
2153.00,2.7475
2152.00,2.7431
2151.00,2.7391
2150.00,2.7357
2149.00,2.7327
2148.00,2.7297
2147.00,2.7263
2146.00,2.7223
2145.00,2.7184
2144.00,2.7147
2143.00,2.7112
2142.00,2.7084
2141.00,2.7066
2140.00,2.7057
2139.00,2.7042
2138.00,2.7008
2137.00,2.6956
2136.00,2.6899
2135.00,2.6846
2134.00,2.6799
2133.00,2.6756
2132.00,2.6710
2131.00,2.6658
2130.00,2.6602
2129.00,2.6553
2128.00,2.6516
2127.00,2.6482
2126.00,2.6439
2125.00,2.6382
2124.00,2.6321
2123.00,2.6263
2122.00,2.6210
2121.00,2.6157
2120.00,2.6103
2119.00,2.6045
2118.00,2.5982
2117.00,2.5916
2116.00,2.5849
2115.00,2.5782
2114.00,2.5713
2113.00,2.5641
2112.00,2.5565
2111.00,2.5487
2110.00,2.5409
2109.00,2.5332
2108.00,2.5255
2107.00,2.5179
2106.00,2.5104
2105.00,2.5027
2104.00,2.4946
2103.00,2.4855
2102.00,2.4757
2101.00,2.4663
2100.00,2.4578
2099.00,2.4500
2098.00,2.4417
2097.00,2.4325
2096.00,2.4227
2095.00,2.4134
2094.00,2.4047
2093.00,2.3964
2092.00,2.3873
2091.00,2.3769
2090.00,2.3651
2089.00,2.3528
2088.00,2.3404
2087.00,2.3280
2086.00,2.3151
2085.00,2.3018
2084.00,2.2883
2083.00,2.2749
2082.00,2.2613
2081.00,2.2473
2080.00,2.2328
2079.00,2.2177
2078.00,2.2021
2077.00,2.1863
2076.00,2.1705
2075.00,2.1544
2074.00,2.1378
2073.00,2.1208
2072.00,2.1034
2071.00,2.0859
2070.00,2.0681
2069.00,2.0502
2068.00,2.0325
2067.00,2.0150
2066.00,1.9976
2065.00,1.9801
2064.00,1.9622
2063.00,1.9439
2062.00,1.9250
2061.00,1.9057
2060.00,1.8858
2059.00,1.8649
2058.00,1.8428
2057.00,1.8194
2056.00,1.7948
2055.00,1.7693
2054.00,1.7428
2053.00,1.7154
2052.00,1.6872
2051.00,1.6584
2050.00,1.6290
2049.00,1.5996
2048.00,1.5701
2047.00,1.5408
2046.00,1.5118
2045.00,1.4833
2044.00,1.4558
2043.00,1.4295
2042.00,1.4045
2041.00,1.3808
2040.00,1.3589
2039.00,1.3391
2038.00,1.3217
2037.00,1.3072
2036.00,1.2956
2035.00,1.2868
2034.00,1.2809
2033.00,1.2777
2032.00,1.2774
2031.00,1.2799
2030.00,1.2853
2029.00,1.2935
2028.00,1.3045
2027.00,1.3181
2026.00,1.3341
2025.00,1.3521
2024.00,1.3720
2023.00,1.3935
2022.00,1.4162
2021.00,1.4403
2020.00,1.4657
2019.00,1.4921
2018.00,1.5191
2017.00,1.5461
2016.00,1.5731
2015.00,1.6002
2014.00,1.6275
2013.00,1.6553
2012.00,1.6834
2011.00,1.7114
2010.00,1.7393
2009.00,1.7669
2008.00,1.7941
2007.00,1.8207
2006.00,1.8467
2005.00,1.8720
2004.00,1.8970
2003.00,1.9218
2002.00,1.9466
2001.00,1.9712
2000.00,1.9954
1999.00,2.0189
1998.00,2.0418
1997.00,2.0641
1996.00,2.0859
1995.00,2.1075
1994.00,2.1293
1993.00,2.1510
1992.00,2.1720
1991.00,2.1917
1990.00,2.2105
1989.00,2.2290
1988.00,2.2474
1987.00,2.2657
1986.00,2.2836
1985.00,2.3007
1984.00,2.3172
1983.00,2.3331
1982.00,2.3485
1981.00,2.3638
1980.00,2.3790
1979.00,2.3939
1978.00,2.4081
1977.00,2.4213
1976.00,2.4334
1975.00,2.4447
1974.00,2.4564
1973.00,2.4688
1972.00,2.4819
1971.00,2.4952
1970.00,2.5082
1969.00,2.5210
1968.00,2.5334
1967.00,2.5452
1966.00,2.5566
1965.00,2.5677
1964.00,2.5785
1963.00,2.5892
1962.00,2.5998
1961.00,2.6103
1960.00,2.6202
1959.00,2.6295
1958.00,2.6385
1957.00,2.6476
1956.00,2.6570
1955.00,2.6668
1954.00,2.6769
1953.00,2.6869
1952.00,2.6960
1951.00,2.7034
1950.00,2.7100
1949.00,2.7168
1948.00,2.7245
1947.00,2.7326
1946.00,2.7404
1945.00,2.7481
1944.00,2.7565
1943.00,2.7657
1942.00,2.7744
1941.00,2.7813
1940.00,2.7860
1939.00,2.7902
1938.00,2.7958
1937.00,2.8032
1936.00,2.8112
1935.00,2.8183
1934.00,2.8244
1933.00,2.8306
1932.00,2.8372
1931.00,2.8437
1930.00,2.8492
1929.00,2.8537
1928.00,2.8577
1927.00,2.8619
1926.00,2.8666
1925.00,2.8725
1924.00,2.8798
1923.00,2.8877
1922.00,2.8947
1921.00,2.9003
1920.00,2.9059
1919.00,2.9131
1918.00,2.9212
1917.00,2.9275
1916.00,2.9304
1915.00,2.9310
1914.00,2.9320
1913.00,2.9346
1912.00,2.9386
1911.00,2.9428
1910.00,2.9462
1909.00,2.9484
1908.00,2.9499
1907.00,2.9524
1906.00,2.9568
1905.00,2.9626
1904.00,2.9682
1903.00,2.9726
1902.00,2.9759
1901.00,2.9787
1900.00,2.9813
1899.00,2.9839
1898.00,2.9861
1897.00,2.9873
1896.00,2.9872
1895.00,2.9872
1894.00,2.9894
1893.00,2.9943
1892.00,3.0005
1891.00,3.0065
1890.00,3.0112
1889.00,3.0132
1888.00,3.0124
1887.00,3.0107
1886.00,3.0113
1885.00,3.0150
1884.00,3.0196
1883.00,3.0217
1882.00,3.0202
1881.00,3.0171
1880.00,3.0150
1879.00,3.0146
1878.00,3.0149
1877.00,3.0145
1876.00,3.0127
1875.00,3.0101
1874.00,3.0081
1873.00,3.0073
1872.00,3.0088
1871.00,3.0129
1870.00,3.0195
1869.00,3.0261
1868.00,3.0298
1867.00,3.0302
1866.00,3.0288
1865.00,3.0275
1864.00,3.0271
1863.00,3.0275
1862.00,3.0280
1861.00,3.0275
1860.00,3.0253
1859.00,3.0218
1858.00,3.0175
1857.00,3.0129
1856.00,3.0089
1855.00,3.0071
1854.00,3.0077
1853.00,3.0086
1852.00,3.0076
1851.00,3.0057
1850.00,3.0055
1849.00,3.0077
1848.00,3.0095
1847.00,3.0086
1846.00,3.0058
1845.00,3.0038
1844.00,3.0031
1843.00,3.0014
1842.00,2.9965
1841.00,2.9891
1840.00,2.9819
1839.00,2.9770
1838.00,2.9743
1837.00,2.9721
1836.00,2.9692
1835.00,2.9655
1834.00,2.9612
1833.00,2.9561
1832.00,2.9510
1831.00,2.9474
1830.00,2.9448
1829.00,2.9409
1828.00,2.9346
1827.00,2.9273
1826.00,2.9212
1825.00,2.9162
1824.00,2.9108
1823.00,2.9042
1822.00,2.8969
1821.00,2.8894
1820.00,2.8823
1819.00,2.8756
1818.00,2.8689
1817.00,2.8618
1816.00,2.8540
1815.00,2.8462
1814.00,2.8387
1813.00,2.8314
1812.00,2.8246
1811.00,2.8190
1810.00,2.8142
1809.00,2.8091
1808.00,2.8028
1807.00,2.7961
1806.00,2.7893
1805.00,2.7821
1804.00,2.7737
1803.00,2.7638
1802.00,2.7528
1801.00,2.7406
1800.00,2.7276
1799.00,2.7147
1798.00,2.7016
1797.00,2.6866
1796.00,2.6682
1795.00,2.6475
1794.00,2.6271
1793.00,2.6083
1792.00,2.5899
1791.00,2.5695
1790.00,2.5468
1789.00,2.5222
1788.00,2.4968
1787.00,2.4712
1786.00,2.4448
1785.00,2.4163
1784.00,2.3855
1783.00,2.3534
1782.00,2.3208
1781.00,2.2874
1780.00,2.2522
1779.00,2.2155
1778.00,2.1785
1777.00,2.1418
1776.00,2.1058
1775.00,2.0718
1774.00,2.0424
1773.00,2.0205
1772.00,2.0070
1771.00,2.0014
1770.00,2.0026
1769.00,2.0090
1768.00,2.0168
1767.00,2.0212
1766.00,2.0186
1765.00,2.0099
1764.00,1.9993
1763.00,1.9915
1762.00,1.9888
1761.00,1.9922
1760.00,2.0027
1759.00,2.0219
1758.00,2.0513
1757.00,2.0906
1756.00,2.1376
1755.00,2.1887
1754.00,2.2421
1753.00,2.2988
1752.00,2.3589
1751.00,2.4192
1750.00,2.4738
1749.00,2.5209
1748.00,2.5632
1747.00,2.6050
1746.00,2.6498
1745.00,2.6996
1744.00,2.7538
1743.00,2.8088
1742.00,2.8618
1741.00,2.9133
1740.00,2.9644
1739.00,3.0121
1738.00,3.0524
1737.00,3.0871
1736.00,3.1235
1735.00,3.1708
1734.00,3.2310
1733.00,3.2969
1732.00,3.3586
1731.00,3.4122
1730.00,3.4641
1729.00,3.5257
1728.00,3.6007
1727.00,3.6818
1726.00,3.7625
1725.00,3.8513
1724.00,3.9672
1723.00,4.1237
1722.00,4.3172
1721.00,4.5082
1720.00,4.6405
1719.00,4.7829
1718.00,4.9647
1717.00,5.0940
1716.00,5.1845
1715.00,5.0412
1714.00,4.8711
1713.00,4.7870
1712.00,4.7327
1711.00,4.7236
1710.00,4.7646
1709.00,4.8905
1708.00,5.1567
1707.00,5.3445
1706.00,5.0790
1705.00,4.8353
1704.00,5.0225
1703.00,4.8375
1702.00,4.2683
1701.00,3.9681
1700.00,3.7652
1699.00,3.6156
1698.00,3.5047
1697.00,3.4203
1696.00,3.3573
1695.00,3.3090
1694.00,3.2736
1693.00,3.2489
1692.00,3.2331
1691.00,3.2224
1690.00,3.2127
1689.00,3.2009
1688.00,3.1862
1687.00,3.1692
1686.00,3.1517
1685.00,3.1358
1684.00,3.1181
1683.00,3.0964
1682.00,3.0737
1681.00,3.0509
1680.00,3.0263
1679.00,3.0002
1678.00,2.9755
1677.00,2.9555
1676.00,2.9404
1675.00,2.9261
1674.00,2.9082
1673.00,2.8869
1672.00,2.8654
1671.00,2.8455
1670.00,2.8253
1669.00,2.8007
1668.00,2.7708
1667.00,2.7370
1666.00,2.7009
1665.00,2.6631
1664.00,2.6245
1663.00,2.5845
1662.00,2.5417
1661.00,2.4962
1660.00,2.4495
1659.00,2.4027
1658.00,2.3563
1657.00,2.3103
1656.00,2.2649
1655.00,2.2222
1654.00,2.1845
1653.00,2.1477
1652.00,2.1084
1651.00,2.0705
1650.00,2.0363
1649.00,2.0067
1648.00,1.9815
1647.00,1.9577
1646.00,1.9336
1645.00,1.9111
1644.00,1.8925
1643.00,1.8790
1642.00,1.8709
1641.00,1.8681
1640.00,1.8696
1639.00,1.8749
1638.00,1.8847
1637.00,1.9009
1636.00,1.9236
1635.00,1.9480
1634.00,1.9690
1633.00,1.9842
1632.00,1.9949
1631.00,2.0041
1630.00,2.0146
1629.00,2.0284
1628.00,2.0460
1627.00,2.0662
1626.00,2.0884
1625.00,2.1141
1624.00,2.1455
1623.00,2.1818
1622.00,2.2189
1621.00,2.2531
1620.00,2.2838
1619.00,2.3134
1618.00,2.3463
1617.00,2.3845
1616.00,2.4240
1615.00,2.4581
1614.00,2.4843
1613.00,2.5052
1612.00,2.5241
1611.00,2.5415
1610.00,2.5565
1609.00,2.5691
1608.00,2.5810
1607.00,2.5939
1606.00,2.6091
1605.00,2.6272
1604.00,2.6476
1603.00,2.6685
1602.00,2.6886
1601.00,2.7082
1600.00,2.7280
1599.00,2.7471
1598.00,2.7642
1597.00,2.7800
1596.00,2.7963
1595.00,2.8133
1594.00,2.8297
1593.00,2.8449
1592.00,2.8597
1591.00,2.8737
1590.00,2.8857
1589.00,2.8959
1588.00,2.9063
1587.00,2.9182
1586.00,2.9318
1585.00,2.9468
1584.00,2.9634
1583.00,2.9805
1582.00,2.9955
1581.00,3.0054
1580.00,3.0094
1579.00,3.0095
1578.00,3.0105
1577.00,3.0174
1576.00,3.0307
1575.00,3.0456
1574.00,3.0574
1573.00,3.0656
1572.00,3.0730
1571.00,3.0822
1570.00,3.0922
1569.00,3.1001
1568.00,3.1057
1567.00,3.1116
1566.00,3.1192
1565.00,3.1280
1564.00,3.1354
1563.00,3.1397
1562.00,3.1411
1561.00,3.1430
1560.00,3.1527
1559.00,3.1658
1558.00,3.1737
1557.00,3.1820
1556.00,3.1927
1555.00,3.2027
1554.00,3.2094
1553.00,3.2125
1552.00,3.2149
1551.00,3.2192
1550.00,3.2261
1549.00,3.2347
1548.00,3.2435
1547.00,3.2501
1546.00,3.2551
1545.00,3.2607
1544.00,3.2673
1543.00,3.2723
1542.00,3.2734
1541.00,3.2715
1540.00,3.2695
1539.00,3.2714
1538.00,3.2779
1537.00,3.2848
1536.00,3.2901
1535.00,3.2946
1534.00,3.2982
1533.00,3.2980
1532.00,3.2928
1531.00,3.2862
1530.00,3.2823
1529.00,3.2844
1528.00,3.2931
1527.00,3.3065
1526.00,3.3217
1525.00,3.3355
1524.00,3.3450
1523.00,3.3498
1522.00,3.3516
1521.00,3.3509
1520.00,3.3479
1519.00,3.3443
1518.00,3.3431
1517.00,3.3458
1516.00,3.3505
1515.00,3.3534
1514.00,3.3530
1513.00,3.3504
1512.00,3.3466
1511.00,3.3415
1510.00,3.3371
1509.00,3.3375
1508.00,3.3446
1507.00,3.3516
1506.00,3.3517
1505.00,3.3480
1504.00,3.3450
1503.00,3.3447
1502.00,3.3459
1501.00,3.3449
1500.00,3.3390
1499.00,3.3303
1498.00,3.3237
1497.00,3.3213
1496.00,3.3197
1495.00,3.3135
1494.00,3.3035
1493.00,3.2958
1492.00,3.2947
1491.00,3.2985
1490.00,3.3017
1489.00,3.3027
1488.00,3.3061
1487.00,3.3139
1486.00,3.3210
1485.00,3.3223
1484.00,3.3183
1483.00,3.3135
1482.00,3.3109
1481.00,3.3099
1480.00,3.3082
1479.00,3.3050
1478.00,3.3009
1477.00,3.2965
1476.00,3.2915
1475.00,3.2865
1474.00,3.2833
1473.00,3.2815
1472.00,3.2771
1471.00,3.2690
1470.00,3.2606
1469.00,3.2551
1468.00,3.2517
1467.00,3.2484
1466.00,3.2460
1465.00,3.2479
1464.00,3.2547
1463.00,3.2622
1462.00,3.2644
1461.00,3.2583
1460.00,3.2460
1459.00,3.2338
1458.00,3.2295
1457.00,3.2372
1456.00,3.2562
1455.00,3.2829
1454.00,3.3150
1453.00,3.3560
1452.00,3.4081
1451.00,3.4672
1450.00,3.5229
1449.00,3.5639
1448.00,3.5778
1447.00,3.5566
1446.00,3.5102
1445.00,3.4595
1444.00,3.4193
1443.00,3.3929
1442.00,3.3750
1441.00,3.3577
1440.00,3.3369
1439.00,3.3141
1438.00,3.2928
1437.00,3.2757
1436.00,3.2657
1435.00,3.2675
1434.00,3.2828
1433.00,3.3061
1432.00,3.3270
1431.00,3.3380
1430.00,3.3427
1429.00,3.3506
1428.00,3.3669
1427.00,3.3879
1426.00,3.4062
1425.00,3.4163
1424.00,3.4173
1423.00,3.4141
1422.00,3.4145
1421.00,3.4228
1420.00,3.4345
1419.00,3.4358
1418.00,3.4184
1417.00,3.3900
1416.00,3.3621
1415.00,3.3402
1414.00,3.3248
1413.00,3.3122
1412.00,3.2965
1411.00,3.2756
1410.00,3.2537
1409.00,3.2358
1408.00,3.2224
1407.00,3.2102
1406.00,3.1973
1405.00,3.1847
1404.00,3.1725
1403.00,3.1583
1402.00,3.1402
1401.00,3.1189
1400.00,3.0971
1399.00,3.0764
1398.00,3.0580
1397.00,3.0428
1396.00,3.0305
1395.00,3.0186
1394.00,3.0044
1393.00,2.9863
1392.00,2.9649
1391.00,2.9422
1390.00,2.9213
1389.00,2.9031
1388.00,2.8855
1387.00,2.8657
1386.00,2.8432
1385.00,2.8197
1384.00,2.7964
1383.00,2.7731
1382.00,2.7494
1381.00,2.7260
1380.00,2.7025
1379.00,2.6782
1378.00,2.6520
1377.00,2.6244
1376.00,2.5956
1375.00,2.5650
1374.00,2.5306
1373.00,2.4922
1372.00,2.4519
1371.00,2.4121
1370.00,2.3739
1369.00,2.3367
1368.00,2.3000
1367.00,2.2653
1366.00,2.2355
1365.00,2.2129
1364.00,2.1971
1363.00,2.1849
1362.00,2.1736
1361.00,2.1633
1360.00,2.1576
1359.00,2.1608
1358.00,2.1762
1357.00,2.2057
1356.00,2.2499
1355.00,2.3088
1354.00,2.3820
1353.00,2.4691
1352.00,2.5685
1351.00,2.6764
1350.00,2.7842
1349.00,2.8788
1348.00,2.9462
1347.00,2.9783
1346.00,2.9780
1345.00,2.9585
1344.00,2.9376
1343.00,2.9308
1342.00,2.9472
1341.00,2.9860
1340.00,3.0351
1339.00,3.0715
1338.00,3.0708
1337.00,3.0231
1336.00,2.9405
1335.00,2.8442
1334.00,2.7521
1333.00,2.6748
1332.00,2.6172
1331.00,2.5802
1330.00,2.5626
1329.00,2.5620
1328.00,2.5758
1327.00,2.6025
1326.00,2.6408
1325.00,2.6895
1324.00,2.7465
1323.00,2.8084
1322.00,2.8724
1321.00,2.9375
1320.00,3.0049
1319.00,3.0753
1318.00,3.1478
1317.00,3.2207
1316.00,3.2931
1315.00,3.3629
1314.00,3.4253
1313.00,3.4730
1312.00,3.4945
1311.00,3.4764
1310.00,3.4144
1309.00,3.3192
1308.00,3.2076
1307.00,3.0913
1306.00,2.9778
1305.00,2.8730
1304.00,2.7819
1303.00,2.7073
1302.00,2.6493
1301.00,2.6067
1300.00,2.5781
1299.00,2.5627
1298.00,2.5600
1297.00,2.5687
1296.00,2.5868
1295.00,2.6122
1294.00,2.6430
1293.00,2.6775
1292.00,2.7143
1291.00,2.7521
1290.00,2.7901
1289.00,2.8277
1288.00,2.8644
1287.00,2.9000
1286.00,2.9341
1285.00,2.9671
1284.00,2.9989
1283.00,3.0301
1282.00,3.0615
1281.00,3.0925
1280.00,3.1209
1279.00,3.1441
1278.00,3.1625
1277.00,3.1800
1276.00,3.1983
1275.00,3.2144
1274.00,3.2243
1273.00,3.2292
1272.00,3.2355
1271.00,3.2490
1270.00,3.2698
1269.00,3.2940
1268.00,3.3167
1267.00,3.3350
1266.00,3.3454
1265.00,3.3454
1264.00,3.3384
1263.00,3.3344
1262.00,3.3422
1261.00,3.3627
1260.00,3.3863
1259.00,3.3994
1258.00,3.3983
1257.00,3.3944
1256.00,3.4009
1255.00,3.4187
1254.00,3.4378
1253.00,3.4493
1252.00,3.4561
1251.00,3.4663
1250.00,3.4821
1249.00,3.5023
1248.00,3.5294
1247.00,3.5661
1246.00,3.6052
1245.00,3.6274
1244.00,3.6235
1243.00,3.6079
1242.00,3.6000
1241.00,3.6062
1240.00,3.6223
1239.00,3.6429
1238.00,3.6650
1237.00,3.6855
1236.00,3.7050
1235.00,3.7297
1234.00,3.7637
1233.00,3.7995
1232.00,3.8215
1231.00,3.8229
1230.00,3.8089
1229.00,3.7865
1228.00,3.7626
1227.00,3.7531
1226.00,3.7805
1225.00,3.8565
1224.00,3.9539
1223.00,3.9945
1222.00,3.9611
1221.00,3.9118
1220.00,3.8570
1219.00,3.7892
1218.00,3.7232
1217.00,3.6742
1216.00,3.6422
1215.00,3.6199
1214.00,3.6013
1213.00,3.5849
1212.00,3.5743
1211.00,3.5746
1210.00,3.5870
1209.00,3.6043
1208.00,3.6185
1207.00,3.6309
1206.00,3.6504
1205.00,3.6771
1204.00,3.6970
1203.00,3.6986
1202.00,3.6937
1201.00,3.7025
1200.00,3.7283
1199.00,3.7593
1198.00,3.7851
1197.00,3.8008
1196.00,3.8099
1195.00,3.8213
1194.00,3.8360
1193.00,3.8384
1192.00,3.8138
1191.00,3.7763
1190.00,3.7575
1189.00,3.7719
1188.00,3.8003
1187.00,3.8033
1186.00,3.7724
1185.00,3.7380
1184.00,3.7206
1183.00,3.7178
1182.00,3.7249
1181.00,3.7416
1180.00,3.7614
1179.00,3.7748
1178.00,3.7774
1177.00,3.7705
1176.00,3.7659
1175.00,3.7742
1174.00,3.7880
1173.00,3.7890
1172.00,3.7725
1171.00,3.7590
1170.00,3.7709
1169.00,3.8039
1168.00,3.8210
1167.00,3.7924
1166.00,3.7395
1165.00,3.7012
1164.00,3.6917
1163.00,3.7044
1162.00,3.7272
1161.00,3.7556
1160.00,3.7929
1159.00,3.8422
1158.00,3.9006
1157.00,3.9543
1156.00,3.9727
1155.00,3.9544
1154.00,3.9462
1153.00,3.9645
1152.00,3.9625
1151.00,3.8993
1150.00,3.8149
1149.00,3.7603
1148.00,3.7429
1147.00,3.7447
1146.00,3.7541
1145.00,3.7726
1144.00,3.8012
1143.00,3.8322
1142.00,3.8466
1141.00,3.8387
1140.00,3.8148
1139.00,3.7772
1138.00,3.7440
1137.00,3.7421
1136.00,3.7759
1135.00,3.8129
1134.00,3.8122
1133.00,3.7839
1132.00,3.7757
1131.00,3.8105
1130.00,3.8669
1129.00,3.9039
1128.00,3.9168
1127.00,3.9321
1126.00,3.9658
1125.00,4.0102
1124.00,4.0359
1123.00,4.0382
1122.00,4.0268
1121.00,3.9968
1120.00,3.9715
1119.00,3.9704
1118.00,3.9832
1117.00,3.9990
1116.00,4.0134
1115.00,4.0271
1114.00,4.0534
1113.00,4.1087
1112.00,4.1762
1111.00,4.2068
1110.00,4.2024
1109.00,4.1938
1108.00,4.2051
1107.00,4.2542
1106.00,4.3230
1105.00,4.3470
1104.00,4.2697
1103.00,4.1592
1102.00,4.0867
1101.00,4.0599
1100.00,4.0588
1099.00,4.0657
1098.00,4.0793
1097.00,4.0899
1096.00,4.0664
1095.00,3.9979
1094.00,3.9204
1093.00,3.8847
1092.00,3.9189
1091.00,4.0109
1090.00,4.0902
1089.00,4.0639
1088.00,3.9573
1087.00,3.8646
1086.00,3.8234
1085.00,3.8199
1084.00,3.8215
1083.00,3.7999
1082.00,3.7505
1081.00,3.7022
1080.00,3.6873
1079.00,3.7157
1078.00,3.7777
1077.00,3.8537
1076.00,3.9206
1075.00,3.9567
1074.00,3.9575
1073.00,3.9343
1072.00,3.8961
1071.00,3.8523
1070.00,3.8152
1069.00,3.7934
1068.00,3.7842
1067.00,3.7771
1066.00,3.7686
1065.00,3.7646
1064.00,3.7586
1063.00,3.7459
1062.00,3.7493
1061.00,3.7759
1060.00,3.7966
1059.00,3.7931
1058.00,3.7759
1057.00,3.7604
1056.00,3.7556
1055.00,3.7526
1054.00,3.7266
1053.00,3.6701
1052.00,3.6115
1051.00,3.5829
1050.00,3.5948
1049.00,3.6371
1048.00,3.6868
1047.00,3.7260
1046.00,3.7370
1045.00,3.6953
1044.00,3.6203
1043.00,3.5624
1042.00,3.5436
1041.00,3.5490
1040.00,3.5475
1039.00,3.5271
1038.00,3.5044
1037.00,3.4966
1036.00,3.5055
1035.00,3.5213
1034.00,3.5284
1033.00,3.5104
1032.00,3.4640
1031.00,3.4106
1030.00,3.3753
1029.00,3.3601
1028.00,3.3480
1027.00,3.3289
1026.00,3.3126
1025.00,3.3136
1024.00,3.3326
1023.00,3.3568
1022.00,3.3749
1021.00,3.3892
1020.00,3.4112
1019.00,3.4495
1018.00,3.5043
1017.00,3.5623
1016.00,3.5962
1015.00,3.5862
1014.00,3.5410
1013.00,3.4855
1012.00,3.4380
1011.00,3.4014
1010.00,3.3684
1009.00,3.3302
1008.00,3.2846
1007.00,3.2382
1006.00,3.1982
1005.00,3.1647
1004.00,3.1338
1003.00,3.1046
1002.00,3.0822
1001.00,3.0727
1000.00,3.0772
999.00,3.0920
998.00,3.1150
997.00,3.1459
996.00,3.1854
995.00,3.2335
994.00,3.2888
993.00,3.3429
992.00,3.3787
991.00,3.3831
990.00,3.3635
989.00,3.3397
988.00,3.3253
987.00,3.3238
986.00,3.3330
985.00,3.3477
984.00,3.3624
983.00,3.3769
982.00,3.3986
981.00,3.4339
980.00,3.4817
979.00,3.5371
978.00,3.6011
977.00,3.6759
976.00,3.7452
975.00,3.7757
974.00,3.7648
973.00,3.7535
972.00,3.7763
971.00,3.8375
970.00,3.9185
969.00,3.9916
968.00,4.0362
967.00,4.0614
966.00,4.1014
965.00,4.1733
964.00,4.2328
963.00,4.1999
962.00,4.0994
961.00,4.0109
960.00,3.9670
959.00,3.9745
958.00,4.0465
957.00,4.2078
956.00,4.4951
955.00,4.9352
954.00,5.0312
953.00,4.7103
952.00,4.4821
951.00,4.3345
950.00,4.2401
949.00,4.1825
948.00,4.1815
947.00,4.2355
946.00,4.4374
945.00,4.9784
944.00,4.5723
943.00,4.3010
942.00,4.2586
941.00,4.2844
940.00,4.2815
939.00,4.2498
938.00,4.3017
937.00,4.5150
936.00,4.7425
935.00,4.8240
934.00,4.8683
933.00,4.7195
932.00,4.7606
931.00,4.5939
930.00,4.3762
929.00,4.3251
928.00,4.3475
927.00,4.3219
926.00,4.2359
925.00,4.1987
924.00,4.2563
923.00,4.3921
922.00,4.5384
921.00,4.5671
920.00,4.3993
919.00,4.1670
918.00,3.9919
917.00,3.9176
916.00,3.9615
915.00,4.1461
914.00,4.3331
913.00,4.1827
912.00,4.0333
911.00,3.9915
910.00,4.0499
909.00,4.1508
908.00,4.1920
907.00,4.2216
906.00,4.2350
905.00,4.2395
904.00,4.2647
903.00,4.2209
902.00,4.1304
901.00,4.0910
900.00,4.1545
899.00,4.2629
898.00,4.1824
897.00,4.0225
896.00,3.9421
895.00,3.9460
894.00,4.0131
893.00,4.1227
892.00,4.2722
891.00,4.4564
890.00,4.6073
889.00,4.6242
888.00,4.4869
887.00,4.3437
886.00,4.3480
885.00,4.5262
884.00,4.5976
883.00,4.5333
882.00,4.3583
881.00,4.1411
880.00,4.0778
879.00,4.2279
878.00,4.6768
877.00,4.4098
876.00,4.1859
875.00,4.1496
874.00,4.2026
873.00,4.3287
872.00,4.5433
871.00,4.8564
870.00,4.7231
869.00,4.5939
868.00,4.6409
867.00,4.6283
866.00,4.5194
865.00,4.4119
864.00,4.3479
863.00,4.4087
862.00,4.6448
861.00,4.7830
860.00,4.6159
859.00,4.5415
858.00,4.5062
857.00,4.4495
856.00,4.3819
855.00,4.3237
854.00,4.2742
853.00,4.2225
852.00,4.1877
851.00,4.1849
850.00,4.2073
849.00,4.2373
848.00,4.2399
847.00,4.1766
846.00,4.0691
845.00,3.9913
844.00,3.9950
843.00,4.1017
842.00,4.2600
841.00,4.1800
840.00,3.9947
839.00,3.9282
838.00,4.0187
837.00,4.2524
836.00,4.2713
835.00,4.1939
834.00,4.1365
833.00,3.9698
832.00,3.8768
831.00,3.9129
830.00,4.0768
829.00,4.4193
828.00,4.8337
827.00,4.6273
826.00,4.5981
825.00,4.5417
824.00,4.3313
823.00,4.2349
822.00,4.3044
821.00,4.4802
820.00,4.5071
819.00,4.3841
818.00,4.3028
817.00,4.3921
816.00,4.7831
815.00,5.4619
814.00,4.6911
813.00,4.3003
812.00,4.1491
811.00,4.1381
810.00,4.2511
809.00,4.4870
808.00,4.4686
807.00,4.3237
806.00,4.3093
805.00,4.2846
804.00,4.1539
803.00,4.0006
802.00,3.9071
801.00,3.8953
800.00,3.9720
799.00,4.1414
798.00,4.3566
797.00,4.4082
796.00,4.2606
795.00,4.1334
794.00,4.0764
793.00,4.0817
792.00,4.1551
791.00,4.3192
790.00,4.4558
789.00,4.3156
788.00,4.1562
787.00,4.0736
786.00,4.0698
785.00,4.1282
784.00,4.2028
783.00,4.2961
782.00,4.4787
781.00,4.5557
780.00,4.5090
779.00,4.7862
778.00,4.6616
777.00,4.3234
776.00,4.2414
775.00,4.2284
774.00,4.2167
773.00,4.2064
772.00,4.1688
771.00,4.0969
770.00,4.0392
769.00,4.0434
768.00,4.1203
767.00,4.2476
766.00,4.4029
765.00,4.5713
764.00,4.5684
763.00,4.4739
762.00,4.4433
761.00,4.4562
760.00,4.5150
759.00,4.4489
758.00,4.2508
757.00,4.0883
756.00,3.9927
755.00,3.9638
754.00,3.9887
753.00,4.0443
752.00,4.0514
751.00,4.0312
750.00,4.0625
749.00,4.2735
748.00,5.2092
747.00,4.2750
746.00,4.1019
745.00,4.1386
744.00,4.3988
743.00,5.0378
742.00,4.5205
741.00,4.7997
740.00,4.6549
739.00,4.2417
738.00,4.1551
737.00,4.1443
736.00,4.1421
735.00,4.1093
734.00,4.0448
733.00,4.0788
732.00,4.3841
731.00,4.6962
730.00,4.2533
729.00,4.1363
728.00,4.1267
727.00,4.1148
726.00,4.0891
725.00,4.0565
724.00,4.0551
723.00,4.1009
722.00,4.2769
721.00,4.7448
720.00,4.3603
719.00,4.0811
718.00,4.0081
717.00,4.0719
716.00,4.3320
715.00,4.8929
714.00,4.3729
713.00,4.2026
712.00,4.2054
711.00,4.2042
710.00,4.1137
709.00,4.1145
708.00,4.2897
707.00,4.3234
706.00,4.1276
705.00,4.0599
704.00,4.1772
703.00,4.5288
702.00,4.8455
701.00,4.7859
700.00,4.4106
699.00,4.2049
698.00,4.0886
697.00,4.0115
696.00,4.0496
695.00,4.2372
694.00,4.2529
693.00,4.0731
692.00,4.0164
691.00,4.0590
690.00,4.2628
689.00,4.8619
688.00,4.4779
687.00,4.2592
686.00,4.2512
685.00,4.2831
684.00,4.2774
683.00,4.2161
682.00,4.1433
681.00,4.0908
680.00,4.0894
679.00,4.1787
678.00,4.4256
677.00,4.5742
676.00,4.3615
675.00,4.3183
674.00,4.4077
673.00,4.5379
672.00,4.5782
671.00,4.4955
670.00,4.3950
669.00,4.2762
668.00,4.1392
667.00,4.0909
666.00,4.2138
665.00,4.5882
664.00,4.7885
663.00,4.4385
662.00,4.4840
661.00,4.9383
660.00,4.2893
659.00,3.9429
658.00,3.8194
657.00,3.8305
656.00,3.9516
655.00,4.2082
654.00,4.3363
653.00,4.1045
652.00,4.0841
651.00,4.2394
650.00,4.4232
649.00,4.3897
648.00,4.2788
647.00,4.2418
646.00,4.2597
645.00,4.3492
644.00,4.5263
643.00,4.5770
642.00,4.6657
641.00,4.5267
640.00,4.2318
639.00,4.2394
638.00,4.5290
637.00,4.5656
636.00,4.4936
635.00,4.8978
634.00,4.7745
633.00,4.5829
632.00,5.1294
631.00,4.3846
630.00,4.0689
629.00,4.0116
628.00,4.1821
627.00,4.2562
626.00,3.9900
625.00,3.8908
624.00,3.8881
623.00,3.8948
622.00,3.8810
621.00,3.8454
620.00,3.8214
619.00,3.8627
618.00,4.0155
617.00,4.2565
616.00,4.2669
615.00,4.1630
614.00,4.1966
613.00,4.3045
612.00,4.3694
611.00,4.4893
610.00,4.5409
609.00,4.4493
608.00,4.4212
607.00,4.6253
606.00,4.6186
605.00,4.1266
604.00,4.0039
603.00,4.0351
602.00,4.0871
601.00,4.0915
600.00,4.0928
599.00,4.0762
598.00,4.0292
597.00,4.0302
596.00,3.9727
595.00,3.8432
594.00,3.7849
593.00,3.8493
592.00,4.0064
591.00,4.0045
590.00,3.9238
589.00,3.9185
588.00,3.9335
587.00,3.9791
586.00,4.0730
585.00,4.1501
584.00,4.2600
583.00,4.4811
582.00,4.5838
581.00,4.3524
580.00,4.0746
579.00,3.9193
578.00,3.8693
577.00,3.8869
576.00,3.9296
575.00,3.9270
574.00,3.8021
573.00,3.6447
572.00,3.5551
571.00,3.5413
570.00,3.5819
569.00,3.6775
568.00,3.8520
567.00,4.0937
566.00,4.0463
565.00,3.7701
564.00,3.6385
563.00,3.6232
562.00,3.6453
561.00,3.6477
560.00,3.6705
559.00,3.7974
558.00,3.9897
557.00,3.8560
556.00,3.7663
555.00,3.8348
554.00,3.8864
553.00,3.8453
552.00,3.9150
551.00,4.1804
550.00,4.6400
549.00,5.1394
548.00,4.2818
547.00,3.8487
546.00,3.6612
545.00,3.6250
544.00,3.7008
543.00,3.7808
542.00,3.7132
541.00,3.6750
540.00,3.8054
539.00,4.1980
538.00,4.2422
537.00,3.8471
536.00,3.6166
535.00,3.5228
534.00,3.5439
533.00,3.6814
532.00,4.0319
531.00,4.2972
530.00,3.8768
529.00,3.8315
528.00,4.1134
527.00,4.4988
526.00,3.9511
525.00,3.7891
524.00,3.7169
523.00,3.6870
522.00,3.6571
521.00,3.5623
520.00,3.4753
519.00,3.4424
518.00,3.4338
517.00,3.4181
516.00,3.4159
515.00,3.4722
514.00,3.5976
513.00,3.7593
512.00,3.8994
511.00,3.7959
510.00,3.6410
509.00,3.6353
508.00,3.8132
507.00,4.2823
506.00,4.4334
505.00,4.0605
504.00,3.8509
503.00,3.6847
502.00,3.6164
501.00,3.6828
500.00,3.9065
499.00,4.2479
498.00,4.0296
497.00,3.7450
496.00,3.6097
495.00,3.6035
494.00,3.6891
493.00,3.7508
492.00,3.7270
491.00,3.8075
490.00,4.0461
489.00,3.7799
488.00,3.6353
487.00,3.6014
486.00,3.5060
485.00,3.3762
484.00,3.2990
483.00,3.2807
482.00,3.2856
481.00,3.2850
480.00,3.2850
479.00,3.3130
478.00,3.3944
477.00,3.5100
476.00,3.5679
475.00,3.5734
474.00,3.6251
473.00,3.7687
472.00,3.7928
471.00,3.6082
470.00,3.4839
469.00,3.3763
468.00,3.2723
467.00,3.2093
466.00,3.1798
465.00,3.1775
464.00,3.2314
463.00,3.3659
462.00,3.4209
461.00,3.2832
460.00,3.2326
459.00,3.3411
458.00,3.6304
457.00,4.0673
456.00,3.9699
455.00,3.3925
454.00,3.1316
453.00,3.0436
452.00,3.0874
451.00,3.2125
450.00,3.2414
449.00,3.1207
448.00,3.0324
447.00,3.0397
446.00,3.1442
445.00,3.2838
444.00,3.3492
443.00,3.4031
442.00,3.6215
441.00,4.4053
440.00,3.5576
439.00,3.4449
438.00,3.3616
437.00,3.1534
436.00,3.0015
435.00,2.9379
434.00,2.9511
433.00,3.0162
432.00,3.0821
431.00,3.0848
430.00,3.0627
429.00,3.0892
428.00,3.1140
427.00,3.0592
426.00,3.0142
425.00,3.0559
424.00,3.2118
423.00,3.4790
422.00,3.6726
421.00,3.6651
420.00,3.5955
419.00,3.3132
418.00,3.0984
417.00,3.0179
416.00,3.0036
415.00,2.9829
414.00,2.9430
413.00,2.8967
412.00,2.8544
411.00,2.8264
410.00,2.8239
409.00,2.8660
408.00,2.9977
407.00,3.2525
406.00,3.4643
405.00,3.3452
404.00,3.1724
403.00,2.9994
402.00,2.8308
401.00,2.7231
400.00,2.7047
