Created as New Dataset,Sample 173 By Administrator Date Friday, November 26 2021
cm-1,A
7000.00,1.0625
6999.00,1.0587
6998.00,1.0547
6997.00,1.0504
6996.00,1.0461
6995.00,1.0421
6994.00,1.0383
6993.00,1.0345
6992.00,1.0306
6991.00,1.0268
6990.00,1.0230
6989.00,1.0189
6988.00,1.0145
6987.00,1.0099
6986.00,1.0053
6985.00,1.0007
6984.00,0.9962
6983.00,0.9916
6982.00,0.9871
6981.00,0.9829
6980.00,0.9788
6979.00,0.9748
6978.00,0.9707
6977.00,0.9664
6976.00,0.9617
6975.00,0.9569
6974.00,0.9521
6973.00,0.9474
6972.00,0.9424
6971.00,0.9375
6970.00,0.9327
6969.00,0.9282
6968.00,0.9239
6967.00,0.9194
6966.00,0.9148
6965.00,0.9101
6964.00,0.9054
6963.00,0.9007
6962.00,0.8960
6961.00,0.8913
6960.00,0.8867
6959.00,0.8820
6958.00,0.8772
6957.00,0.8726
6956.00,0.8678
6955.00,0.8630
6954.00,0.8580
6953.00,0.8531
6952.00,0.8481
6951.00,0.8431
6950.00,0.8382
6949.00,0.8335
6948.00,0.8289
6947.00,0.8245
6946.00,0.8199
6945.00,0.8153
6944.00,0.8107
6943.00,0.8063
6942.00,0.8020
6941.00,0.7979
6940.00,0.7940
6939.00,0.7900
6938.00,0.7861
6937.00,0.7822
6936.00,0.7784
6935.00,0.7744
6934.00,0.7703
6933.00,0.7662
6932.00,0.7623
6931.00,0.7587
6930.00,0.7554
6929.00,0.7520
6928.00,0.7487
6927.00,0.7454
6926.00,0.7423
6925.00,0.7395
6924.00,0.7368
6923.00,0.7342
6922.00,0.7315
6921.00,0.7289
6920.00,0.7264
6919.00,0.7240
6918.00,0.7216
6917.00,0.7192
6916.00,0.7169
6915.00,0.7149
6914.00,0.7130
6913.00,0.7112
6912.00,0.7094
6911.00,0.7076
6910.00,0.7059
6909.00,0.7045
6908.00,0.7033
6907.00,0.7022
6906.00,0.7012
6905.00,0.7005
6904.00,0.7001
6903.00,0.6997
6902.00,0.6994
6901.00,0.6992
6900.00,0.6989
6899.00,0.6989
6898.00,0.6990
6897.00,0.6992
6896.00,0.6994
6895.00,0.6998
6894.00,0.7004
6893.00,0.7012
6892.00,0.7020
6891.00,0.7027
6890.00,0.7035
6889.00,0.7044
6888.00,0.7055
6887.00,0.7067
6886.00,0.7081
6885.00,0.7097
6884.00,0.7114
6883.00,0.7132
6882.00,0.7151
6881.00,0.7172
6880.00,0.7194
6879.00,0.7217
6878.00,0.7241
6877.00,0.7266
6876.00,0.7292
6875.00,0.7320
6874.00,0.7348
6873.00,0.7378
6872.00,0.7408
6871.00,0.7438
6870.00,0.7468
6869.00,0.7499
6868.00,0.7530
6867.00,0.7561
6866.00,0.7595
6865.00,0.7630
6864.00,0.7668
6863.00,0.7707
6862.00,0.7745
6861.00,0.7784
6860.00,0.7822
6859.00,0.7861
6858.00,0.7900
6857.00,0.7941
6856.00,0.7983
6855.00,0.8025
6854.00,0.8067
6853.00,0.8110
6852.00,0.8154
6851.00,0.8199
6850.00,0.8246
6849.00,0.8293
6848.00,0.8340
6847.00,0.8388
6846.00,0.8436
6845.00,0.8483
6844.00,0.8530
6843.00,0.8577
6842.00,0.8625
6841.00,0.8675
6840.00,0.8724
6839.00,0.8773
6838.00,0.8823
6837.00,0.8873
6836.00,0.8923
6835.00,0.8971
6834.00,0.9018
6833.00,0.9065
6832.00,0.9112
6831.00,0.9159
6830.00,0.9207
6829.00,0.9256
6828.00,0.9306
6827.00,0.9356
6826.00,0.9405
6825.00,0.9455
6824.00,0.9504
6823.00,0.9553
6822.00,0.9601
6821.00,0.9648
6820.00,0.9695
6819.00,0.9744
6818.00,0.9794
6817.00,0.9843
6816.00,0.9891
6815.00,0.9938
6814.00,0.9986
6813.00,1.0032
6812.00,1.0075
6811.00,1.0116
6810.00,1.0159
6809.00,1.0202
6808.00,1.0245
6807.00,1.0286
6806.00,1.0328
6805.00,1.0371
6804.00,1.0413
6803.00,1.0453
6802.00,1.0491
6801.00,1.0529
6800.00,1.0567
6799.00,1.0607
6798.00,1.0647
6797.00,1.0687
6796.00,1.0727
6795.00,1.0767
6794.00,1.0809
6793.00,1.0852
6792.00,1.0893
6791.00,1.0932
6790.00,1.0970
6789.00,1.1006
6788.00,1.1041
6787.00,1.1073
6786.00,1.1106
6785.00,1.1142
6784.00,1.1178
6783.00,1.1213
6782.00,1.1249
6781.00,1.1284
6780.00,1.1319
6779.00,1.1349
6778.00,1.1377
6777.00,1.1405
6776.00,1.1434
6775.00,1.1463
6774.00,1.1492
6773.00,1.1523
6772.00,1.1555
6771.00,1.1586
6770.00,1.1615
6769.00,1.1643
6768.00,1.1672
6767.00,1.1702
6766.00,1.1730
6765.00,1.1753
6764.00,1.1774
6763.00,1.1795
6762.00,1.1816
6761.00,1.1835
6760.00,1.1854
6759.00,1.1873
6758.00,1.1895
6757.00,1.1917
6756.00,1.1940
6755.00,1.1962
6754.00,1.1983
6753.00,1.2005
6752.00,1.2028
6751.00,1.2050
6750.00,1.2067
6749.00,1.2080
6748.00,1.2092
6747.00,1.2107
6746.00,1.2123
6745.00,1.2138
6744.00,1.2149
6743.00,1.2162
6742.00,1.2179
6741.00,1.2196
6740.00,1.2210
6739.00,1.2223
6738.00,1.2236
6737.00,1.2250
6736.00,1.2262
6735.00,1.2270
6734.00,1.2275
6733.00,1.2277
6732.00,1.2279
6731.00,1.2280
6730.00,1.2284
6729.00,1.2290
6728.00,1.2296
6727.00,1.2300
6726.00,1.2306
6725.00,1.2313
6724.00,1.2321
6723.00,1.2326
6722.00,1.2329
6721.00,1.2334
6720.00,1.2340
6719.00,1.2346
6718.00,1.2349
6717.00,1.2350
6716.00,1.2348
6715.00,1.2342
6714.00,1.2334
6713.00,1.2325
6712.00,1.2316
6711.00,1.2310
6710.00,1.2310
6709.00,1.2316
6708.00,1.2323
6707.00,1.2326
6706.00,1.2324
6705.00,1.2318
6704.00,1.2308
6703.00,1.2296
6702.00,1.2283
6701.00,1.2273
6700.00,1.2265
6699.00,1.2256
6698.00,1.2245
6697.00,1.2233
6696.00,1.2223
6695.00,1.2212
6694.00,1.2200
6693.00,1.2187
6692.00,1.2173
6691.00,1.2158
6690.00,1.2143
6689.00,1.2126
6688.00,1.2110
6687.00,1.2094
6686.00,1.2078
6685.00,1.2062
6684.00,1.2045
6683.00,1.2026
6682.00,1.2007
6681.00,1.1989
6680.00,1.1973
6679.00,1.1958
6678.00,1.1942
6677.00,1.1922
6676.00,1.1900
6675.00,1.1875
6674.00,1.1849
6673.00,1.1823
6672.00,1.1799
6671.00,1.1777
6670.00,1.1754
6669.00,1.1729
6668.00,1.1702
6667.00,1.1675
6666.00,1.1648
6665.00,1.1621
6664.00,1.1593
6663.00,1.1565
6662.00,1.1537
6661.00,1.1506
6660.00,1.1473
6659.00,1.1437
6658.00,1.1400
6657.00,1.1364
6656.00,1.1330
6655.00,1.1299
6654.00,1.1269
6653.00,1.1238
6652.00,1.1203
6651.00,1.1165
6650.00,1.1127
6649.00,1.1090
6648.00,1.1052
6647.00,1.1012
6646.00,1.0971
6645.00,1.0933
6644.00,1.0895
6643.00,1.0856
6642.00,1.0814
6641.00,1.0772
6640.00,1.0730
6639.00,1.0690
6638.00,1.0651
6637.00,1.0610
6636.00,1.0568
6635.00,1.0525
6634.00,1.0479
6633.00,1.0432
6632.00,1.0384
6631.00,1.0336
6630.00,1.0291
6629.00,1.0248
6628.00,1.0205
6627.00,1.0161
6626.00,1.0116
6625.00,1.0070
6624.00,1.0023
6623.00,0.9975
6622.00,0.9926
6621.00,0.9878
6620.00,0.9827
6619.00,0.9775
6618.00,0.9723
6617.00,0.9670
6616.00,0.9619
6615.00,0.9568
6614.00,0.9519
6613.00,0.9470
6612.00,0.9422
6611.00,0.9373
6610.00,0.9324
6609.00,0.9273
6608.00,0.9222
6607.00,0.9170
6606.00,0.9120
6605.00,0.9070
6604.00,0.9019
6603.00,0.8968
6602.00,0.8918
6601.00,0.8867
6600.00,0.8816
6599.00,0.8765
6598.00,0.8714
6597.00,0.8665
6596.00,0.8617
6595.00,0.8569
6594.00,0.8520
6593.00,0.8474
6592.00,0.8429
6591.00,0.8383
6590.00,0.8335
6589.00,0.8287
6588.00,0.8240
6587.00,0.8194
6586.00,0.8149
6585.00,0.8105
6584.00,0.8063
6583.00,0.8021
6582.00,0.7980
6581.00,0.7939
6580.00,0.7897
6579.00,0.7856
6578.00,0.7817
6577.00,0.7779
6576.00,0.7742
6575.00,0.7706
6574.00,0.7672
6573.00,0.7640
6572.00,0.7607
6571.00,0.7575
6570.00,0.7544
6569.00,0.7515
6568.00,0.7486
6567.00,0.7459
6566.00,0.7433
6565.00,0.7410
6564.00,0.7389
6563.00,0.7367
6562.00,0.7347
6561.00,0.7329
6560.00,0.7313
6559.00,0.7297
6558.00,0.7281
6557.00,0.7267
6556.00,0.7256
6555.00,0.7246
6554.00,0.7236
6553.00,0.7228
6552.00,0.7222
6551.00,0.7217
6550.00,0.7214
6549.00,0.7213
6548.00,0.7214
6547.00,0.7215
6546.00,0.7218
6545.00,0.7223
6544.00,0.7229
6543.00,0.7236
6542.00,0.7244
6541.00,0.7253
6540.00,0.7265
6539.00,0.7279
6538.00,0.7294
6537.00,0.7312
6536.00,0.7330
6535.00,0.7350
6534.00,0.7372
6533.00,0.7395
6532.00,0.7418
6531.00,0.7442
6530.00,0.7466
6529.00,0.7493
6528.00,0.7520
6527.00,0.7549
6526.00,0.7578
6525.00,0.7609
6524.00,0.7641
6523.00,0.7674
6522.00,0.7708
6521.00,0.7744
6520.00,0.7780
6519.00,0.7817
6518.00,0.7857
6517.00,0.7898
6516.00,0.7939
6515.00,0.7979
6514.00,0.8019
6513.00,0.8062
6512.00,0.8105
6511.00,0.8149
6510.00,0.8192
6509.00,0.8237
6508.00,0.8283
6507.00,0.8327
6506.00,0.8373
6505.00,0.8419
6504.00,0.8468
6503.00,0.8519
6502.00,0.8570
6501.00,0.8621
6500.00,0.8671
6499.00,0.8721
6498.00,0.8769
6497.00,0.8817
6496.00,0.8865
6495.00,0.8913
6494.00,0.8962
6493.00,0.9014
6492.00,0.9067
6491.00,0.9120
6490.00,0.9173
6489.00,0.9226
6488.00,0.9278
6487.00,0.9329
6486.00,0.9380
6485.00,0.9431
6484.00,0.9481
6483.00,0.9531
6482.00,0.9583
6481.00,0.9635
6480.00,0.9687
6479.00,0.9738
6478.00,0.9788
6477.00,0.9839
6476.00,0.9889
6475.00,0.9938
6474.00,0.9987
6473.00,1.0036
6472.00,1.0086
6471.00,1.0135
6470.00,1.0182
6469.00,1.0229
6468.00,1.0278
6467.00,1.0328
6466.00,1.0378
6465.00,1.0427
6464.00,1.0474
6463.00,1.0521
6462.00,1.0567
6461.00,1.0612
6460.00,1.0655
6459.00,1.0698
6458.00,1.0739
6457.00,1.0782
6456.00,1.0826
6455.00,1.0871
6454.00,1.0915
6453.00,1.0959
6452.00,1.1002
6451.00,1.1045
6450.00,1.1087
6449.00,1.1124
6448.00,1.1158
6447.00,1.1191
6446.00,1.1227
6445.00,1.1266
6444.00,1.1307
6443.00,1.1347
6442.00,1.1387
6441.00,1.1425
6440.00,1.1460
6439.00,1.1493
6438.00,1.1527
6437.00,1.1560
6436.00,1.1592
6435.00,1.1619
6434.00,1.1646
6433.00,1.1675
6432.00,1.1706
6431.00,1.1739
6430.00,1.1771
6429.00,1.1803
6428.00,1.1836
6427.00,1.1866
6426.00,1.1893
6425.00,1.1917
6424.00,1.1939
6423.00,1.1963
6422.00,1.1988
6421.00,1.2016
6420.00,1.2043
6419.00,1.2066
6418.00,1.2087
6417.00,1.2107
6416.00,1.2127
6415.00,1.2146
6414.00,1.2164
6413.00,1.2181
6412.00,1.2198
6411.00,1.2217
6410.00,1.2237
6409.00,1.2256
6408.00,1.2273
6407.00,1.2289
6406.00,1.2305
6405.00,1.2321
6404.00,1.2337
6403.00,1.2353
6402.00,1.2368
6401.00,1.2385
6400.00,1.2402
6399.00,1.2415
6398.00,1.2423
6397.00,1.2429
6396.00,1.2435
6395.00,1.2443
6394.00,1.2452
6393.00,1.2460
6392.00,1.2470
6391.00,1.2482
6390.00,1.2494
6389.00,1.2504
6388.00,1.2508
6387.00,1.2508
6386.00,1.2509
6385.00,1.2510
6384.00,1.2511
6383.00,1.2512
6382.00,1.2515
6381.00,1.2520
6380.00,1.2525
6379.00,1.2530
6378.00,1.2533
6377.00,1.2534
6376.00,1.2532
6375.00,1.2528
6374.00,1.2523
6373.00,1.2517
6372.00,1.2509
6371.00,1.2501
6370.00,1.2494
6369.00,1.2489
6368.00,1.2485
6367.00,1.2480
6366.00,1.2474
6365.00,1.2467
6364.00,1.2459
6363.00,1.2450
6362.00,1.2440
6361.00,1.2431
6360.00,1.2423
6359.00,1.2415
6358.00,1.2407
6357.00,1.2396
6356.00,1.2383
6355.00,1.2368
6354.00,1.2354
6353.00,1.2341
6352.00,1.2329
6351.00,1.2315
6350.00,1.2299
6349.00,1.2283
6348.00,1.2267
6347.00,1.2248
6346.00,1.2227
6345.00,1.2203
6344.00,1.2179
6343.00,1.2155
6342.00,1.2133
6341.00,1.2113
6340.00,1.2092
6339.00,1.2071
6338.00,1.2051
6337.00,1.2032
6336.00,1.2012
6335.00,1.1989
6334.00,1.1962
6333.00,1.1934
6332.00,1.1904
6331.00,1.1876
6330.00,1.1848
6329.00,1.1821
6328.00,1.1791
6327.00,1.1760
6326.00,1.1730
6325.00,1.1701
6324.00,1.1671
6323.00,1.1637
6322.00,1.1604
6321.00,1.1573
6320.00,1.1542
6319.00,1.1509
6318.00,1.1475
6317.00,1.1439
6316.00,1.1402
6315.00,1.1364
6314.00,1.1326
6313.00,1.1287
6312.00,1.1249
6311.00,1.1211
6310.00,1.1174
6309.00,1.1137
6308.00,1.1099
6307.00,1.1058
6306.00,1.1016
6305.00,1.0973
6304.00,1.0928
6303.00,1.0883
6302.00,1.0837
6301.00,1.0794
6300.00,1.0753
6299.00,1.0711
6298.00,1.0666
6297.00,1.0620
6296.00,1.0572
6295.00,1.0523
6294.00,1.0474
6293.00,1.0425
6292.00,1.0376
6291.00,1.0326
6290.00,1.0277
6289.00,1.0229
6288.00,1.0181
6287.00,1.0132
6286.00,1.0083
6285.00,1.0035
6284.00,0.9988
6283.00,0.9938
6282.00,0.9886
6281.00,0.9834
6280.00,0.9782
6279.00,0.9730
6278.00,0.9679
6277.00,0.9629
6276.00,0.9580
6275.00,0.9530
6274.00,0.9479
6273.00,0.9428
6272.00,0.9378
6271.00,0.9327
6270.00,0.9276
6269.00,0.9225
6268.00,0.9173
6267.00,0.9121
6266.00,0.9069
6265.00,0.9018
6264.00,0.8968
6263.00,0.8918
6262.00,0.8868
6261.00,0.8818
6260.00,0.8769
6259.00,0.8719
6258.00,0.8669
6257.00,0.8620
6256.00,0.8572
6255.00,0.8523
6254.00,0.8475
6253.00,0.8428
6252.00,0.8381
6251.00,0.8335
6250.00,0.8289
6249.00,0.8243
6248.00,0.8198
6247.00,0.8153
6246.00,0.8107
6245.00,0.8062
6244.00,0.8017
6243.00,0.7974
6242.00,0.7932
6241.00,0.7891
6240.00,0.7850
6239.00,0.7809
6238.00,0.7769
6237.00,0.7731
6236.00,0.7693
6235.00,0.7656
6234.00,0.7619
6233.00,0.7582
6232.00,0.7545
6231.00,0.7509
6230.00,0.7475
6229.00,0.7443
6228.00,0.7411
6227.00,0.7379
6226.00,0.7348
6225.00,0.7319
6224.00,0.7291
6223.00,0.7264
6222.00,0.7238
6221.00,0.7213
6220.00,0.7190
6219.00,0.7167
6218.00,0.7144
6217.00,0.7122
6216.00,0.7100
6215.00,0.7080
6214.00,0.7063
6213.00,0.7048
6212.00,0.7035
6211.00,0.7024
6210.00,0.7015
6209.00,0.7008
6208.00,0.7001
6207.00,0.6994
6206.00,0.6988
6205.00,0.6985
6204.00,0.6984
6203.00,0.6983
6202.00,0.6985
6201.00,0.6987
6200.00,0.6992
6199.00,0.6997
6198.00,0.7004
6197.00,0.7014
6196.00,0.7026
6195.00,0.7040
6194.00,0.7057
6193.00,0.7075
6192.00,0.7093
6191.00,0.7113
6190.00,0.7134
6189.00,0.7156
6188.00,0.7179
6187.00,0.7203
6186.00,0.7229
6185.00,0.7256
6184.00,0.7285
6183.00,0.7316
6182.00,0.7347
6181.00,0.7381
6180.00,0.7415
6179.00,0.7450
6178.00,0.7486
6177.00,0.7524
6176.00,0.7564
6175.00,0.7606
6174.00,0.7648
6173.00,0.7691
6172.00,0.7733
6171.00,0.7776
6170.00,0.7819
6169.00,0.7865
6168.00,0.7911
6167.00,0.7959
6166.00,0.8008
6165.00,0.8057
6164.00,0.8108
6163.00,0.8159
6162.00,0.8210
6161.00,0.8261
6160.00,0.8312
6159.00,0.8364
6158.00,0.8416
6157.00,0.8468
6156.00,0.8522
6155.00,0.8576
6154.00,0.8632
6153.00,0.8689
6152.00,0.8747
6151.00,0.8804
6150.00,0.8862
6149.00,0.8918
6148.00,0.8974
6147.00,0.9030
6146.00,0.9086
6145.00,0.9142
6144.00,0.9199
6143.00,0.9255
6142.00,0.9311
6141.00,0.9366
6140.00,0.9421
6139.00,0.9475
6138.00,0.9531
6137.00,0.9588
6136.00,0.9647
6135.00,0.9705
6134.00,0.9763
6133.00,0.9820
6132.00,0.9876
6131.00,0.9931
6130.00,0.9985
6129.00,1.0040
6128.00,1.0094
6127.00,1.0148
6126.00,1.0202
6125.00,1.0254
6124.00,1.0307
6123.00,1.0359
6122.00,1.0412
6121.00,1.0465
6120.00,1.0517
6119.00,1.0569
6118.00,1.0620
6117.00,1.0671
6116.00,1.0721
6115.00,1.0770
6114.00,1.0818
6113.00,1.0865
6112.00,1.0912
6111.00,1.0959
6110.00,1.1005
6109.00,1.1053
6108.00,1.1102
6107.00,1.1151
6106.00,1.1200
6105.00,1.1247
6104.00,1.1292
6103.00,1.1335
6102.00,1.1376
6101.00,1.1417
6100.00,1.1457
6099.00,1.1495
6098.00,1.1534
6097.00,1.1572
6096.00,1.1612
6095.00,1.1652
6094.00,1.1693
6093.00,1.1733
6092.00,1.1772
6091.00,1.1808
6090.00,1.1843
6089.00,1.1876
6088.00,1.1910
6087.00,1.1944
6086.00,1.1980
6085.00,1.2016
6084.00,1.2050
6083.00,1.2081
6082.00,1.2109
6081.00,1.2138
6080.00,1.2168
6079.00,1.2198
6078.00,1.2228
6077.00,1.2259
6076.00,1.2290
6075.00,1.2320
6074.00,1.2348
6073.00,1.2374
6072.00,1.2400
6071.00,1.2427
6070.00,1.2455
6069.00,1.2484
6068.00,1.2512
6067.00,1.2539
6066.00,1.2566
6065.00,1.2591
6064.00,1.2614
6063.00,1.2634
6062.00,1.2651
6061.00,1.2666
6060.00,1.2681
6059.00,1.2698
6058.00,1.2716
6057.00,1.2736
6056.00,1.2756
6055.00,1.2775
6054.00,1.2793
6053.00,1.2809
6052.00,1.2821
6051.00,1.2833
6050.00,1.2845
6049.00,1.2859
6048.00,1.2873
6047.00,1.2888
6046.00,1.2901
6045.00,1.2912
6044.00,1.2921
6043.00,1.2927
6042.00,1.2932
6041.00,1.2937
6040.00,1.2945
6039.00,1.2955
6038.00,1.2967
6037.00,1.2979
6036.00,1.2988
6035.00,1.2994
6034.00,1.3000
6033.00,1.3004
6032.00,1.3006
6031.00,1.3006
6030.00,1.3003
6029.00,1.3000
6028.00,1.2998
6027.00,1.2996
6026.00,1.2997
6025.00,1.2998
6024.00,1.3000
6023.00,1.3000
6022.00,1.3000
6021.00,1.2997
6020.00,1.2992
6019.00,1.2986
6018.00,1.2981
6017.00,1.2976
6016.00,1.2971
6015.00,1.2963
6014.00,1.2952
6013.00,1.2944
6012.00,1.2939
6011.00,1.2934
6010.00,1.2929
6009.00,1.2920
6008.00,1.2910
6007.00,1.2899
6006.00,1.2886
6005.00,1.2873
6004.00,1.2859
6003.00,1.2844
6002.00,1.2830
6001.00,1.2816
6000.00,1.2800
5999.00,1.2783
5998.00,1.2767
5997.00,1.2753
5996.00,1.2741
5995.00,1.2727
5994.00,1.2709
5993.00,1.2688
5992.00,1.2667
5991.00,1.2646
5990.00,1.2624
5989.00,1.2603
5988.00,1.2581
5987.00,1.2560
5986.00,1.2538
5985.00,1.2517
5984.00,1.2494
5983.00,1.2470
5982.00,1.2445
5981.00,1.2419
5980.00,1.2391
5979.00,1.2362
5978.00,1.2334
5977.00,1.2309
5976.00,1.2284
5975.00,1.2257
5974.00,1.2228
5973.00,1.2197
5972.00,1.2164
5971.00,1.2132
5970.00,1.2100
5969.00,1.2069
5968.00,1.2037
5967.00,1.2001
5966.00,1.1961
5965.00,1.1919
5964.00,1.1878
5963.00,1.1840
5962.00,1.1804
5961.00,1.1769
5960.00,1.1733
5959.00,1.1695
5958.00,1.1654
5957.00,1.1611
5956.00,1.1569
5955.00,1.1529
5954.00,1.1491
5953.00,1.1451
5952.00,1.1409
5951.00,1.1365
5950.00,1.1318
5949.00,1.1270
5948.00,1.1223
5947.00,1.1176
5946.00,1.1130
5945.00,1.1086
5944.00,1.1041
5943.00,1.0996
5942.00,1.0948
5941.00,1.0899
5940.00,1.0848
5939.00,1.0796
5938.00,1.0744
5937.00,1.0693
5936.00,1.0642
5935.00,1.0591
5934.00,1.0541
5933.00,1.0489
5932.00,1.0435
5931.00,1.0380
5930.00,1.0325
5929.00,1.0270
5928.00,1.0214
5927.00,1.0158
5926.00,1.0102
5925.00,1.0046
5924.00,0.9990
5923.00,0.9935
5922.00,0.9879
5921.00,0.9822
5920.00,0.9765
5919.00,0.9707
5918.00,0.9649
5917.00,0.9591
5916.00,0.9532
5915.00,0.9472
5914.00,0.9410
5913.00,0.9349
5912.00,0.9288
5911.00,0.9228
5910.00,0.9169
5909.00,0.9109
5908.00,0.9050
5907.00,0.8992
5906.00,0.8934
5905.00,0.8878
5904.00,0.8821
5903.00,0.8764
5902.00,0.8707
5901.00,0.8650
5900.00,0.8592
5899.00,0.8534
5898.00,0.8478
5897.00,0.8424
5896.00,0.8371
5895.00,0.8318
5894.00,0.8266
5893.00,0.8214
5892.00,0.8162
5891.00,0.8111
5890.00,0.8060
5889.00,0.8011
5888.00,0.7962
5887.00,0.7914
5886.00,0.7868
5885.00,0.7823
5884.00,0.7779
5883.00,0.7737
5882.00,0.7697
5881.00,0.7657
5880.00,0.7618
5879.00,0.7579
5878.00,0.7542
5877.00,0.7506
5876.00,0.7471
5875.00,0.7438
5874.00,0.7406
5873.00,0.7377
5872.00,0.7350
5871.00,0.7324
5870.00,0.7300
5869.00,0.7279
5868.00,0.7259
5867.00,0.7239
5866.00,0.7222
5865.00,0.7206
5864.00,0.7193
5863.00,0.7181
5862.00,0.7172
5861.00,0.7163
5860.00,0.7157
5859.00,0.7151
5858.00,0.7148
5857.00,0.7146
5856.00,0.7145
5855.00,0.7147
5854.00,0.7150
5853.00,0.7156
5852.00,0.7163
5851.00,0.7172
5850.00,0.7184
5849.00,0.7198
5848.00,0.7213
5847.00,0.7230
5846.00,0.7249
5845.00,0.7270
5844.00,0.7292
5843.00,0.7316
5842.00,0.7340
5841.00,0.7366
5840.00,0.7393
5839.00,0.7422
5838.00,0.7452
5837.00,0.7485
5836.00,0.7520
5835.00,0.7556
5834.00,0.7594
5833.00,0.7633
5832.00,0.7674
5831.00,0.7716
5830.00,0.7759
5829.00,0.7803
5828.00,0.7847
5827.00,0.7892
5826.00,0.7938
5825.00,0.7985
5824.00,0.8033
5823.00,0.8082
5822.00,0.8132
5821.00,0.8183
5820.00,0.8234
5819.00,0.8286
5818.00,0.8338
5817.00,0.8392
5816.00,0.8446
5815.00,0.8501
5814.00,0.8557
5813.00,0.8614
5812.00,0.8672
5811.00,0.8729
5810.00,0.8786
5809.00,0.8843
5808.00,0.8899
5807.00,0.8956
5806.00,0.9013
5805.00,0.9071
5804.00,0.9130
5803.00,0.9189
5802.00,0.9249
5801.00,0.9310
5800.00,0.9371
5799.00,0.9432
5798.00,0.9492
5797.00,0.9552
5796.00,0.9612
5795.00,0.9670
5794.00,0.9727
5793.00,0.9785
5792.00,0.9844
5791.00,0.9904
5790.00,0.9965
5789.00,1.0026
5788.00,1.0086
5787.00,1.0144
5786.00,1.0201
5785.00,1.0259
5784.00,1.0318
5783.00,1.0376
5782.00,1.0434
5781.00,1.0494
5780.00,1.0553
5779.00,1.0610
5778.00,1.0666
5777.00,1.0722
5776.00,1.0779
5775.00,1.0834
5774.00,1.0889
5773.00,1.0944
5772.00,1.0998
5771.00,1.1052
5770.00,1.1105
5769.00,1.1157
5768.00,1.1208
5767.00,1.1259
5766.00,1.1310
5765.00,1.1361
5764.00,1.1412
5763.00,1.1462
5762.00,1.1511
5761.00,1.1560
5760.00,1.1608
5759.00,1.1654
5758.00,1.1699
5757.00,1.1744
5756.00,1.1788
5755.00,1.1831
5754.00,1.1874
5753.00,1.1919
5752.00,1.1965
5751.00,1.2010
5750.00,1.2054
5749.00,1.2095
5748.00,1.2136
5747.00,1.2176
5746.00,1.2215
5745.00,1.2254
5744.00,1.2292
5743.00,1.2330
5742.00,1.2368
5741.00,1.2404
5740.00,1.2440
5739.00,1.2477
5738.00,1.2513
5737.00,1.2548
5736.00,1.2580
5735.00,1.2611
5734.00,1.2641
5733.00,1.2671
5732.00,1.2701
5731.00,1.2731
5730.00,1.2763
5729.00,1.2795
5728.00,1.2825
5727.00,1.2854
5726.00,1.2881
5725.00,1.2907
5724.00,1.2934
5723.00,1.2959
5722.00,1.2983
5721.00,1.3007
5720.00,1.3028
5719.00,1.3048
5718.00,1.3066
5717.00,1.3084
5716.00,1.3104
5715.00,1.3126
5714.00,1.3147
5713.00,1.3167
5712.00,1.3185
5711.00,1.3203
5710.00,1.3220
5709.00,1.3236
5708.00,1.3251
5707.00,1.3264
5706.00,1.3275
5705.00,1.3286
5704.00,1.3298
5703.00,1.3311
5702.00,1.3325
5701.00,1.3339
5700.00,1.3352
5699.00,1.3365
5698.00,1.3375
5697.00,1.3383
5696.00,1.3390
5695.00,1.3396
5694.00,1.3402
5693.00,1.3407
5692.00,1.3413
5691.00,1.3419
5690.00,1.3426
5689.00,1.3431
5688.00,1.3434
5687.00,1.3436
5686.00,1.3438
5685.00,1.3439
5684.00,1.3440
5683.00,1.3442
5682.00,1.3446
5681.00,1.3449
5680.00,1.3451
5679.00,1.3450
5678.00,1.3448
5677.00,1.3445
5676.00,1.3439
5675.00,1.3433
5674.00,1.3429
5673.00,1.3427
5672.00,1.3423
5671.00,1.3418
5670.00,1.3411
5669.00,1.3404
5668.00,1.3395
5667.00,1.3386
5666.00,1.3377
5665.00,1.3369
5664.00,1.3360
5663.00,1.3350
5662.00,1.3340
5661.00,1.3329
5660.00,1.3318
5659.00,1.3306
5658.00,1.3293
5657.00,1.3281
5656.00,1.3269
5655.00,1.3257
5654.00,1.3243
5653.00,1.3227
5652.00,1.3207
5651.00,1.3185
5650.00,1.3163
5649.00,1.3144
5648.00,1.3127
5647.00,1.3111
5646.00,1.3094
5645.00,1.3075
5644.00,1.3054
5643.00,1.3033
5642.00,1.3011
5641.00,1.2989
5640.00,1.2966
5639.00,1.2939
5638.00,1.2912
5637.00,1.2884
5636.00,1.2857
5635.00,1.2830
5634.00,1.2802
5633.00,1.2775
5632.00,1.2747
5631.00,1.2718
5630.00,1.2688
5629.00,1.2658
5628.00,1.2628
5627.00,1.2596
5626.00,1.2564
5625.00,1.2530
5624.00,1.2496
5623.00,1.2461
5622.00,1.2425
5621.00,1.2387
5620.00,1.2347
5619.00,1.2307
5618.00,1.2267
5617.00,1.2229
5616.00,1.2192
5615.00,1.2155
5614.00,1.2118
5613.00,1.2080
5612.00,1.2040
5611.00,1.1999
5610.00,1.1957
5609.00,1.1914
5608.00,1.1870
5607.00,1.1824
5606.00,1.1777
5605.00,1.1729
5604.00,1.1682
5603.00,1.1633
5602.00,1.1584
5601.00,1.1534
5600.00,1.1485
5599.00,1.1435
5598.00,1.1385
5597.00,1.1335
5596.00,1.1284
5595.00,1.1233
5594.00,1.1182
5593.00,1.1129
5592.00,1.1074
5591.00,1.1019
5590.00,1.0963
5589.00,1.0907
5588.00,1.0851
5587.00,1.0793
5586.00,1.0736
5585.00,1.0677
5584.00,1.0618
5583.00,1.0558
5582.00,1.0497
5581.00,1.0437
5580.00,1.0377
5579.00,1.0317
5578.00,1.0256
5577.00,1.0193
5576.00,1.0130
5575.00,1.0066
5574.00,1.0002
5573.00,0.9938
5572.00,0.9875
5571.00,0.9811
5570.00,0.9747
5569.00,0.9682
5568.00,0.9617
5567.00,0.9551
5566.00,0.9485
5565.00,0.9419
5564.00,0.9354
5563.00,0.9289
5562.00,0.9224
5561.00,0.9158
5560.00,0.9094
5559.00,0.9030
5558.00,0.8966
5557.00,0.8902
5556.00,0.8838
5555.00,0.8774
5554.00,0.8710
5553.00,0.8645
5552.00,0.8581
5551.00,0.8517
5550.00,0.8454
5549.00,0.8391
5548.00,0.8329
5547.00,0.8267
5546.00,0.8206
5545.00,0.8147
5544.00,0.8088
5543.00,0.8031
5542.00,0.7974
5541.00,0.7918
5540.00,0.7863
5539.00,0.7810
5538.00,0.7757
5537.00,0.7705
5536.00,0.7654
5535.00,0.7605
5534.00,0.7557
5533.00,0.7511
5532.00,0.7466
5531.00,0.7423
5530.00,0.7381
5529.00,0.7342
5528.00,0.7303
5527.00,0.7266
5526.00,0.7231
5525.00,0.7198
5524.00,0.7166
5523.00,0.7136
5522.00,0.7108
5521.00,0.7083
5520.00,0.7060
5519.00,0.7038
5518.00,0.7018
5517.00,0.7001
5516.00,0.6985
5515.00,0.6972
5514.00,0.6960
5513.00,0.6951
5512.00,0.6945
5511.00,0.6940
5510.00,0.6938
5509.00,0.6938
5508.00,0.6939
5507.00,0.6942
5506.00,0.6947
5505.00,0.6954
5504.00,0.6963
5503.00,0.6974
5502.00,0.6988
5501.00,0.7005
5500.00,0.7022
5499.00,0.7042
5498.00,0.7063
5497.00,0.7086
5496.00,0.7111
5495.00,0.7137
5494.00,0.7166
5493.00,0.7197
5492.00,0.7230
5491.00,0.7265
5490.00,0.7301
5489.00,0.7340
5488.00,0.7380
5487.00,0.7421
5486.00,0.7464
5485.00,0.7509
5484.00,0.7555
5483.00,0.7602
5482.00,0.7651
5481.00,0.7701
5480.00,0.7753
5479.00,0.7805
5478.00,0.7858
5477.00,0.7912
5476.00,0.7967
5475.00,0.8024
5474.00,0.8082
5473.00,0.8141
5472.00,0.8202
5471.00,0.8264
5470.00,0.8326
5469.00,0.8389
5468.00,0.8453
5467.00,0.8517
5466.00,0.8582
5465.00,0.8647
5464.00,0.8713
5463.00,0.8778
5462.00,0.8845
5461.00,0.8911
5460.00,0.8978
5459.00,0.9045
5458.00,0.9113
5457.00,0.9181
5456.00,0.9248
5455.00,0.9315
5454.00,0.9382
5453.00,0.9448
5452.00,0.9513
5451.00,0.9579
5450.00,0.9646
5449.00,0.9714
5448.00,0.9782
5447.00,0.9850
5446.00,0.9917
5445.00,0.9983
5444.00,1.0048
5443.00,1.0113
5442.00,1.0178
5441.00,1.0244
5440.00,1.0310
5439.00,1.0376
5438.00,1.0441
5437.00,1.0506
5436.00,1.0570
5435.00,1.0633
5434.00,1.0697
5433.00,1.0760
5432.00,1.0822
5431.00,1.0882
5430.00,1.0942
5429.00,1.1001
5428.00,1.1060
5427.00,1.1118
5426.00,1.1175
5425.00,1.1232
5424.00,1.1290
5423.00,1.1348
5422.00,1.1406
5421.00,1.1463
5420.00,1.1520
5419.00,1.1575
5418.00,1.1630
5417.00,1.1683
5416.00,1.1736
5415.00,1.1787
5414.00,1.1838
5413.00,1.1888
5412.00,1.1938
5411.00,1.1987
5410.00,1.2035
5409.00,1.2083
5408.00,1.2131
5407.00,1.2179
5406.00,1.2226
5405.00,1.2275
5404.00,1.2323
5403.00,1.2371
5402.00,1.2417
5401.00,1.2461
5400.00,1.2505
5399.00,1.2548
5398.00,1.2590
5397.00,1.2631
5396.00,1.2672
5395.00,1.2711
5394.00,1.2749
5393.00,1.2787
5392.00,1.2823
5391.00,1.2859
5390.00,1.2893
5389.00,1.2927
5388.00,1.2960
5387.00,1.2994
5386.00,1.3029
5385.00,1.3065
5384.00,1.3100
5383.00,1.3133
5382.00,1.3165
5381.00,1.3196
5380.00,1.3225
5379.00,1.3253
5378.00,1.3281
5377.00,1.3308
5376.00,1.3334
5375.00,1.3359
5374.00,1.3384
5373.00,1.3411
5372.00,1.3437
5371.00,1.3463
5370.00,1.3488
5369.00,1.3511
5368.00,1.3534
5367.00,1.3556
5366.00,1.3577
5365.00,1.3598
5364.00,1.3618
5363.00,1.3637
5362.00,1.3656
5361.00,1.3675
5360.00,1.3694
5359.00,1.3712
5358.00,1.3728
5357.00,1.3741
5356.00,1.3754
5355.00,1.3765
5354.00,1.3777
5353.00,1.3788
5352.00,1.3800
5351.00,1.3811
5350.00,1.3823
5349.00,1.3836
5348.00,1.3848
5347.00,1.3858
5346.00,1.3867
5345.00,1.3874
5344.00,1.3880
5343.00,1.3883
5342.00,1.3887
5341.00,1.3892
5340.00,1.3897
5339.00,1.3902
5338.00,1.3905
5337.00,1.3907
5336.00,1.3907
5335.00,1.3907
5334.00,1.3907
5333.00,1.3907
5332.00,1.3908
5331.00,1.3910
5330.00,1.3912
5329.00,1.3912
5328.00,1.3910
5327.00,1.3906
5326.00,1.3900
5325.00,1.3894
5324.00,1.3889
5323.00,1.3885
5322.00,1.3882
5321.00,1.3880
5320.00,1.3877
5319.00,1.3874
5318.00,1.3868
5317.00,1.3859
5316.00,1.3846
5315.00,1.3831
5314.00,1.3816
5313.00,1.3800
5312.00,1.3786
5311.00,1.3773
5310.00,1.3760
5309.00,1.3748
5308.00,1.3733
5307.00,1.3718
5306.00,1.3701
5305.00,1.3684
5304.00,1.3667
5303.00,1.3649
5302.00,1.3632
5301.00,1.3615
5300.00,1.3597
5299.00,1.3577
5298.00,1.3557
5297.00,1.3537
5296.00,1.3517
5295.00,1.3494
5294.00,1.3470
5293.00,1.3445
5292.00,1.3420
5291.00,1.3393
5290.00,1.3365
5289.00,1.3337
5288.00,1.3311
5287.00,1.3284
5286.00,1.3255
5285.00,1.3226
5284.00,1.3196
5283.00,1.3164
5282.00,1.3132
5281.00,1.3100
5280.00,1.3069
5279.00,1.3038
5278.00,1.3006
5277.00,1.2972
5276.00,1.2936
5275.00,1.2899
5274.00,1.2862
5273.00,1.2824
5272.00,1.2785
5271.00,1.2745
5270.00,1.2705
5269.00,1.2664
5268.00,1.2623
5267.00,1.2581
5266.00,1.2537
5265.00,1.2492
5264.00,1.2445
5263.00,1.2398
5262.00,1.2350
5261.00,1.2304
5260.00,1.2257
5259.00,1.2210
5258.00,1.2162
5257.00,1.2113
5256.00,1.2064
5255.00,1.2014
5254.00,1.1961
5253.00,1.1908
5252.00,1.1854
5251.00,1.1800
5250.00,1.1746
5249.00,1.1692
5248.00,1.1637
5247.00,1.1581
5246.00,1.1523
5245.00,1.1464
5244.00,1.1405
5243.00,1.1346
5242.00,1.1286
5241.00,1.1225
5240.00,1.1163
5239.00,1.1100
5238.00,1.1037
5237.00,1.0974
5236.00,1.0911
5235.00,1.0847
5234.00,1.0782
5233.00,1.0717
5232.00,1.0651
5231.00,1.0584
5230.00,1.0516
5229.00,1.0448
5228.00,1.0380
5227.00,1.0311
5226.00,1.0243
5225.00,1.0174
5224.00,1.0105
5223.00,1.0034
5222.00,0.9963
5221.00,0.9891
5220.00,0.9819
5219.00,0.9746
5218.00,0.9673
5217.00,0.9600
5216.00,0.9528
5215.00,0.9456
5214.00,0.9384
5213.00,0.9313
5212.00,0.9241
5211.00,0.9170
5210.00,0.9098
5209.00,0.9027
5208.00,0.8955
5207.00,0.8883
5206.00,0.8811
5205.00,0.8739
5204.00,0.8667
5203.00,0.8596
5202.00,0.8525
5201.00,0.8456
5200.00,0.8388
5199.00,0.8321
5198.00,0.8256
5197.00,0.8192
5196.00,0.8129
5195.00,0.8066
5194.00,0.8004
5193.00,0.7943
5192.00,0.7882
5191.00,0.7823
5190.00,0.7766
5189.00,0.7710
5188.00,0.7656
5187.00,0.7604
5186.00,0.7553
5185.00,0.7504
5184.00,0.7457
5183.00,0.7411
5182.00,0.7368
5181.00,0.7326
5180.00,0.7287
5179.00,0.7249
5178.00,0.7214
5177.00,0.7182
5176.00,0.7152
5175.00,0.7124
5174.00,0.7098
5173.00,0.7075
5172.00,0.7055
5171.00,0.7036
5170.00,0.7020
5169.00,0.7007
5168.00,0.6996
5167.00,0.6988
5166.00,0.6983
5165.00,0.6981
5164.00,0.6982
5163.00,0.6984
5162.00,0.6990
5161.00,0.6998
5160.00,0.7008
5159.00,0.7021
5158.00,0.7037
5157.00,0.7055
5156.00,0.7076
5155.00,0.7100
5154.00,0.7125
5153.00,0.7154
5152.00,0.7184
5151.00,0.7217
5150.00,0.7253
5149.00,0.7290
5148.00,0.7329
5147.00,0.7370
5146.00,0.7413
5145.00,0.7458
5144.00,0.7505
5143.00,0.7554
5142.00,0.7605
5141.00,0.7657
5140.00,0.7711
5139.00,0.7765
5138.00,0.7822
5137.00,0.7880
5136.00,0.7941
5135.00,0.8003
5134.00,0.8066
5133.00,0.8130
5132.00,0.8195
5131.00,0.8260
5130.00,0.8326
5129.00,0.8394
5128.00,0.8462
5127.00,0.8532
5126.00,0.8603
5125.00,0.8675
5124.00,0.8746
5123.00,0.8818
5122.00,0.8891
5121.00,0.8965
5120.00,0.9039
5119.00,0.9114
5118.00,0.9188
5117.00,0.9262
5116.00,0.9336
5115.00,0.9410
5114.00,0.9486
5113.00,0.9561
5112.00,0.9637
5111.00,0.9713
5110.00,0.9789
5109.00,0.9865
5108.00,0.9941
5107.00,1.0017
5106.00,1.0093
5105.00,1.0168
5104.00,1.0242
5103.00,1.0316
5102.00,1.0391
5101.00,1.0465
5100.00,1.0539
5099.00,1.0612
5098.00,1.0684
5097.00,1.0755
5096.00,1.0825
5095.00,1.0895
5094.00,1.0964
5093.00,1.1033
5092.00,1.1103
5091.00,1.1173
5090.00,1.1243
5089.00,1.1312
5088.00,1.1380
5087.00,1.1446
5086.00,1.1512
5085.00,1.1576
5084.00,1.1641
5083.00,1.1705
5082.00,1.1768
5081.00,1.1831
5080.00,1.1892
5079.00,1.1952
5078.00,1.2011
5077.00,1.2069
5076.00,1.2125
5075.00,1.2181
5074.00,1.2236
5073.00,1.2291
5072.00,1.2346
5071.00,1.2401
5070.00,1.2456
5069.00,1.2511
5068.00,1.2566
5067.00,1.2619
5066.00,1.2671
5065.00,1.2722
5064.00,1.2771
5063.00,1.2820
5062.00,1.2869
5061.00,1.2917
5060.00,1.2965
5059.00,1.3012
5058.00,1.3057
5057.00,1.3101
5056.00,1.3144
5055.00,1.3186
5054.00,1.3229
5053.00,1.3271
5052.00,1.3313
5051.00,1.3354
5050.00,1.3395
5049.00,1.3434
5048.00,1.3474
5047.00,1.3512
5046.00,1.3550
5045.00,1.3587
5044.00,1.3622
5043.00,1.3657
5042.00,1.3691
5041.00,1.3726
5040.00,1.3760
5039.00,1.3795
5038.00,1.3829
5037.00,1.3861
5036.00,1.3891
5035.00,1.3919
5034.00,1.3945
5033.00,1.3970
5032.00,1.3996
5031.00,1.4022
5030.00,1.4049
5029.00,1.4076
5028.00,1.4101
5027.00,1.4125
5026.00,1.4149
5025.00,1.4174
5024.00,1.4199
5023.00,1.4224
5022.00,1.4248
5021.00,1.4272
5020.00,1.4294
5019.00,1.4314
5018.00,1.4331
5017.00,1.4348
5016.00,1.4363
5015.00,1.4377
5014.00,1.4393
5013.00,1.4410
5012.00,1.4428
5011.00,1.4445
5010.00,1.4459
5009.00,1.4470
5008.00,1.4479
5007.00,1.4487
5006.00,1.4496
5005.00,1.4507
5004.00,1.4519
5003.00,1.4531
5002.00,1.4541
5001.00,1.4550
5000.00,1.4558
4999.00,1.4566
4998.00,1.4574
4997.00,1.4582
4996.00,1.4588
4995.00,1.4591
4994.00,1.4592
4993.00,1.4592
4992.00,1.4593
4991.00,1.4596
4990.00,1.4598
4989.00,1.4600
4988.00,1.4601
4987.00,1.4600
4986.00,1.4599
4985.00,1.4597
4984.00,1.4595
4983.00,1.4593
4982.00,1.4589
4981.00,1.4584
4980.00,1.4579
4979.00,1.4572
4978.00,1.4564
4977.00,1.4555
4976.00,1.4547
4975.00,1.4540
4974.00,1.4534
4973.00,1.4527
4972.00,1.4519
4971.00,1.4509
4970.00,1.4497
4969.00,1.4484
4968.00,1.4472
4967.00,1.4459
4966.00,1.4447
4965.00,1.4434
4964.00,1.4419
4963.00,1.4404
4962.00,1.4388
4961.00,1.4370
4960.00,1.4351
4959.00,1.4330
4958.00,1.4309
4957.00,1.4287
4956.00,1.4266
4955.00,1.4245
4954.00,1.4225
4953.00,1.4203
4952.00,1.4179
4951.00,1.4153
4950.00,1.4128
4949.00,1.4103
4948.00,1.4079
4947.00,1.4055
4946.00,1.4030
4945.00,1.4002
4944.00,1.3973
4943.00,1.3942
4942.00,1.3911
4941.00,1.3881
4940.00,1.3850
4939.00,1.3819
4938.00,1.3787
4937.00,1.3754
4936.00,1.3721
4935.00,1.3686
4934.00,1.3651
4933.00,1.3616
4932.00,1.3580
4931.00,1.3543
4930.00,1.3505
4929.00,1.3467
4928.00,1.3427
4927.00,1.3386
4926.00,1.3342
4925.00,1.3297
4924.00,1.3250
4923.00,1.3204
4922.00,1.3159
4921.00,1.3115
4920.00,1.3072
4919.00,1.3028
4918.00,1.2981
4917.00,1.2932
4916.00,1.2881
4915.00,1.2830
4914.00,1.2778
4913.00,1.2727
4912.00,1.2674
4911.00,1.2622
4910.00,1.2568
4909.00,1.2514
4908.00,1.2459
4907.00,1.2401
4906.00,1.2343
4905.00,1.2283
4904.00,1.2224
4903.00,1.2165
4902.00,1.2105
4901.00,1.2046
4900.00,1.1984
4899.00,1.1920
4898.00,1.1855
4897.00,1.1789
4896.00,1.1723
4895.00,1.1657
4894.00,1.1590
4893.00,1.1523
4892.00,1.1453
4891.00,1.1383
4890.00,1.1311
4889.00,1.1239
4888.00,1.1167
4887.00,1.1095
4886.00,1.1022
4885.00,1.0948
4884.00,1.0873
4883.00,1.0797
4882.00,1.0720
4881.00,1.0643
4880.00,1.0566
4879.00,1.0488
4878.00,1.0410
4877.00,1.0332
4876.00,1.0252
4875.00,1.0173
4874.00,1.0092
4873.00,1.0011
4872.00,0.9929
4871.00,0.9847
4870.00,0.9765
4869.00,0.9683
4868.00,0.9601
4867.00,0.9518
4866.00,0.9434
4865.00,0.9351
4864.00,0.9269
4863.00,0.9187
4862.00,0.9105
4861.00,0.9024
4860.00,0.8943
4859.00,0.8862
4858.00,0.8782
4857.00,0.8702
4856.00,0.8622
4855.00,0.8544
4854.00,0.8466
4853.00,0.8389
4852.00,0.8312
4851.00,0.8236
4850.00,0.8162
4849.00,0.8089
4848.00,0.8017
4847.00,0.7946
4846.00,0.7877
4845.00,0.7809
4844.00,0.7743
4843.00,0.7679
4842.00,0.7617
4841.00,0.7557
4840.00,0.7498
4839.00,0.7442
4838.00,0.7387
4837.00,0.7335
4836.00,0.7285
4835.00,0.7238
4834.00,0.7194
4833.00,0.7152
4832.00,0.7113
4831.00,0.7077
4830.00,0.7044
4829.00,0.7014
4828.00,0.6987
4827.00,0.6963
4826.00,0.6942
4825.00,0.6924
4824.00,0.6909
4823.00,0.6897
4822.00,0.6889
4821.00,0.6883
4820.00,0.6881
4819.00,0.6882
4818.00,0.6886
4817.00,0.6894
4816.00,0.6905
4815.00,0.6919
4814.00,0.6936
4813.00,0.6957
4812.00,0.6980
4811.00,0.7006
4810.00,0.7035
4809.00,0.7068
4808.00,0.7103
4807.00,0.7141
4806.00,0.7181
4805.00,0.7224
4804.00,0.7270
4803.00,0.7317
4802.00,0.7367
4801.00,0.7420
4800.00,0.7474
4799.00,0.7532
4798.00,0.7592
4797.00,0.7653
4796.00,0.7717
4795.00,0.7782
4794.00,0.7848
4793.00,0.7916
4792.00,0.7985
4791.00,0.8056
4790.00,0.8129
4789.00,0.8203
4788.00,0.8278
4787.00,0.8355
4786.00,0.8433
4785.00,0.8512
4784.00,0.8591
4783.00,0.8671
4782.00,0.8753
4781.00,0.8835
4780.00,0.8918
4779.00,0.9001
4778.00,0.9085
4777.00,0.9169
4776.00,0.9254
4775.00,0.9338
4774.00,0.9424
4773.00,0.9510
4772.00,0.9596
4771.00,0.9682
4770.00,0.9768
4769.00,0.9853
4768.00,0.9939
4767.00,1.0024
4766.00,1.0109
4765.00,1.0193
4764.00,1.0278
4763.00,1.0362
4762.00,1.0447
4761.00,1.0532
4760.00,1.0617
4759.00,1.0701
4758.00,1.0784
4757.00,1.0867
4756.00,1.0949
4755.00,1.1031
4754.00,1.1113
4753.00,1.1193
4752.00,1.1273
4751.00,1.1352
4750.00,1.1431
4749.00,1.1509
4748.00,1.1587
4747.00,1.1664
4746.00,1.1740
4745.00,1.1816
4744.00,1.1890
4743.00,1.1962
4742.00,1.2034
4741.00,1.2105
4740.00,1.2176
4739.00,1.2246
4738.00,1.2316
4737.00,1.2385
4736.00,1.2454
4735.00,1.2521
4734.00,1.2587
4733.00,1.2653
4732.00,1.2716
4731.00,1.2779
4730.00,1.2840
4729.00,1.2900
4728.00,1.2961
4727.00,1.3021
4726.00,1.3081
4725.00,1.3139
4724.00,1.3196
4723.00,1.3254
4722.00,1.3311
4721.00,1.3368
4720.00,1.3422
4719.00,1.3475
4718.00,1.3525
4717.00,1.3576
4716.00,1.3627
4715.00,1.3679
4714.00,1.3730
4713.00,1.3779
4712.00,1.3828
4711.00,1.3876
4710.00,1.3925
4709.00,1.3972
4708.00,1.4018
4707.00,1.4060
4706.00,1.4100
4705.00,1.4140
4704.00,1.4179
4703.00,1.4219
4702.00,1.4258
4701.00,1.4298
4700.00,1.4337
4699.00,1.4377
4698.00,1.4416
4697.00,1.4455
4696.00,1.4493
4695.00,1.4529
4694.00,1.4563
4693.00,1.4598
4692.00,1.4633
4691.00,1.4666
4690.00,1.4697
4689.00,1.4726
4688.00,1.4754
4687.00,1.4783
4686.00,1.4812
4685.00,1.4841
4684.00,1.4870
4683.00,1.4897
4682.00,1.4923
4681.00,1.4949
4680.00,1.4977
4679.00,1.5004
4678.00,1.5031
4677.00,1.5056
4676.00,1.5077
4675.00,1.5096
4674.00,1.5113
4673.00,1.5130
4672.00,1.5148
4671.00,1.5165
4670.00,1.5183
4669.00,1.5200
4668.00,1.5216
4667.00,1.5232
4666.00,1.5248
4665.00,1.5266
4664.00,1.5282
4663.00,1.5297
4662.00,1.5309
4661.00,1.5320
4660.00,1.5329
4659.00,1.5337
4658.00,1.5343
4657.00,1.5351
4656.00,1.5360
4655.00,1.5370
4654.00,1.5381
4653.00,1.5390
4652.00,1.5396
4651.00,1.5400
4650.00,1.5404
4649.00,1.5407
4648.00,1.5411
4647.00,1.5414
4646.00,1.5416
4645.00,1.5416
4644.00,1.5415
4643.00,1.5414
4642.00,1.5412
4641.00,1.5411
4640.00,1.5412
4639.00,1.5414
4638.00,1.5416
4637.00,1.5416
4636.00,1.5414
4635.00,1.5410
4634.00,1.5405
4633.00,1.5399
4632.00,1.5393
4631.00,1.5384
4630.00,1.5374
4629.00,1.5363
4628.00,1.5352
4627.00,1.5343
4626.00,1.5335
4625.00,1.5327
4624.00,1.5319
4623.00,1.5308
4622.00,1.5296
4621.00,1.5282
4620.00,1.5267
4619.00,1.5253
4618.00,1.5238
4617.00,1.5223
4616.00,1.5207
4615.00,1.5191
4614.00,1.5174
4613.00,1.5156
4612.00,1.5137
4611.00,1.5117
4610.00,1.5096
4609.00,1.5074
4608.00,1.5051
4607.00,1.5027
4606.00,1.5003
4605.00,1.4979
4604.00,1.4954
4603.00,1.4929
4602.00,1.4904
4601.00,1.4879
4600.00,1.4853
4599.00,1.4824
4598.00,1.4791
4597.00,1.4757
4596.00,1.4723
4595.00,1.4690
4594.00,1.4659
4593.00,1.4629
4592.00,1.4596
4591.00,1.4560
4590.00,1.4523
4589.00,1.4486
4588.00,1.4448
4587.00,1.4410
4586.00,1.4371
4585.00,1.4331
4584.00,1.4291
4583.00,1.4250
4582.00,1.4209
4581.00,1.4166
4580.00,1.4123
4579.00,1.4079
4578.00,1.4035
4577.00,1.3990
4576.00,1.3944
4575.00,1.3895
4574.00,1.3846
4573.00,1.3794
4572.00,1.3742
4571.00,1.3688
4570.00,1.3634
4569.00,1.3580
4568.00,1.3527
4567.00,1.3473
4566.00,1.3418
4565.00,1.3362
4564.00,1.3304
4563.00,1.3245
4562.00,1.3184
4561.00,1.3123
4560.00,1.3062
4559.00,1.3000
4558.00,1.2936
4557.00,1.2871
4556.00,1.2805
4555.00,1.2738
4554.00,1.2671
4553.00,1.2603
4552.00,1.2534
4551.00,1.2464
4550.00,1.2394
4549.00,1.2322
4548.00,1.2249
4547.00,1.2173
4546.00,1.2097
4545.00,1.2020
4544.00,1.1944
4543.00,1.1868
4542.00,1.1790
4541.00,1.1711
4540.00,1.1630
4539.00,1.1547
4538.00,1.1464
4537.00,1.1381
4536.00,1.1298
4535.00,1.1213
4534.00,1.1127
4533.00,1.1040
4532.00,1.0952
4531.00,1.0864
4530.00,1.0776
4529.00,1.0687
4528.00,1.0597
4527.00,1.0506
4526.00,1.0415
4525.00,1.0323
4524.00,1.0231
4523.00,1.0138
4522.00,1.0044
4521.00,0.9951
4520.00,0.9858
4519.00,0.9765
4518.00,0.9671
4517.00,0.9577
4516.00,0.9483
4515.00,0.9389
4514.00,0.9297
4513.00,0.9204
4512.00,0.9112
4511.00,0.9020
4510.00,0.8929
4509.00,0.8838
4508.00,0.8748
4507.00,0.8658
4506.00,0.8570
4505.00,0.8483
4504.00,0.8398
4503.00,0.8313
4502.00,0.8231
4501.00,0.8150
4500.00,0.8071
4499.00,0.7995
4498.00,0.7919
4497.00,0.7846
4496.00,0.7774
4495.00,0.7705
4494.00,0.7639
4493.00,0.7576
4492.00,0.7515
4491.00,0.7458
4490.00,0.7403
4489.00,0.7351
4488.00,0.7303
4487.00,0.7259
4486.00,0.7218
4485.00,0.7181
4484.00,0.7147
4483.00,0.7117
4482.00,0.7090
4481.00,0.7068
4480.00,0.7050
4479.00,0.7036
4478.00,0.7026
4477.00,0.7020
4476.00,0.7018
4475.00,0.7020
4474.00,0.7026
4473.00,0.7036
4472.00,0.7050
4471.00,0.7068
4470.00,0.7089
4469.00,0.7115
4468.00,0.7145
4467.00,0.7179
4466.00,0.7216
4465.00,0.7257
4464.00,0.7302
4463.00,0.7349
4462.00,0.7400
4461.00,0.7454
4460.00,0.7511
4459.00,0.7571
4458.00,0.7634
4457.00,0.7699
4456.00,0.7768
4455.00,0.7839
4454.00,0.7912
4453.00,0.7988
4452.00,0.8065
4451.00,0.8144
4450.00,0.8226
4449.00,0.8309
4448.00,0.8394
4447.00,0.8481
4446.00,0.8569
4445.00,0.8659
4444.00,0.8750
4443.00,0.8842
4442.00,0.8935
4441.00,0.9030
4440.00,0.9125
4439.00,0.9221
4438.00,0.9318
4437.00,0.9416
4436.00,0.9514
4435.00,0.9613
4434.00,0.9712
4433.00,0.9810
4432.00,0.9909
4431.00,1.0009
4430.00,1.0108
4429.00,1.0207
4428.00,1.0306
4427.00,1.0405
4426.00,1.0504
4425.00,1.0603
4424.00,1.0702
4423.00,1.0800
4422.00,1.0898
4421.00,1.0996
4420.00,1.1092
4419.00,1.1188
4418.00,1.1282
4417.00,1.1377
4416.00,1.1470
4415.00,1.1563
4414.00,1.1655
4413.00,1.1746
4412.00,1.1837
4411.00,1.1926
4410.00,1.2015
4409.00,1.2103
4408.00,1.2190
4407.00,1.2277
4406.00,1.2363
4405.00,1.2448
4404.00,1.2532
4403.00,1.2613
4402.00,1.2694
4401.00,1.2774
4400.00,1.2854
4399.00,1.2933
4398.00,1.3011
4397.00,1.3089
4396.00,1.3164
4395.00,1.3238
4394.00,1.3311
4393.00,1.3383
4392.00,1.3455
4391.00,1.3525
4390.00,1.3594
4389.00,1.3663
4388.00,1.3730
4387.00,1.3796
4386.00,1.3860
4385.00,1.3922
4384.00,1.3984
4383.00,1.4046
4382.00,1.4109
4381.00,1.4171
4380.00,1.4233
4379.00,1.4292
4378.00,1.4350
4377.00,1.4406
4376.00,1.4462
4375.00,1.4516
4374.00,1.4569
4373.00,1.4620
4372.00,1.4671
4371.00,1.4720
4370.00,1.4768
4369.00,1.4816
4368.00,1.4863
4367.00,1.4908
4366.00,1.4951
4365.00,1.4994
4364.00,1.5037
4363.00,1.5081
4362.00,1.5125
4361.00,1.5168
4360.00,1.5210
4359.00,1.5251
4358.00,1.5290
4357.00,1.5329
4356.00,1.5368
4355.00,1.5405
4354.00,1.5441
4353.00,1.5476
4352.00,1.5511
4351.00,1.5545
4350.00,1.5577
4349.00,1.5609
4348.00,1.5640
4347.00,1.5671
4346.00,1.5702
4345.00,1.5733
4344.00,1.5762
4343.00,1.5790
4342.00,1.5816
4341.00,1.5843
4340.00,1.5870
4339.00,1.5900
4338.00,1.5930
4337.00,1.5958
4336.00,1.5984
4335.00,1.6007
4334.00,1.6029
4333.00,1.6051
4332.00,1.6073
4331.00,1.6095
4330.00,1.6115
4329.00,1.6133
4328.00,1.6151
4327.00,1.6169
4326.00,1.6187
4325.00,1.6206
4324.00,1.6226
4323.00,1.6246
4322.00,1.6265
4321.00,1.6283
4320.00,1.6300
4319.00,1.6314
4318.00,1.6326
4317.00,1.6338
4316.00,1.6348
4315.00,1.6357
4314.00,1.6366
4313.00,1.6374
4312.00,1.6382
4311.00,1.6392
4310.00,1.6403
4309.00,1.6413
4308.00,1.6422
4307.00,1.6428
4306.00,1.6432
4305.00,1.6436
4304.00,1.6440
4303.00,1.6444
4302.00,1.6448
4301.00,1.6451
4300.00,1.6455
4299.00,1.6457
4298.00,1.6459
4297.00,1.6459
4296.00,1.6456
4295.00,1.6452
4294.00,1.6448
4293.00,1.6444
4292.00,1.6441
4291.00,1.6438
4290.00,1.6433
4289.00,1.6428
4288.00,1.6420
4287.00,1.6412
4286.00,1.6404
4285.00,1.6396
4284.00,1.6387
4283.00,1.6377
4282.00,1.6366
4281.00,1.6356
4280.00,1.6346
4279.00,1.6337
4278.00,1.6329
4277.00,1.6320
4276.00,1.6309
4275.00,1.6297
4274.00,1.6282
4273.00,1.6265
4272.00,1.6247
4271.00,1.6228
4270.00,1.6210
4269.00,1.6191
4268.00,1.6171
4267.00,1.6149
4266.00,1.6126
4265.00,1.6102
4264.00,1.6078
4263.00,1.6055
4262.00,1.6034
4261.00,1.6013
4260.00,1.5990
4259.00,1.5965
4258.00,1.5937
4257.00,1.5907
4256.00,1.5877
4255.00,1.5847
4254.00,1.5817
4253.00,1.5786
4252.00,1.5755
4251.00,1.5721
4250.00,1.5687
4249.00,1.5651
4248.00,1.5615
4247.00,1.5579
4246.00,1.5541
4245.00,1.5502
4244.00,1.5462
4243.00,1.5422
4242.00,1.5383
4241.00,1.5344
4240.00,1.5304
4239.00,1.5261
4238.00,1.5215
4237.00,1.5167
4236.00,1.5120
4235.00,1.5073
4234.00,1.5027
4233.00,1.4979
4232.00,1.4928
4231.00,1.4877
4230.00,1.4826
4229.00,1.4776
4228.00,1.4725
4227.00,1.4673
4226.00,1.4618
4225.00,1.4564
4224.00,1.4509
4223.00,1.4454
4222.00,1.4397
4221.00,1.4338
4220.00,1.4277
4219.00,1.4217
4218.00,1.4157
4217.00,1.4097
4216.00,1.4035
4215.00,1.3971
4214.00,1.3905
4213.00,1.3839
4212.00,1.3771
4211.00,1.3701
4210.00,1.3630
4209.00,1.3558
4208.00,1.3484
4207.00,1.3409
4206.00,1.3334
4205.00,1.3258
4204.00,1.3182
4203.00,1.3104
4202.00,1.3025
4201.00,1.2944
4200.00,1.2861
4199.00,1.2776
4198.00,1.2691
4197.00,1.2606
4196.00,1.2521
4195.00,1.2434
4194.00,1.2347
4193.00,1.2258
4192.00,1.2167
4191.00,1.2075
4190.00,1.1982
4189.00,1.1889
4188.00,1.1795
4187.00,1.1701
4186.00,1.1607
4185.00,1.1511
4184.00,1.1414
4183.00,1.1317
4182.00,1.1219
4181.00,1.1120
4180.00,1.1020
4179.00,1.0920
4178.00,1.0819
4177.00,1.0718
4176.00,1.0616
4175.00,1.0514
4174.00,1.0411
4173.00,1.0308
4172.00,1.0204
4171.00,1.0100
4170.00,0.9997
4169.00,0.9894
4168.00,0.9791
4167.00,0.9690
4166.00,0.9588
4165.00,0.9486
4164.00,0.9385
4163.00,0.9285
4162.00,0.9185
4161.00,0.9087
4160.00,0.8991
4159.00,0.8896
4158.00,0.8802
4157.00,0.8710
4156.00,0.8620
4155.00,0.8531
4154.00,0.8445
4153.00,0.8362
4152.00,0.8280
4151.00,0.8201
4150.00,0.8125
4149.00,0.8051
4148.00,0.7980
4147.00,0.7912
4146.00,0.7848
4145.00,0.7786
4144.00,0.7727
4143.00,0.7672
4142.00,0.7622
4141.00,0.7575
4140.00,0.7532
4139.00,0.7494
4138.00,0.7460
4137.00,0.7430
4136.00,0.7406
4135.00,0.7386
4134.00,0.7371
4133.00,0.7361
4132.00,0.7356
4131.00,0.7356
4130.00,0.7361
4129.00,0.7371
4128.00,0.7386
4127.00,0.7405
4126.00,0.7429
4125.00,0.7457
4124.00,0.7489
4123.00,0.7526
4122.00,0.7567
4121.00,0.7612
4120.00,0.7661
4119.00,0.7713
4118.00,0.7770
4117.00,0.7830
4116.00,0.7895
4115.00,0.7963
4114.00,0.8034
4113.00,0.8108
4112.00,0.8186
4111.00,0.8267
4110.00,0.8350
4109.00,0.8437
4108.00,0.8525
4107.00,0.8616
4106.00,0.8709
4105.00,0.8804
4104.00,0.8900
4103.00,0.8998
4102.00,0.9098
4101.00,0.9200
4100.00,0.9303
4099.00,0.9407
4098.00,0.9512
4097.00,0.9619
4096.00,0.9727
4095.00,0.9835
4094.00,0.9944
4093.00,1.0053
4092.00,1.0164
4091.00,1.0275
4090.00,1.0387
4089.00,1.0498
4088.00,1.0609
4087.00,1.0719
4086.00,1.0829
4085.00,1.0939
4084.00,1.1049
4083.00,1.1158
4082.00,1.1268
4081.00,1.1376
4080.00,1.1484
4079.00,1.1592
4078.00,1.1698
4077.00,1.1803
4076.00,1.1908
4075.00,1.2011
4074.00,1.2113
4073.00,1.2215
4072.00,1.2316
4071.00,1.2416
4070.00,1.2516
4069.00,1.2615
4068.00,1.2713
4067.00,1.2810
4066.00,1.2906
4065.00,1.3001
4064.00,1.3095
4063.00,1.3188
4062.00,1.3282
4061.00,1.3375
4060.00,1.3467
4059.00,1.3557
4058.00,1.3645
4057.00,1.3731
4056.00,1.3816
4055.00,1.3900
4054.00,1.3984
4053.00,1.4067
4052.00,1.4149
4051.00,1.4231
4050.00,1.4310
4049.00,1.4387
4048.00,1.4461
4047.00,1.4533
4046.00,1.4604
4045.00,1.4675
4044.00,1.4747
4043.00,1.4819
4042.00,1.4890
4041.00,1.4959
4040.00,1.5027
4039.00,1.5093
4038.00,1.5158
4037.00,1.5220
4036.00,1.5282
4035.00,1.5342
4034.00,1.5403
4033.00,1.5463
4032.00,1.5524
4031.00,1.5583
4030.00,1.5641
4029.00,1.5698
4028.00,1.5754
4027.00,1.5811
4026.00,1.5865
4025.00,1.5918
4024.00,1.5969
4023.00,1.6021
4022.00,1.6074
4021.00,1.6127
4020.00,1.6179
4019.00,1.6227
4018.00,1.6271
4017.00,1.6314
4016.00,1.6357
4015.00,1.6400
4014.00,1.6444
4013.00,1.6488
4012.00,1.6531
4011.00,1.6573
4010.00,1.6614
4009.00,1.6654
4008.00,1.6693
4007.00,1.6731
4006.00,1.6767
4005.00,1.6802
4004.00,1.6835
4003.00,1.6868
4002.00,1.6901
4001.00,1.6935
4000.00,1.6970
3999.00,1.7003
3998.00,1.7034
3997.00,1.7063
3996.00,1.7093
3995.00,1.7122
3994.00,1.7150
3993.00,1.7178
3992.00,1.7206
3991.00,1.7233
3990.00,1.7260
3989.00,1.7287
3988.00,1.7312
3987.00,1.7337
3986.00,1.7361
3985.00,1.7382
3984.00,1.7402
3983.00,1.7418
3982.00,1.7435
3981.00,1.7451
3980.00,1.7469
3979.00,1.7489
3978.00,1.7509
3977.00,1.7530
3976.00,1.7548
3975.00,1.7563
3974.00,1.7576
3973.00,1.7589
3972.00,1.7602
3971.00,1.7616
3970.00,1.7629
3969.00,1.7641
3968.00,1.7652
3967.00,1.7660
3966.00,1.7667
3965.00,1.7673
3964.00,1.7679
3963.00,1.7688
3962.00,1.7699
3961.00,1.7710
3960.00,1.7719
3959.00,1.7726
3958.00,1.7730
3957.00,1.7731
3956.00,1.7730
3955.00,1.7727
3954.00,1.7724
3953.00,1.7722
3952.00,1.7722
3951.00,1.7722
3950.00,1.7721
3949.00,1.7720
3948.00,1.7719
3947.00,1.7718
3946.00,1.7718
3945.00,1.7715
3944.00,1.7709
3943.00,1.7701
3942.00,1.7691
3941.00,1.7682
3940.00,1.7674
3939.00,1.7667
3938.00,1.7661
3937.00,1.7654
3936.00,1.7646
3935.00,1.7636
3934.00,1.7625
3933.00,1.7613
3932.00,1.7599
3931.00,1.7581
3930.00,1.7560
3929.00,1.7539
3928.00,1.7519
3927.00,1.7500
3926.00,1.7481
3925.00,1.7461
3924.00,1.7441
3923.00,1.7421
3922.00,1.7401
3921.00,1.7381
3920.00,1.7361
3919.00,1.7338
3918.00,1.7313
3917.00,1.7286
3916.00,1.7257
3915.00,1.7228
3914.00,1.7197
3913.00,1.7167
3912.00,1.7138
3911.00,1.7110
3910.00,1.7082
3909.00,1.7054
3908.00,1.7026
3907.00,1.6998
3906.00,1.6967
3905.00,1.6932
3904.00,1.6895
3903.00,1.6856
3902.00,1.6815
3901.00,1.6770
3900.00,1.6723
3899.00,1.6676
3898.00,1.6630
3897.00,1.6588
3896.00,1.6548
3895.00,1.6509
3894.00,1.6467
3893.00,1.6423
3892.00,1.6376
3891.00,1.6329
3890.00,1.6281
3889.00,1.6232
3888.00,1.6180
3887.00,1.6125
3886.00,1.6070
3885.00,1.6016
3884.00,1.5962
3883.00,1.5906
3882.00,1.5847
3881.00,1.5786
3880.00,1.5726
3879.00,1.5666
3878.00,1.5607
3877.00,1.5545
3876.00,1.5482
3875.00,1.5419
3874.00,1.5358
3873.00,1.5296
3872.00,1.5230
3871.00,1.5158
3870.00,1.5082
3869.00,1.5006
3868.00,1.4930
3867.00,1.4853
3866.00,1.4775
3865.00,1.4697
3864.00,1.4619
3863.00,1.4538
3862.00,1.4456
3861.00,1.4373
3860.00,1.4291
3859.00,1.4212
3858.00,1.4135
3857.00,1.4058
3856.00,1.3976
3855.00,1.3886
3854.00,1.3784
3853.00,1.3673
3852.00,1.3558
3851.00,1.3444
3850.00,1.3337
3849.00,1.3238
3848.00,1.3145
3847.00,1.3055
3846.00,1.2964
3845.00,1.2868
3844.00,1.2768
3843.00,1.2663
3842.00,1.2554
3841.00,1.2441
3840.00,1.2322
3839.00,1.2200
3838.00,1.2077
3837.00,1.1952
3836.00,1.1827
3835.00,1.1703
3834.00,1.1578
3833.00,1.1455
3832.00,1.1333
3831.00,1.1213
3830.00,1.1092
3829.00,1.0969
3828.00,1.0845
3827.00,1.0720
3826.00,1.0599
3825.00,1.0480
3824.00,1.0361
3823.00,1.0237
3822.00,1.0106
3821.00,0.9974
3820.00,0.9842
3819.00,0.9712
3818.00,0.9582
3817.00,0.9452
3816.00,0.9326
3815.00,0.9204
3814.00,0.9086
3813.00,0.8969
3812.00,0.8858
3811.00,0.8754
3810.00,0.8656
3809.00,0.8560
3808.00,0.8463
3807.00,0.8365
3806.00,0.8268
3805.00,0.8174
3804.00,0.8085
3803.00,0.7999
3802.00,0.7920
3801.00,0.7848
3800.00,0.7782
3799.00,0.7719
3798.00,0.7661
3797.00,0.7614
3796.00,0.7577
3795.00,0.7548
3794.00,0.7525
3793.00,0.7507
3792.00,0.7496
3791.00,0.7493
3790.00,0.7496
3789.00,0.7506
3788.00,0.7521
3787.00,0.7542
3786.00,0.7568
3785.00,0.7600
3784.00,0.7639
3783.00,0.7683
3782.00,0.7732
3781.00,0.7786
3780.00,0.7847
3779.00,0.7914
3778.00,0.7986
3777.00,0.8061
3776.00,0.8140
3775.00,0.8225
3774.00,0.8316
3773.00,0.8411
3772.00,0.8508
3771.00,0.8609
3770.00,0.8716
3769.00,0.8827
3768.00,0.8938
3767.00,0.9049
3766.00,0.9161
3765.00,0.9279
3764.00,0.9401
3763.00,0.9522
3762.00,0.9642
3761.00,0.9764
3760.00,0.9890
3759.00,1.0020
3758.00,1.0151
3757.00,1.0282
3756.00,1.0410
3755.00,1.0532
3754.00,1.0652
3753.00,1.0772
3752.00,1.0898
3751.00,1.1033
3750.00,1.1177
3749.00,1.1324
3748.00,1.1465
3747.00,1.1592
3746.00,1.1711
3745.00,1.1836
3744.00,1.1980
3743.00,1.2129
3742.00,1.2267
3741.00,1.2393
3740.00,1.2513
3739.00,1.2632
3738.00,1.2752
3737.00,1.2872
3736.00,1.2994
3735.00,1.3117
3734.00,1.3236
3733.00,1.3353
3732.00,1.3473
3731.00,1.3594
3730.00,1.3712
3729.00,1.3824
3728.00,1.3932
3727.00,1.4040
3726.00,1.4147
3725.00,1.4254
3724.00,1.4359
3723.00,1.4464
3722.00,1.4569
3721.00,1.4675
3720.00,1.4781
3719.00,1.4885
3718.00,1.4987
3717.00,1.5088
3716.00,1.5187
3715.00,1.5280
3714.00,1.5366
3713.00,1.5450
3712.00,1.5535
3711.00,1.5624
3710.00,1.5714
3709.00,1.5802
3708.00,1.5887
3707.00,1.5970
3706.00,1.6050
3705.00,1.6129
3704.00,1.6206
3703.00,1.6281
3702.00,1.6356
3701.00,1.6434
3700.00,1.6512
3699.00,1.6590
3698.00,1.6665
3697.00,1.6738
3696.00,1.6813
3695.00,1.6887
3694.00,1.6957
3693.00,1.7023
3692.00,1.7086
3691.00,1.7144
3690.00,1.7202
3689.00,1.7263
3688.00,1.7329
3687.00,1.7394
3686.00,1.7455
3685.00,1.7514
3684.00,1.7574
3683.00,1.7634
3682.00,1.7693
3681.00,1.7751
3680.00,1.7808
3679.00,1.7862
3678.00,1.7910
3677.00,1.7954
3676.00,1.7999
3675.00,1.8049
3674.00,1.8095
3673.00,1.8134
3672.00,1.8169
3671.00,1.8207
3670.00,1.8252
3669.00,1.8303
3668.00,1.8352
3667.00,1.8394
3666.00,1.8432
3665.00,1.8470
3664.00,1.8509
3663.00,1.8548
3662.00,1.8587
3661.00,1.8626
3660.00,1.8664
3659.00,1.8698
3658.00,1.8725
3657.00,1.8750
3656.00,1.8777
3655.00,1.8806
3654.00,1.8835
3653.00,1.8864
3652.00,1.8893
3651.00,1.8920
3650.00,1.8943
3649.00,1.8962
3648.00,1.8979
3647.00,1.8996
3646.00,1.9014
3645.00,1.9033
3644.00,1.9052
3643.00,1.9069
3642.00,1.9086
3641.00,1.9105
3640.00,1.9127
3639.00,1.9150
3638.00,1.9172
3637.00,1.9193
3636.00,1.9212
3635.00,1.9227
3634.00,1.9240
3633.00,1.9251
3632.00,1.9261
3631.00,1.9266
3630.00,1.9267
3629.00,1.9267
3628.00,1.9271
3627.00,1.9274
3626.00,1.9278
3625.00,1.9285
3624.00,1.9297
3623.00,1.9310
3622.00,1.9321
3621.00,1.9329
3620.00,1.9333
3619.00,1.9333
3618.00,1.9330
3617.00,1.9327
3616.00,1.9327
3615.00,1.9332
3614.00,1.9339
3613.00,1.9348
3612.00,1.9354
3611.00,1.9357
3610.00,1.9355
3609.00,1.9348
3608.00,1.9339
3607.00,1.9328
3606.00,1.9315
3605.00,1.9302
3604.00,1.9290
3603.00,1.9280
3602.00,1.9271
3601.00,1.9263
3600.00,1.9253
3599.00,1.9239
3598.00,1.9224
3597.00,1.9210
3596.00,1.9198
3595.00,1.9185
3594.00,1.9173
3593.00,1.9162
3592.00,1.9152
3591.00,1.9139
3590.00,1.9123
3589.00,1.9103
3588.00,1.9080
3587.00,1.9056
3586.00,1.9033
3585.00,1.9009
3584.00,1.8984
3583.00,1.8956
3582.00,1.8929
3581.00,1.8902
3580.00,1.8874
3579.00,1.8841
3578.00,1.8805
3577.00,1.8768
3576.00,1.8731
3575.00,1.8697
3574.00,1.8666
3573.00,1.8638
3572.00,1.8614
3571.00,1.8589
3570.00,1.8561
3569.00,1.8528
3568.00,1.8490
3567.00,1.8448
3566.00,1.8406
3565.00,1.8367
3564.00,1.8334
3563.00,1.8307
3562.00,1.8284
3561.00,1.8260
3560.00,1.8231
3559.00,1.8197
3558.00,1.8159
3557.00,1.8120
3556.00,1.8083
3555.00,1.8047
3554.00,1.8013
3553.00,1.7978
3552.00,1.7942
3551.00,1.7903
3550.00,1.7860
3549.00,1.7818
3548.00,1.7777
3547.00,1.7735
3546.00,1.7690
3545.00,1.7642
3544.00,1.7591
3543.00,1.7538
3542.00,1.7483
3541.00,1.7426
3540.00,1.7370
3539.00,1.7315
3538.00,1.7260
3537.00,1.7203
3536.00,1.7142
3535.00,1.7077
3534.00,1.7009
3533.00,1.6941
3532.00,1.6873
3531.00,1.6803
3530.00,1.6731
3529.00,1.6658
3528.00,1.6585
3527.00,1.6512
3526.00,1.6438
3525.00,1.6363
3524.00,1.6285
3523.00,1.6206
3522.00,1.6125
3521.00,1.6042
3520.00,1.5958
3519.00,1.5873
3518.00,1.5789
3517.00,1.5704
3516.00,1.5617
3515.00,1.5527
3514.00,1.5434
3513.00,1.5341
3512.00,1.5247
3511.00,1.5151
3510.00,1.5052
3509.00,1.4950
3508.00,1.4847
3507.00,1.4744
3506.00,1.4639
3505.00,1.4533
3504.00,1.4425
3503.00,1.4315
3502.00,1.4202
3501.00,1.4088
3500.00,1.3972
3499.00,1.3855
3498.00,1.3737
3497.00,1.3618
3496.00,1.3496
3495.00,1.3373
3494.00,1.3248
3493.00,1.3122
3492.00,1.2996
3491.00,1.2868
3490.00,1.2739
3489.00,1.2610
3488.00,1.2479
3487.00,1.2348
3486.00,1.2216
3485.00,1.2084
3484.00,1.1952
3483.00,1.1819
3482.00,1.1687
3481.00,1.1554
3480.00,1.1422
3479.00,1.1290
3478.00,1.1159
3477.00,1.1030
3476.00,1.0903
3475.00,1.0776
3474.00,1.0652
3473.00,1.0529
3472.00,1.0409
3471.00,1.0291
3470.00,1.0176
3469.00,1.0066
3468.00,0.9959
3467.00,0.9856
3466.00,0.9758
3465.00,0.9666
3464.00,0.9578
3463.00,0.9496
3462.00,0.9420
3461.00,0.9350
3460.00,0.9286
3459.00,0.9229
3458.00,0.9179
3457.00,0.9137
3456.00,0.9102
3455.00,0.9076
3454.00,0.9057
3453.00,0.9047
3452.00,0.9045
3451.00,0.9052
3450.00,0.9066
3449.00,0.9088
3448.00,0.9118
3447.00,0.9155
3446.00,0.9200
3445.00,0.9251
3444.00,0.9310
3443.00,0.9376
3442.00,0.9449
3441.00,0.9530
3440.00,0.9616
3439.00,0.9708
3438.00,0.9806
3437.00,0.9909
3436.00,1.0017
3435.00,1.0131
3434.00,1.0249
3433.00,1.0372
3432.00,1.0500
3431.00,1.0632
3430.00,1.0767
3429.00,1.0905
3428.00,1.1047
3427.00,1.1190
3426.00,1.1336
3425.00,1.1484
3424.00,1.1633
3423.00,1.1782
3422.00,1.1932
3421.00,1.2082
3420.00,1.2231
3419.00,1.2379
3418.00,1.2526
3417.00,1.2670
3416.00,1.2812
3415.00,1.2951
3414.00,1.3086
3413.00,1.3216
3412.00,1.3340
3411.00,1.3459
3410.00,1.3571
3409.00,1.3677
3408.00,1.3779
3407.00,1.3876
3406.00,1.3969
3405.00,1.4058
3404.00,1.4141
3403.00,1.4221
3402.00,1.4298
3401.00,1.4373
3400.00,1.4449
3399.00,1.4526
3398.00,1.4604
3397.00,1.4685
3396.00,1.4768
3395.00,1.4853
3394.00,1.4941
3393.00,1.5032
3392.00,1.5126
3391.00,1.5223
3390.00,1.5321
3389.00,1.5420
3388.00,1.5520
3387.00,1.5621
3386.00,1.5722
3385.00,1.5824
3384.00,1.5926
3383.00,1.6028
3382.00,1.6128
3381.00,1.6227
3380.00,1.6325
3379.00,1.6422
3378.00,1.6517
3377.00,1.6610
3376.00,1.6703
3375.00,1.6796
3374.00,1.6890
3373.00,1.6983
3372.00,1.7074
3371.00,1.7162
3370.00,1.7247
3369.00,1.7330
3368.00,1.7412
3367.00,1.7494
3366.00,1.7576
3365.00,1.7658
3364.00,1.7739
3363.00,1.7819
3362.00,1.7896
3361.00,1.7971
3360.00,1.8045
3359.00,1.8117
3358.00,1.8188
3357.00,1.8256
3356.00,1.8321
3355.00,1.8383
3354.00,1.8445
3353.00,1.8508
3352.00,1.8572
3351.00,1.8637
3350.00,1.8700
3349.00,1.8763
3348.00,1.8824
3347.00,1.8884
3346.00,1.8941
3345.00,1.8995
3344.00,1.9047
3343.00,1.9100
3342.00,1.9153
3341.00,1.9207
3340.00,1.9259
3339.00,1.9310
3338.00,1.9360
3337.00,1.9406
3336.00,1.9451
3335.00,1.9492
3334.00,1.9532
3333.00,1.9570
3332.00,1.9608
3331.00,1.9644
3330.00,1.9680
3329.00,1.9718
3328.00,1.9757
3327.00,1.9796
3326.00,1.9833
3325.00,1.9868
3324.00,1.9900
3323.00,1.9929
3322.00,1.9956
3321.00,1.9982
3320.00,2.0009
3319.00,2.0039
3318.00,2.0070
3317.00,2.0103
3316.00,2.0136
3315.00,2.0169
3314.00,2.0202
3313.00,2.0235
3312.00,2.0267
3311.00,2.0301
3310.00,2.0338
3309.00,2.0377
3308.00,2.0417
3307.00,2.0454
3306.00,2.0488
3305.00,2.0515
3304.00,2.0536
3303.00,2.0552
3302.00,2.0566
3301.00,2.0581
3300.00,2.0597
3299.00,2.0615
3298.00,2.0637
3297.00,2.0662
3296.00,2.0689
3295.00,2.0714
3294.00,2.0737
3293.00,2.0759
3292.00,2.0778
3291.00,2.0792
3290.00,2.0800
3289.00,2.0806
3288.00,2.0810
3287.00,2.0815
3286.00,2.0822
3285.00,2.0830
3284.00,2.0839
3283.00,2.0849
3282.00,2.0859
3281.00,2.0871
3280.00,2.0882
3279.00,2.0888
3278.00,2.0891
3277.00,2.0895
3276.00,2.0898
3275.00,2.0899
3274.00,2.0896
3273.00,2.0894
3272.00,2.0896
3271.00,2.0898
3270.00,2.0899
3269.00,2.0896
3268.00,2.0892
3267.00,2.0888
3266.00,2.0883
3265.00,2.0880
3264.00,2.0876
3263.00,2.0867
3262.00,2.0853
3261.00,2.0838
3260.00,2.0825
3259.00,2.0815
3258.00,2.0805
3257.00,2.0795
3256.00,2.0785
3255.00,2.0775
3254.00,2.0765
3253.00,2.0753
3252.00,2.0740
3251.00,2.0726
3250.00,2.0712
3249.00,2.0698
3248.00,2.0683
3247.00,2.0665
3246.00,2.0644
3245.00,2.0622
3244.00,2.0600
3243.00,2.0576
3242.00,2.0553
3241.00,2.0531
3240.00,2.0510
3239.00,2.0488
3238.00,2.0463
3237.00,2.0435
3236.00,2.0405
3235.00,2.0375
3234.00,2.0345
3233.00,2.0315
3232.00,2.0286
3231.00,2.0256
3230.00,2.0223
3229.00,2.0188
3228.00,2.0150
3227.00,2.0112
3226.00,2.0073
3225.00,2.0036
3224.00,1.9997
3223.00,1.9956
3222.00,1.9912
3221.00,1.9868
3220.00,1.9826
3219.00,1.9783
3218.00,1.9740
3217.00,1.9695
3216.00,1.9647
3215.00,1.9597
3214.00,1.9545
3213.00,1.9493
3212.00,1.9442
3211.00,1.9389
3210.00,1.9335
3209.00,1.9281
3208.00,1.9227
3207.00,1.9172
3206.00,1.9115
3205.00,1.9057
3204.00,1.8995
3203.00,1.8932
3202.00,1.8866
3201.00,1.8798
3200.00,1.8729
3199.00,1.8657
3198.00,1.8584
3197.00,1.8512
3196.00,1.8441
3195.00,1.8371
3194.00,1.8299
3193.00,1.8224
3192.00,1.8145
3191.00,1.8063
3190.00,1.7981
3189.00,1.7897
3188.00,1.7813
3187.00,1.7725
3186.00,1.7635
3185.00,1.7544
3184.00,1.7451
3183.00,1.7356
3182.00,1.7258
3181.00,1.7160
3180.00,1.7061
3179.00,1.6960
3178.00,1.6857
3177.00,1.6752
3176.00,1.6643
3175.00,1.6534
3174.00,1.6424
3173.00,1.6313
3172.00,1.6201
3171.00,1.6086
3170.00,1.5967
3169.00,1.5845
3168.00,1.5719
3167.00,1.5592
3166.00,1.5461
3165.00,1.5328
3164.00,1.5193
3163.00,1.5057
3162.00,1.4918
3161.00,1.4778
3160.00,1.4636
3159.00,1.4491
3158.00,1.4343
3157.00,1.4193
3156.00,1.4041
3155.00,1.3888
3154.00,1.3733
3153.00,1.3577
3152.00,1.3418
3151.00,1.3258
3150.00,1.3096
3149.00,1.2934
3148.00,1.2771
3147.00,1.2608
3146.00,1.2445
3145.00,1.2281
3144.00,1.2116
3143.00,1.1952
3142.00,1.1789
3141.00,1.1626
3140.00,1.1465
3139.00,1.1305
3138.00,1.1148
3137.00,1.0995
3136.00,1.0844
3135.00,1.0698
3134.00,1.0556
3133.00,1.0419
3132.00,1.0287
3131.00,1.0161
3130.00,1.0042
3129.00,0.9930
3128.00,0.9827
3127.00,0.9733
3126.00,0.9647
3125.00,0.9571
3124.00,0.9505
3123.00,0.9449
3122.00,0.9404
3121.00,0.9370
3120.00,0.9348
3119.00,0.9338
3118.00,0.9339
3117.00,0.9353
3116.00,0.9378
3115.00,0.9415
3114.00,0.9464
3113.00,0.9525
3112.00,0.9596
3111.00,0.9677
3110.00,0.9768
3109.00,0.9868
3108.00,0.9976
3107.00,1.0094
3106.00,1.0219
3105.00,1.0351
3104.00,1.0490
3103.00,1.0635
3102.00,1.0785
3101.00,1.0941
3100.00,1.1102
3099.00,1.1268
3098.00,1.1437
3097.00,1.1610
3096.00,1.1786
3095.00,1.1965
3094.00,1.2146
3093.00,1.2330
3092.00,1.2516
3091.00,1.2702
3090.00,1.2889
3089.00,1.3077
3088.00,1.3264
3087.00,1.3452
3086.00,1.3638
3085.00,1.3823
3084.00,1.4006
3083.00,1.4187
3082.00,1.4367
3081.00,1.4545
3080.00,1.4722
3079.00,1.4897
3078.00,1.5070
3077.00,1.5242
3076.00,1.5411
3075.00,1.5578
3074.00,1.5742
3073.00,1.5903
3072.00,1.6062
3071.00,1.6219
3070.00,1.6372
3069.00,1.6524
3068.00,1.6673
3067.00,1.6820
3066.00,1.6964
3065.00,1.7104
3064.00,1.7241
3063.00,1.7375
3062.00,1.7506
3061.00,1.7634
3060.00,1.7761
3059.00,1.7885
3058.00,1.8008
3057.00,1.8131
3056.00,1.8253
3055.00,1.8372
3054.00,1.8488
3053.00,1.8599
3052.00,1.8709
3051.00,1.8817
3050.00,1.8924
3049.00,1.9029
3048.00,1.9133
3047.00,1.9234
3046.00,1.9336
3045.00,1.9437
3044.00,1.9540
3043.00,1.9641
3042.00,1.9738
3041.00,1.9831
3040.00,1.9922
3039.00,2.0013
3038.00,2.0103
3037.00,2.0192
3036.00,2.0280
3035.00,2.0366
3034.00,2.0449
3033.00,2.0530
3032.00,2.0610
3031.00,2.0688
3030.00,2.0765
3029.00,2.0841
3028.00,2.0916
3027.00,2.0990
3026.00,2.1062
3025.00,2.1130
3024.00,2.1196
3023.00,2.1260
3022.00,2.1325
3021.00,2.1391
3020.00,2.1456
3019.00,2.1518
3018.00,2.1577
3017.00,2.1637
3016.00,2.1698
3015.00,2.1761
3014.00,2.1822
3013.00,2.1879
3012.00,2.1930
3011.00,2.1976
3010.00,2.2019
3009.00,2.2061
3008.00,2.2103
3007.00,2.2147
3006.00,2.2192
3005.00,2.2239
3004.00,2.2286
3003.00,2.2334
3002.00,2.2378
3001.00,2.2414
3000.00,2.2442
2999.00,2.2467
2998.00,2.2494
2997.00,2.2523
2996.00,2.2552
2995.00,2.2577
2994.00,2.2598
2993.00,2.2617
2992.00,2.2633
2991.00,2.2648
2990.00,2.2663
2989.00,2.2677
2988.00,2.2690
2987.00,2.2702
2986.00,2.2716
2985.00,2.2728
2984.00,2.2733
2983.00,2.2729
2982.00,2.2719
2981.00,2.2709
2980.00,2.2700
2979.00,2.2693
2978.00,2.2694
2977.00,2.2709
2976.00,2.2739
2975.00,2.2784
2974.00,2.2844
2973.00,2.2925
2972.00,2.3029
2971.00,2.3159
2970.00,2.3317
2969.00,2.3509
2968.00,2.3741
2967.00,2.4013
2966.00,2.4316
2965.00,2.4645
2964.00,2.4995
2963.00,2.5363
2962.00,2.5741
2961.00,2.6121
2960.00,2.6496
2959.00,2.6864
2958.00,2.7227
2957.00,2.7576
2956.00,2.7899
2955.00,2.8194
2954.00,2.8476
2953.00,2.8760
2952.00,2.9038
2951.00,2.9289
2950.00,2.9517
2949.00,2.9759
2948.00,3.0049
2947.00,3.0382
2946.00,3.0715
2945.00,3.1016
2944.00,3.1286
2943.00,3.1542
2942.00,3.1789
2941.00,3.2018
2940.00,3.2229
2939.00,3.2429
2938.00,3.2593
2937.00,3.2666
2936.00,3.2617
2935.00,3.2491
2934.00,3.2349
2933.00,3.2185
2932.00,3.1927
2931.00,3.1526
2930.00,3.1021
2929.00,3.0498
2928.00,3.0014
2927.00,2.9572
2926.00,2.9143
2925.00,2.8710
2924.00,2.8278
2923.00,2.7863
2922.00,2.7471
2921.00,2.7098
2920.00,2.6739
2919.00,2.6400
2918.00,2.6094
2917.00,2.5823
2916.00,2.5588
2915.00,2.5389
2914.00,2.5228
2913.00,2.5100
2912.00,2.4995
2911.00,2.4906
2910.00,2.4831
2909.00,2.4775
2908.00,2.4736
2907.00,2.4707
2906.00,2.4681
2905.00,2.4654
2904.00,2.4627
2903.00,2.4602
2902.00,2.4579
2901.00,2.4558
2900.00,2.4534
2899.00,2.4506
2898.00,2.4480
2897.00,2.4461
2896.00,2.4448
2895.00,2.4436
2894.00,2.4420
2893.00,2.4400
2892.00,2.4377
2891.00,2.4354
2890.00,2.4331
2889.00,2.4308
2888.00,2.4282
2887.00,2.4260
2886.00,2.4250
2885.00,2.4256
2884.00,2.4273
2883.00,2.4294
2882.00,2.4316
2881.00,2.4342
2880.00,2.4372
2879.00,2.4409
2878.00,2.4454
2877.00,2.4513
2876.00,2.4590
2875.00,2.4686
2874.00,2.4802
2873.00,2.4942
2872.00,2.5110
2871.00,2.5309
2870.00,2.5540
2869.00,2.5800
2868.00,2.6081
2867.00,2.6374
2866.00,2.6662
2865.00,2.6922
2864.00,2.7124
2863.00,2.7249
2862.00,2.7289
2861.00,2.7243
2860.00,2.7113
2859.00,2.6912
2858.00,2.6668
2857.00,2.6404
2856.00,2.6132
2855.00,2.5855
2854.00,2.5578
2853.00,2.5311
2852.00,2.5063
2851.00,2.4843
2850.00,2.4654
2849.00,2.4492
2848.00,2.4346
2847.00,2.4215
2846.00,2.4102
2845.00,2.4011
2844.00,2.3937
2843.00,2.3869
2842.00,2.3802
2841.00,2.3737
2840.00,2.3675
2839.00,2.3613
2838.00,2.3551
2837.00,2.3494
2836.00,2.3442
2835.00,2.3395
2834.00,2.3346
2833.00,2.3293
2832.00,2.3238
2831.00,2.3185
2830.00,2.3135
2829.00,2.3088
2828.00,2.3039
2827.00,2.2989
2826.00,2.2938
2825.00,2.2890
2824.00,2.2844
2823.00,2.2796
2822.00,2.2743
2821.00,2.2680
2820.00,2.2607
2819.00,2.2525
2818.00,2.2440
2817.00,2.2355
2816.00,2.2271
2815.00,2.2187
2814.00,2.2103
2813.00,2.2021
2812.00,2.1941
2811.00,2.1857
2810.00,2.1769
2809.00,2.1680
2808.00,2.1591
2807.00,2.1500
2806.00,2.1403
2805.00,2.1298
2804.00,2.1192
2803.00,2.1088
2802.00,2.0987
2801.00,2.0889
2800.00,2.0791
2799.00,2.0691
2798.00,2.0592
2797.00,2.0494
2796.00,2.0397
2795.00,2.0299
2794.00,2.0200
2793.00,2.0094
2792.00,1.9980
2791.00,1.9857
2790.00,1.9728
2789.00,1.9595
2788.00,1.9460
2787.00,1.9323
2786.00,1.9183
2785.00,1.9041
2784.00,1.8897
2783.00,1.8749
2782.00,1.8598
2781.00,1.8444
2780.00,1.8288
2779.00,1.8131
2778.00,1.7972
2777.00,1.7810
2776.00,1.7646
2775.00,1.7478
2774.00,1.7308
2773.00,1.7134
2772.00,1.6954
2771.00,1.6768
2770.00,1.6581
2769.00,1.6393
2768.00,1.6203
2767.00,1.6011
2766.00,1.5816
2765.00,1.5618
2764.00,1.5419
2763.00,1.5218
2762.00,1.5016
2761.00,1.4811
2760.00,1.4602
2759.00,1.4389
2758.00,1.4171
2757.00,1.3948
2756.00,1.3720
2755.00,1.3487
2754.00,1.3252
2753.00,1.3017
2752.00,1.2782
2751.00,1.2550
2750.00,1.2322
2749.00,1.2099
2748.00,1.1883
2747.00,1.1674
2746.00,1.1473
2745.00,1.1283
2744.00,1.1103
2743.00,1.0936
2742.00,1.0783
2741.00,1.0644
2740.00,1.0522
2739.00,1.0416
2738.00,1.0327
2737.00,1.0257
2736.00,1.0206
2735.00,1.0172
2734.00,1.0156
2733.00,1.0157
2732.00,1.0175
2731.00,1.0210
2730.00,1.0262
2729.00,1.0329
2728.00,1.0412
2727.00,1.0509
2726.00,1.0621
2725.00,1.0747
2724.00,1.0887
2723.00,1.1040
2722.00,1.1206
2721.00,1.1381
2720.00,1.1567
2719.00,1.1760
2718.00,1.1960
2717.00,1.2165
2716.00,1.2375
2715.00,1.2587
2714.00,1.2802
2713.00,1.3018
2712.00,1.3237
2711.00,1.3457
2710.00,1.3678
2709.00,1.3900
2708.00,1.4123
2707.00,1.4345
2706.00,1.4566
2705.00,1.4787
2704.00,1.5006
2703.00,1.5224
2702.00,1.5438
2701.00,1.5649
2700.00,1.5857
2699.00,1.6062
2698.00,1.6265
2697.00,1.6465
2696.00,1.6661
2695.00,1.6852
2694.00,1.7040
2693.00,1.7225
2692.00,1.7408
2691.00,1.7587
2690.00,1.7763
2689.00,1.7936
2688.00,1.8109
2687.00,1.8280
2686.00,1.8449
2685.00,1.8614
2684.00,1.8774
2683.00,1.8931
2682.00,1.9085
2681.00,1.9234
2680.00,1.9376
2679.00,1.9507
2678.00,1.9628
2677.00,1.9742
2676.00,1.9851
2675.00,1.9958
2674.00,2.0058
2673.00,2.0151
2672.00,2.0239
2671.00,2.0325
2670.00,2.0412
2669.00,2.0499
2668.00,2.0585
2667.00,2.0666
2666.00,2.0744
2665.00,2.0823
2664.00,2.0904
2663.00,2.0986
2662.00,2.1070
2661.00,2.1157
2660.00,2.1250
2659.00,2.1346
2658.00,2.1443
2657.00,2.1538
2656.00,2.1631
2655.00,2.1723
2654.00,2.1812
2653.00,2.1898
2652.00,2.1978
2651.00,2.2056
2650.00,2.2133
2649.00,2.2211
2648.00,2.2287
2647.00,2.2359
2646.00,2.2429
2645.00,2.2501
2644.00,2.2574
2643.00,2.2646
2642.00,2.2713
2641.00,2.2776
2640.00,2.2836
2639.00,2.2897
2638.00,2.2960
2637.00,2.3026
2636.00,2.3094
2635.00,2.3161
2634.00,2.3223
2633.00,2.3282
2632.00,2.3339
2631.00,2.3395
2630.00,2.3449
2629.00,2.3501
2628.00,2.3553
2627.00,2.3605
2626.00,2.3658
2625.00,2.3711
2624.00,2.3765
2623.00,2.3817
2622.00,2.3868
2621.00,2.3920
2620.00,2.3975
2619.00,2.4029
2618.00,2.4077
2617.00,2.4117
2616.00,2.4149
2615.00,2.4179
2614.00,2.4213
2613.00,2.4251
2612.00,2.4290
2611.00,2.4326
2610.00,2.4357
2609.00,2.4385
2608.00,2.4411
2607.00,2.4441
2606.00,2.4475
2605.00,2.4511
2604.00,2.4543
2603.00,2.4569
2602.00,2.4591
2601.00,2.4616
2600.00,2.4644
2599.00,2.4674
2598.00,2.4702
2597.00,2.4725
2596.00,2.4740
2595.00,2.4753
2594.00,2.4774
2593.00,2.4810
2592.00,2.4852
2591.00,2.4888
2590.00,2.4909
2589.00,2.4920
2588.00,2.4930
2587.00,2.4942
2586.00,2.4956
2585.00,2.4970
2584.00,2.4983
2583.00,2.4993
2582.00,2.5004
2581.00,2.5017
2580.00,2.5033
2579.00,2.5051
2578.00,2.5068
2577.00,2.5087
2576.00,2.5105
2575.00,2.5118
2574.00,2.5126
2573.00,2.5131
2572.00,2.5138
2571.00,2.5145
2570.00,2.5146
2569.00,2.5142
2568.00,2.5139
2567.00,2.5141
2566.00,2.5149
2565.00,2.5160
2564.00,2.5171
2563.00,2.5175
2562.00,2.5167
2561.00,2.5151
2560.00,2.5136
2559.00,2.5125
2558.00,2.5116
2557.00,2.5107
2556.00,2.5101
2555.00,2.5101
2554.00,2.5102
2553.00,2.5097
2552.00,2.5084
2551.00,2.5070
2550.00,2.5060
2549.00,2.5053
2548.00,2.5045
2547.00,2.5035
2546.00,2.5024
2545.00,2.5013
2544.00,2.4997
2543.00,2.4980
2542.00,2.4964
2541.00,2.4951
2540.00,2.4940
2539.00,2.4929
2538.00,2.4916
2537.00,2.4901
2536.00,2.4882
2535.00,2.4857
2534.00,2.4829
2533.00,2.4803
2532.00,2.4777
2531.00,2.4750
2530.00,2.4722
2529.00,2.4694
2528.00,2.4668
2527.00,2.4642
2526.00,2.4615
2525.00,2.4586
2524.00,2.4551
2523.00,2.4512
2522.00,2.4473
2521.00,2.4438
2520.00,2.4406
2519.00,2.4373
2518.00,2.4335
2517.00,2.4295
2516.00,2.4254
2515.00,2.4212
2514.00,2.4170
2513.00,2.4130
2512.00,2.4087
2511.00,2.4039
2510.00,2.3984
2509.00,2.3931
2508.00,2.3886
2507.00,2.3851
2506.00,2.3815
2505.00,2.3769
2504.00,2.3710
2503.00,2.3642
2502.00,2.3576
2501.00,2.3515
2500.00,2.3459
2499.00,2.3402
2498.00,2.3343
2497.00,2.3282
2496.00,2.3220
2495.00,2.3155
2494.00,2.3086
2493.00,2.3014
2492.00,2.2942
2491.00,2.2873
2490.00,2.2804
2489.00,2.2735
2488.00,2.2663
2487.00,2.2590
2486.00,2.2515
2485.00,2.2439
2484.00,2.2360
2483.00,2.2278
2482.00,2.2194
2481.00,2.2105
2480.00,2.2014
2479.00,2.1922
2478.00,2.1833
2477.00,2.1747
2476.00,2.1659
2475.00,2.1566
2474.00,2.1468
2473.00,2.1366
2472.00,2.1263
2471.00,2.1158
2470.00,2.1052
2469.00,2.0943
2468.00,2.0831
2467.00,2.0718
2466.00,2.0603
2465.00,2.0488
2464.00,2.0371
2463.00,2.0253
2462.00,2.0133
2461.00,2.0010
2460.00,1.9883
2459.00,1.9751
2458.00,1.9616
2457.00,1.9476
2456.00,1.9334
2455.00,1.9188
2454.00,1.9040
2453.00,1.8888
2452.00,1.8733
2451.00,1.8572
2450.00,1.8408
2449.00,1.8240
2448.00,1.8071
2447.00,1.7900
2446.00,1.7726
2445.00,1.7548
2444.00,1.7365
2443.00,1.7175
2442.00,1.6980
2441.00,1.6781
2440.00,1.6579
2439.00,1.6374
2438.00,1.6165
2437.00,1.5953
2436.00,1.5738
2435.00,1.5521
2434.00,1.5302
2433.00,1.5083
2432.00,1.4863
2431.00,1.4644
2430.00,1.4427
2429.00,1.4212
2428.00,1.3999
2427.00,1.3789
2426.00,1.3581
2425.00,1.3375
2424.00,1.3171
2423.00,1.2972
2422.00,1.2776
2421.00,1.2586
2420.00,1.2402
2419.00,1.2225
2418.00,1.2056
2417.00,1.1895
2416.00,1.1744
2415.00,1.1604
2414.00,1.1477
2413.00,1.1366
2412.00,1.1273
2411.00,1.1198
2410.00,1.1143
2409.00,1.1108
2408.00,1.1092
2407.00,1.1096
2406.00,1.1119
2405.00,1.1162
2404.00,1.1225
2403.00,1.1308
2402.00,1.1408
2401.00,1.1526
2400.00,1.1661
2399.00,1.1810
2398.00,1.1973
2397.00,1.2148
2396.00,1.2334
2395.00,1.2529
2394.00,1.2732
2393.00,1.2943
2392.00,1.3160
2391.00,1.3382
2390.00,1.3608
2389.00,1.3838
2388.00,1.4069
2387.00,1.4302
2386.00,1.4534
2385.00,1.4763
2384.00,1.4988
2383.00,1.5206
2382.00,1.5417
2381.00,1.5620
2380.00,1.5814
2379.00,1.6001
2378.00,1.6179
2377.00,1.6352
2376.00,1.6521
2375.00,1.6690
2374.00,1.6860
2373.00,1.7032
2372.00,1.7206
2371.00,1.7382
2370.00,1.7559
2369.00,1.7736
2368.00,1.7913
2367.00,1.8089
2366.00,1.8263
2365.00,1.8432
2364.00,1.8595
2363.00,1.8753
2362.00,1.8901
2361.00,1.9044
2360.00,1.9188
2359.00,1.9338
2358.00,1.9494
2357.00,1.9653
2356.00,1.9812
2355.00,1.9974
2354.00,2.0140
2353.00,2.0315
2352.00,2.0497
2351.00,2.0672
2350.00,2.0816
2349.00,2.0914
2348.00,2.0991
2347.00,2.1080
2346.00,2.1204
2345.00,2.1347
2344.00,2.1483
2343.00,2.1602
2342.00,2.1713
2341.00,2.1836
2340.00,2.1966
2339.00,2.2094
2338.00,2.2217
2337.00,2.2336
2336.00,2.2452
2335.00,2.2563
2334.00,2.2668
2333.00,2.2772
2332.00,2.2873
2331.00,2.2974
2330.00,2.3077
2329.00,2.3178
2328.00,2.3277
2327.00,2.3366
2326.00,2.3448
2325.00,2.3526
2324.00,2.3610
2323.00,2.3702
2322.00,2.3797
2321.00,2.3894
2320.00,2.3990
2319.00,2.4085
2318.00,2.4178
2317.00,2.4266
2316.00,2.4355
2315.00,2.4449
2314.00,2.4549
2313.00,2.4649
2312.00,2.4741
2311.00,2.4821
2310.00,2.4894
2309.00,2.4965
2308.00,2.5039
2307.00,2.5117
2306.00,2.5199
2305.00,2.5281
2304.00,2.5356
2303.00,2.5424
2302.00,2.5489
2301.00,2.5558
2300.00,2.5628
2299.00,2.5692
2298.00,2.5745
2297.00,2.5789
2296.00,2.5828
2295.00,2.5871
2294.00,2.5922
2293.00,2.5984
2292.00,2.6052
2291.00,2.6116
2290.00,2.6169
2289.00,2.6213
2288.00,2.6253
2287.00,2.6293
2286.00,2.6339
2285.00,2.6392
2284.00,2.6445
2283.00,2.6492
2282.00,2.6530
2281.00,2.6560
2280.00,2.6584
2279.00,2.6606
2278.00,2.6632
2277.00,2.6667
2276.00,2.6710
2275.00,2.6749
2274.00,2.6780
2273.00,2.6804
2272.00,2.6827
2271.00,2.6855
2270.00,2.6887
2269.00,2.6920
2268.00,2.6954
2267.00,2.6986
2266.00,2.7018
2265.00,2.7048
2264.00,2.7074
2263.00,2.7094
2262.00,2.7109
2261.00,2.7127
2260.00,2.7152
2259.00,2.7184
2258.00,2.7214
2257.00,2.7234
2256.00,2.7250
2255.00,2.7269
2254.00,2.7298
2253.00,2.7329
2252.00,2.7354
2251.00,2.7370
2250.00,2.7382
2249.00,2.7396
2248.00,2.7411
2247.00,2.7421
2246.00,2.7424
2245.00,2.7426
2244.00,2.7430
2243.00,2.7437
2242.00,2.7443
2241.00,2.7446
2240.00,2.7450
2239.00,2.7457
2238.00,2.7468
2237.00,2.7476
2236.00,2.7481
2235.00,2.7485
2234.00,2.7497
2233.00,2.7516
2232.00,2.7532
2231.00,2.7535
2230.00,2.7524
2229.00,2.7511
2228.00,2.7502
2227.00,2.7498
2226.00,2.7493
2225.00,2.7483
2224.00,2.7469
2223.00,2.7458
2222.00,2.7449
2221.00,2.7443
2220.00,2.7437
2219.00,2.7434
2218.00,2.7435
2217.00,2.7438
2216.00,2.7439
2215.00,2.7436
2214.00,2.7428
2213.00,2.7419
2212.00,2.7411
2211.00,2.7403
2210.00,2.7391
2209.00,2.7370
2208.00,2.7344
2207.00,2.7318
2206.00,2.7299
2205.00,2.7280
2204.00,2.7256
2203.00,2.7228
2202.00,2.7202
2201.00,2.7180
2200.00,2.7159
2199.00,2.7135
2198.00,2.7105
2197.00,2.7071
2196.00,2.7037
2195.00,2.7007
2194.00,2.6983
2193.00,2.6961
2192.00,2.6935
2191.00,2.6902
2190.00,2.6869
2189.00,2.6841
2188.00,2.6817
2187.00,2.6789
2186.00,2.6751
2185.00,2.6703
2184.00,2.6651
2183.00,2.6601
2182.00,2.6560
2181.00,2.6528
2180.00,2.6501
2179.00,2.6472
2178.00,2.6435
2177.00,2.6392
2176.00,2.6342
2175.00,2.6289
2174.00,2.6239
2173.00,2.6195
2172.00,2.6158
2171.00,2.6123
2170.00,2.6086
2169.00,2.6041
2168.00,2.5987
2167.00,2.5926
2166.00,2.5862
2165.00,2.5796
2164.00,2.5734
2163.00,2.5677
2162.00,2.5628
2161.00,2.5582
2160.00,2.5528
2159.00,2.5463
2158.00,2.5389
2157.00,2.5316
2156.00,2.5244
2155.00,2.5170
2154.00,2.5091
2153.00,2.5007
2152.00,2.4921
2151.00,2.4835
2150.00,2.4751
2149.00,2.4670
2148.00,2.4591
2147.00,2.4511
2146.00,2.4427
2145.00,2.4339
2144.00,2.4247
2143.00,2.4155
2142.00,2.4061
2141.00,2.3963
2140.00,2.3862
2139.00,2.3760
2138.00,2.3657
2137.00,2.3552
2136.00,2.3443
2135.00,2.3332
2134.00,2.3221
2133.00,2.3112
2132.00,2.3005
2131.00,2.2895
2130.00,2.2780
2129.00,2.2658
2128.00,2.2532
2127.00,2.2403
2126.00,2.2270
2125.00,2.2133
2124.00,2.1993
2123.00,2.1851
2122.00,2.1705
2121.00,2.1554
2120.00,2.1395
2119.00,2.1230
2118.00,2.1060
2117.00,2.0889
2116.00,2.0719
2115.00,2.0547
2114.00,2.0373
2113.00,2.0195
2112.00,2.0012
2111.00,1.9825
2110.00,1.9633
2109.00,1.9436
2108.00,1.9232
2107.00,1.9022
2106.00,1.8809
2105.00,1.8592
2104.00,1.8372
2103.00,1.8148
2102.00,1.7919
2101.00,1.7689
2100.00,1.7458
2099.00,1.7226
2098.00,1.6993
2097.00,1.6758
2096.00,1.6522
2095.00,1.6284
2094.00,1.6044
2093.00,1.5803
2092.00,1.5562
2091.00,1.5321
2090.00,1.5079
2089.00,1.4839
2088.00,1.4602
2087.00,1.4369
2086.00,1.4142
2085.00,1.3923
2084.00,1.3713
2083.00,1.3516
2082.00,1.3333
2081.00,1.3170
2080.00,1.3028
2079.00,1.2912
2078.00,1.2823
2077.00,1.2763
2076.00,1.2735
2075.00,1.2737
2074.00,1.2770
2073.00,1.2833
2072.00,1.2925
2071.00,1.3043
2070.00,1.3185
2069.00,1.3347
2068.00,1.3525
2067.00,1.3715
2066.00,1.3914
2065.00,1.4119
2064.00,1.4326
2063.00,1.4531
2062.00,1.4734
2061.00,1.4934
2060.00,1.5133
2059.00,1.5332
2058.00,1.5533
2057.00,1.5740
2056.00,1.5955
2055.00,1.6178
2054.00,1.6409
2053.00,1.6648
2052.00,1.6893
2051.00,1.7142
2050.00,1.7394
2049.00,1.7647
2048.00,1.7902
2047.00,1.8158
2046.00,1.8412
2045.00,1.8663
2044.00,1.8910
2043.00,1.9152
2042.00,1.9391
2041.00,1.9628
2040.00,1.9861
2039.00,2.0087
2038.00,2.0307
2037.00,2.0523
2036.00,2.0735
2035.00,2.0942
2034.00,2.1143
2033.00,2.1338
2032.00,2.1530
2031.00,2.1716
2030.00,2.1897
2029.00,2.2073
2028.00,2.2246
2027.00,2.2415
2026.00,2.2581
2025.00,2.2744
2024.00,2.2905
2023.00,2.3066
2022.00,2.3224
2021.00,2.3374
2020.00,2.3514
2019.00,2.3645
2018.00,2.3775
2017.00,2.3907
2016.00,2.4041
2015.00,2.4175
2014.00,2.4312
2013.00,2.4448
2012.00,2.4583
2011.00,2.4710
2010.00,2.4831
2009.00,2.4945
2008.00,2.5056
2007.00,2.5165
2006.00,2.5275
2005.00,2.5382
2004.00,2.5484
2003.00,2.5582
2002.00,2.5681
2001.00,2.5782
2000.00,2.5885
1999.00,2.5986
1998.00,2.6087
1997.00,2.6188
1996.00,2.6288
1995.00,2.6381
1994.00,2.6466
1993.00,2.6547
1992.00,2.6633
1991.00,2.6727
1990.00,2.6824
1989.00,2.6915
1988.00,2.6994
1987.00,2.7063
1986.00,2.7130
1985.00,2.7204
1984.00,2.7292
1983.00,2.7385
1982.00,2.7475
1981.00,2.7555
1980.00,2.7627
1979.00,2.7693
1978.00,2.7751
1977.00,2.7797
1976.00,2.7838
1975.00,2.7884
1974.00,2.7940
1973.00,2.7999
1972.00,2.8062
1971.00,2.8134
1970.00,2.8218
1969.00,2.8300
1968.00,2.8364
1967.00,2.8409
1966.00,2.8445
1965.00,2.8482
1964.00,2.8528
1963.00,2.8588
1962.00,2.8660
1961.00,2.8731
1960.00,2.8786
1959.00,2.8821
1958.00,2.8844
1957.00,2.8866
1956.00,2.8898
1955.00,2.8944
1954.00,2.9000
1953.00,2.9054
1952.00,2.9096
1951.00,2.9136
1950.00,2.9181
1949.00,2.9229
1948.00,2.9265
1947.00,2.9279
1946.00,2.9279
1945.00,2.9286
1944.00,2.9318
1943.00,2.9372
1942.00,2.9427
1941.00,2.9462
1940.00,2.9483
1939.00,2.9509
1938.00,2.9551
1937.00,2.9590
1936.00,2.9603
1935.00,2.9598
1934.00,2.9602
1933.00,2.9632
1932.00,2.9677
1931.00,2.9709
1930.00,2.9716
1929.00,2.9715
1928.00,2.9722
1927.00,2.9739
1926.00,2.9749
1925.00,2.9746
1924.00,2.9739
1923.00,2.9737
1922.00,2.9745
1921.00,2.9767
1920.00,2.9811
1919.00,2.9868
1918.00,2.9902
1917.00,2.9893
1916.00,2.9865
1915.00,2.9862
1914.00,2.9895
1913.00,2.9937
1912.00,2.9970
1911.00,3.0002
1910.00,3.0036
1909.00,3.0057
1908.00,3.0048
1907.00,3.0021
1906.00,2.9997
1905.00,2.9983
1904.00,2.9979
1903.00,2.9976
1902.00,2.9971
1901.00,2.9958
1900.00,2.9942
1899.00,2.9942
1898.00,2.9969
1897.00,3.0011
1896.00,3.0045
1895.00,3.0052
1894.00,3.0022
1893.00,2.9964
1892.00,2.9899
1891.00,2.9853
1890.00,2.9832
1889.00,2.9818
1888.00,2.9799
1887.00,2.9780
1886.00,2.9768
1885.00,2.9755
1884.00,2.9735
1883.00,2.9717
1882.00,2.9712
1881.00,2.9716
1880.00,2.9718
1879.00,2.9719
1878.00,2.9718
1877.00,2.9707
1876.00,2.9676
1875.00,2.9631
1874.00,2.9586
1873.00,2.9546
1872.00,2.9503
1871.00,2.9452
1870.00,2.9396
1869.00,2.9350
1868.00,2.9326
1867.00,2.9327
1866.00,2.9336
1865.00,2.9333
1864.00,2.9314
1863.00,2.9292
1862.00,2.9269
1861.00,2.9231
1860.00,2.9172
1859.00,2.9103
1858.00,2.9038
1857.00,2.8976
1856.00,2.8920
1855.00,2.8875
1854.00,2.8842
1853.00,2.8806
1852.00,2.8750
1851.00,2.8677
1850.00,2.8593
1849.00,2.8494
1848.00,2.8383
1847.00,2.8275
1846.00,2.8195
1845.00,2.8138
1844.00,2.8073
1843.00,2.7984
1842.00,2.7896
1841.00,2.7829
1840.00,2.7776
1839.00,2.7714
1838.00,2.7624
1837.00,2.7514
1836.00,2.7402
1835.00,2.7300
1834.00,2.7199
1833.00,2.7096
1832.00,2.7001
1831.00,2.6927
1830.00,2.6853
1829.00,2.6743
1828.00,2.6597
1827.00,2.6453
1826.00,2.6328
1825.00,2.6202
1824.00,2.6059
1823.00,2.5913
1822.00,2.5777
1821.00,2.5641
1820.00,2.5494
1819.00,2.5339
1818.00,2.5184
1817.00,2.5023
1816.00,2.4855
1815.00,2.4681
1814.00,2.4512
1813.00,2.4351
1812.00,2.4204
1811.00,2.4071
1810.00,2.3942
1809.00,2.3812
1808.00,2.3684
1807.00,2.3563
1806.00,2.3439
1805.00,2.3293
1804.00,2.3112
1803.00,2.2899
1802.00,2.2666
1801.00,2.2412
1800.00,2.2131
1799.00,2.1821
1798.00,2.1480
1797.00,2.1113
1796.00,2.0726
1795.00,2.0330
1794.00,1.9929
1793.00,1.9513
1792.00,1.9068
1791.00,1.8606
1790.00,1.8160
1789.00,1.7752
1788.00,1.7382
1787.00,1.7041
1786.00,1.6734
1785.00,1.6475
1784.00,1.6285
1783.00,1.6179
1782.00,1.6177
1781.00,1.6275
1780.00,1.6459
1779.00,1.6719
1778.00,1.7052
1777.00,1.7451
1776.00,1.7894
1775.00,1.8372
1774.00,1.8909
1773.00,1.9522
1772.00,2.0164
1771.00,2.0759
1770.00,2.1280
1769.00,2.1749
1768.00,2.2182
1767.00,2.2554
1766.00,2.2849
1765.00,2.3099
1764.00,2.3347
1763.00,2.3622
1762.00,2.3927
1761.00,2.4253
1760.00,2.4602
1759.00,2.4976
1758.00,2.5377
1757.00,2.5801
1756.00,2.6216
1755.00,2.6596
1754.00,2.6951
1753.00,2.7315
1752.00,2.7701
1751.00,2.8077
1750.00,2.8412
1749.00,2.8720
1748.00,2.9020
1747.00,2.9301
1746.00,2.9571
1745.00,2.9858
1744.00,3.0177
1743.00,3.0508
1742.00,3.0838
1741.00,3.1192
1740.00,3.1570
1739.00,3.1905
1738.00,3.2171
1737.00,3.2435
1736.00,3.2751
1735.00,3.3076
1734.00,3.3315
1733.00,3.3483
1732.00,3.3729
1731.00,3.4105
1730.00,3.4562
1729.00,3.5080
1728.00,3.5681
1727.00,3.6407
1726.00,3.7395
1725.00,3.8896
1724.00,4.1304
1723.00,4.4723
1722.00,4.5676
1721.00,4.4139
1720.00,4.3491
1719.00,4.3444
1718.00,4.3832
1717.00,4.4267
1716.00,4.4469
1715.00,4.5044
1714.00,4.6452
1713.00,4.9195
1712.00,5.1440
1711.00,4.9130
1710.00,4.8273
1709.00,5.1217
1708.00,5.2538
1707.00,4.9464
1706.00,4.7962
1705.00,4.6693
1704.00,4.5106
1703.00,4.5399
1702.00,4.7010
1701.00,4.1856
1700.00,3.8070
1699.00,3.6071
1698.00,3.4848
1697.00,3.4107
1696.00,3.3602
1695.00,3.3194
1694.00,3.2863
1693.00,3.2611
1692.00,3.2357
1691.00,3.2003
1690.00,3.1543
1689.00,3.1043
1688.00,3.0563
1687.00,3.0123
1686.00,2.9718
1685.00,2.9326
1684.00,2.8877
1683.00,2.8355
1682.00,2.7882
1681.00,2.7519
1680.00,2.7219
1679.00,2.6930
1678.00,2.6646
1677.00,2.6382
1676.00,2.6121
1675.00,2.5804
1674.00,2.5406
1673.00,2.4984
1672.00,2.4592
1671.00,2.4216
1670.00,2.3798
1669.00,2.3297
1668.00,2.2725
1667.00,2.2134
1666.00,2.1553
1665.00,2.0985
1664.00,2.0428
1663.00,1.9883
1662.00,1.9373
1661.00,1.8953
1660.00,1.8668
1659.00,1.8522
1658.00,1.8487
1657.00,1.8517
1656.00,1.8598
1655.00,1.8781
1654.00,1.9156
1653.00,1.9661
1652.00,2.0114
1651.00,2.0497
1650.00,2.0871
1649.00,2.1243
1648.00,2.1626
1647.00,2.2013
1646.00,2.2376
1645.00,2.2709
1644.00,2.3036
1643.00,2.3360
1642.00,2.3677
1641.00,2.3981
1640.00,2.4258
1639.00,2.4504
1638.00,2.4743
1637.00,2.5014
1636.00,2.5303
1635.00,2.5541
1634.00,2.5701
1633.00,2.5839
1632.00,2.5988
1631.00,2.6145
1630.00,2.6316
1629.00,2.6505
1628.00,2.6688
1627.00,2.6841
1626.00,2.6985
1625.00,2.7162
1624.00,2.7381
1623.00,2.7600
1622.00,2.7775
1621.00,2.7918
1620.00,2.8059
1619.00,2.8224
1618.00,2.8423
1617.00,2.8634
1616.00,2.8797
1615.00,2.8904
1614.00,2.9011
1613.00,2.9148
1612.00,2.9292
1611.00,2.9408
1610.00,2.9492
1609.00,2.9570
1608.00,2.9657
1607.00,2.9746
1606.00,2.9832
1605.00,2.9922
1604.00,3.0015
1603.00,3.0109
1602.00,3.0197
1601.00,3.0283
1600.00,3.0374
1599.00,3.0479
1598.00,3.0600
1597.00,3.0726
1596.00,3.0831
1595.00,3.0903
1594.00,3.0952
1593.00,3.1000
1592.00,3.1054
1591.00,3.1110
1590.00,3.1180
1589.00,3.1276
1588.00,3.1395
1587.00,3.1514
1586.00,3.1612
1585.00,3.1681
1584.00,3.1719
1583.00,3.1733
1582.00,3.1744
1581.00,3.1762
1580.00,3.1782
1579.00,3.1801
1578.00,3.1838
1577.00,3.1916
1576.00,3.1999
1575.00,3.2021
1574.00,3.1997
1573.00,3.1981
1572.00,3.1996
1571.00,3.2039
1570.00,3.2094
1569.00,3.2141
1568.00,3.2186
1567.00,3.2252
1566.00,3.2336
1565.00,3.2405
1564.00,3.2432
1563.00,3.2430
1562.00,3.2445
1561.00,3.2528
1560.00,3.2692
1559.00,3.2807
1558.00,3.2721
1557.00,3.2554
1556.00,3.2474
1555.00,3.2473
1554.00,3.2493
1553.00,3.2505
1552.00,3.2538
1551.00,3.2635
1550.00,3.2773
1549.00,3.2874
1548.00,3.2887
1547.00,3.2851
1546.00,3.2845
1545.00,3.2886
1544.00,3.2923
1543.00,3.2913
1542.00,3.2876
1541.00,3.2862
1540.00,3.2866
1539.00,3.2845
1538.00,3.2823
1537.00,3.2838
1536.00,3.2860
1535.00,3.2861
1534.00,3.2855
1533.00,3.2852
1532.00,3.2859
1531.00,3.2887
1530.00,3.2933
1529.00,3.2988
1528.00,3.3032
1527.00,3.3043
1526.00,3.3024
1525.00,3.2989
1524.00,3.2959
1523.00,3.2954
1522.00,3.2984
1521.00,3.3020
1520.00,3.3034
1519.00,3.3036
1518.00,3.3041
1517.00,3.3035
1516.00,3.2998
1515.00,3.2942
1514.00,3.2902
1513.00,3.2878
1512.00,3.2835
1511.00,3.2745
1510.00,3.2626
1509.00,3.2525
1508.00,3.2479
1507.00,3.2480
1506.00,3.2484
1505.00,3.2508
1504.00,3.2592
1503.00,3.2692
1502.00,3.2729
1501.00,3.2686
1500.00,3.2598
1499.00,3.2498
1498.00,3.2381
1497.00,3.2232
1496.00,3.2074
1495.00,3.1962
1494.00,3.1917
1493.00,3.1902
1492.00,3.1882
1491.00,3.1877
1490.00,3.1921
1489.00,3.2001
1488.00,3.2061
1487.00,3.2061
1486.00,3.2024
1485.00,3.2000
1484.00,3.1990
1483.00,3.1977
1482.00,3.1955
1481.00,3.1934
1480.00,3.1916
1479.00,3.1882
1478.00,3.1802
1477.00,3.1664
1476.00,3.1488
1475.00,3.1311
1474.00,3.1158
1473.00,3.1016
1472.00,3.0867
1471.00,3.0737
1470.00,3.0661
1469.00,3.0621
1468.00,3.0569
1467.00,3.0502
1466.00,3.0474
1465.00,3.0517
1464.00,3.0586
1463.00,3.0603
1462.00,3.0525
1461.00,3.0366
1460.00,3.0167
1459.00,2.9985
1458.00,2.9891
1457.00,2.9926
1456.00,3.0091
1455.00,3.0409
1454.00,3.0924
1453.00,3.1652
1452.00,3.2553
1451.00,3.3474
1450.00,3.4175
1449.00,3.4522
1448.00,3.4559
1447.00,3.4383
1446.00,3.4068
1445.00,3.3661
1444.00,3.3199
1443.00,3.2716
1442.00,3.2249
1441.00,3.1837
1440.00,3.1509
1439.00,3.1272
1438.00,3.1102
1437.00,3.0957
1436.00,3.0827
1435.00,3.0770
1434.00,3.0844
1433.00,3.1034
1432.00,3.1279
1431.00,3.1534
1430.00,3.1774
1429.00,3.1961
1428.00,3.2045
1427.00,3.2026
1426.00,3.1994
1425.00,3.2023
1424.00,3.2113
1423.00,3.2223
1422.00,3.2333
1421.00,3.2439
1420.00,3.2498
1419.00,3.2441
1418.00,3.2260
1417.00,3.2025
1416.00,3.1774
1415.00,3.1507
1414.00,3.1240
1413.00,3.0993
1412.00,3.0755
1411.00,3.0499
1410.00,3.0225
1409.00,2.9949
1408.00,2.9673
1407.00,2.9380
1406.00,2.9072
1405.00,2.8764
1404.00,2.8460
1403.00,2.8163
1402.00,2.7872
1401.00,2.7580
1400.00,2.7268
1399.00,2.6929
1398.00,2.6581
1397.00,2.6247
1396.00,2.5928
1395.00,2.5606
1394.00,2.5271
1393.00,2.4927
1392.00,2.4578
1391.00,2.4218
1390.00,2.3837
1389.00,2.3434
1388.00,2.3021
1387.00,2.2616
1386.00,2.2244
1385.00,2.1909
1384.00,2.1599
1383.00,2.1299
1382.00,2.1006
1381.00,2.0732
1380.00,2.0486
1379.00,2.0266
1378.00,2.0071
1377.00,1.9903
1376.00,1.9772
1375.00,1.9693
1374.00,1.9681
1373.00,1.9747
1372.00,1.9895
1371.00,2.0119
1370.00,2.0415
1369.00,2.0775
1368.00,2.1188
1367.00,2.1642
1366.00,2.2123
1365.00,2.2613
1364.00,2.3099
1363.00,2.3574
1362.00,2.4038
1361.00,2.4505
1360.00,2.4989
1359.00,2.5494
1358.00,2.6017
1357.00,2.6553
1356.00,2.7107
1355.00,2.7694
1354.00,2.8332
1353.00,2.9018
1352.00,2.9726
1351.00,3.0403
1350.00,3.0990
1349.00,3.1437
1348.00,3.1695
1347.00,3.1723
1346.00,3.1538
1345.00,3.1260
1344.00,3.1040
1343.00,3.0986
1342.00,3.1132
1341.00,3.1435
1340.00,3.1759
1339.00,3.1871
1338.00,3.1583
1337.00,3.0938
1336.00,3.0164
1335.00,2.9469
1334.00,2.8960
1333.00,2.8663
1332.00,2.8568
1331.00,2.8644
1330.00,2.8850
1329.00,2.9142
1328.00,2.9478
1327.00,2.9834
1326.00,3.0206
1325.00,3.0605
1324.00,3.1035
1323.00,3.1479
1322.00,3.1904
1321.00,3.2294
1320.00,3.2663
1319.00,3.3052
1318.00,3.3498
1317.00,3.4011
1316.00,3.4558
1315.00,3.5081
1314.00,3.5528
1313.00,3.5864
1312.00,3.5995
1311.00,3.5739
1310.00,3.4997
1309.00,3.3922
1308.00,3.2781
1307.00,3.1745
1306.00,3.0876
1305.00,3.0196
1304.00,2.9718
1303.00,2.9444
1302.00,2.9349
1301.00,2.9379
1300.00,2.9482
1299.00,2.9634
1298.00,2.9830
1297.00,3.0064
1296.00,3.0315
1295.00,3.0563
1294.00,3.0803
1293.00,3.1039
1292.00,3.1281
1291.00,3.1532
1290.00,3.1791
1289.00,3.2042
1288.00,3.2275
1287.00,3.2502
1286.00,3.2739
1285.00,3.2978
1284.00,3.3189
1283.00,3.3367
1282.00,3.3541
1281.00,3.3744
1280.00,3.3974
1279.00,3.4213
1278.00,3.4453
1277.00,3.4698
1276.00,3.4919
1275.00,3.5050
1274.00,3.5054
1273.00,3.4969
1272.00,3.4888
1271.00,3.4881
1270.00,3.4947
1269.00,3.5038
1268.00,3.5122
1267.00,3.5209
1266.00,3.5315
1265.00,3.5402
1264.00,3.5392
1263.00,3.5274
1262.00,3.5131
1261.00,3.5058
1260.00,3.5078
1259.00,3.5172
1258.00,3.5347
1257.00,3.5606
1256.00,3.5884
1255.00,3.6061
1254.00,3.6090
1253.00,3.6060
1252.00,3.6069
1251.00,3.6119
1250.00,3.6178
1249.00,3.6285
1248.00,3.6506
1247.00,3.6801
1246.00,3.6998
1245.00,3.6980
1244.00,3.6869
1243.00,3.6864
1242.00,3.7011
1241.00,3.7218
1240.00,3.7396
1239.00,3.7488
1238.00,3.7456
1237.00,3.7362
1236.00,3.7359
1235.00,3.7539
1234.00,3.7865
1233.00,3.8231
1232.00,3.8526
1231.00,3.8655
1230.00,3.8594
1229.00,3.8469
1228.00,3.8463
1227.00,3.8685
1226.00,3.9091
1225.00,3.9513
1224.00,3.9854
1223.00,4.0088
1222.00,4.0063
1221.00,3.9677
1220.00,3.9119
1219.00,3.8653
1218.00,3.8388
1217.00,3.8203
1216.00,3.7893
1215.00,3.7464
1214.00,3.7100
1213.00,3.6900
1212.00,3.6849
1211.00,3.6914
1210.00,3.7054
1209.00,3.7259
1208.00,3.7561
1207.00,3.7869
1206.00,3.7942
1205.00,3.7644
1204.00,3.7177
1203.00,3.6881
1202.00,3.6926
1201.00,3.7279
1200.00,3.7759
1199.00,3.8100
1198.00,3.8098
1197.00,3.7823
1196.00,3.7585
1195.00,3.7625
1194.00,3.7950
1193.00,3.8348
1192.00,3.8577
1191.00,3.8582
1190.00,3.8477
1189.00,3.8367
1188.00,3.8234
1187.00,3.8018
1186.00,3.7789
1185.00,3.7734
1184.00,3.8035
1183.00,3.8715
1182.00,3.9508
1181.00,3.9886
1180.00,3.9638
1179.00,3.9390
1178.00,3.9521
1177.00,3.9584
1176.00,3.9075
1175.00,3.8237
1174.00,3.7596
1173.00,3.7346
1172.00,3.7383
1171.00,3.7572
1170.00,3.7815
1169.00,3.7981
1168.00,3.8007
1167.00,3.8017
1166.00,3.8273
1165.00,3.8969
1164.00,4.0064
1163.00,4.1132
1162.00,4.1515
1161.00,4.1361
1160.00,4.0821
1159.00,3.9791
1158.00,3.8819
1157.00,3.8088
1156.00,3.7526
1155.00,3.7226
1154.00,3.7170
1153.00,3.7257
1152.00,3.7575
1151.00,3.8201
1150.00,3.8968
1149.00,3.9647
1148.00,3.9935
1147.00,3.9571
1146.00,3.8917
1145.00,3.8451
1144.00,3.8271
1143.00,3.8139
1142.00,3.7876
1141.00,3.7603
1140.00,3.7469
1139.00,3.7495
1138.00,3.7580
1137.00,3.7602
1136.00,3.7564
1135.00,3.7591
1134.00,3.7773
1133.00,3.8067
1132.00,3.8260
1131.00,3.8110
1130.00,3.7802
1129.00,3.7660
1128.00,3.7657
1127.00,3.7663
1126.00,3.7711
1125.00,3.7985
1124.00,3.8708
1123.00,3.9927
1122.00,4.1232
1121.00,4.1783
1120.00,4.1466
1119.00,4.1056
1118.00,4.1044
1117.00,4.1448
1116.00,4.2102
1115.00,4.2925
1114.00,4.3764
1113.00,4.4056
1112.00,4.3507
1111.00,4.2550
1110.00,4.1592
1109.00,4.0871
1108.00,4.0474
1107.00,4.0260
1106.00,4.0055
1105.00,3.9910
1104.00,3.9984
1103.00,4.0189
1102.00,4.0051
1101.00,3.9617
1100.00,3.9574
1099.00,4.0135
1098.00,4.0776
1097.00,4.0729
1096.00,3.9826
1095.00,3.8574
1094.00,3.7558
1093.00,3.6926
1092.00,3.6631
1091.00,3.6721
1090.00,3.7284
1089.00,3.8217
1088.00,3.8980
1087.00,3.9063
1086.00,3.8709
1085.00,3.8275
1084.00,3.7904
1083.00,3.7639
1082.00,3.7533
1081.00,3.7609
1080.00,3.7721
1079.00,3.7687
1078.00,3.7459
1077.00,3.7162
1076.00,3.6960
1075.00,3.6852
1074.00,3.6813
1073.00,3.6886
1072.00,3.6926
1071.00,3.6709
1070.00,3.6363
1069.00,3.6212
1068.00,3.6329
1067.00,3.6410
1066.00,3.6138
1065.00,3.5603
1064.00,3.5126
1063.00,3.4906
1062.00,3.4956
1061.00,3.5159
1060.00,3.5326
1059.00,3.5305
1058.00,3.5116
1057.00,3.4913
1056.00,3.4819
1055.00,3.4864
1054.00,3.5082
1053.00,3.5577
1052.00,3.6399
1051.00,3.7355
1050.00,3.7955
1049.00,3.7797
1048.00,3.7072
1047.00,3.6241
1046.00,3.5559
1045.00,3.5044
1044.00,3.4574
1043.00,3.4025
1042.00,3.3420
1041.00,3.2877
1040.00,3.2465
1039.00,3.2157
1038.00,3.1888
1037.00,3.1640
1036.00,3.1445
1035.00,3.1297
1034.00,3.1122
1033.00,3.0859
1032.00,3.0532
1031.00,3.0220
1030.00,2.9982
1029.00,2.9843
1028.00,2.9822
1027.00,2.9928
1026.00,3.0147
1025.00,3.0437
1024.00,3.0768
1023.00,3.1155
1022.00,3.1651
1021.00,3.2305
1020.00,3.3114
1019.00,3.3969
1018.00,3.4602
1017.00,3.4721
1016.00,3.4293
1015.00,3.3550
1014.00,3.2736
1013.00,3.2006
1012.00,3.1450
1011.00,3.1103
1010.00,3.0945
1009.00,3.0906
1008.00,3.0923
1007.00,3.0984
1006.00,3.1116
1005.00,3.1336
1004.00,3.1612
1003.00,3.1891
1002.00,3.2158
1001.00,3.2464
1000.00,3.2852
999.00,3.3276
998.00,3.3655
997.00,3.4006
996.00,3.4465
995.00,3.5148
994.00,3.6010
993.00,3.6848
992.00,3.7508
991.00,3.7994
990.00,3.8310
989.00,3.8419
988.00,3.8400
987.00,3.8456
986.00,3.8683
985.00,3.8988
984.00,3.9246
983.00,3.9420
982.00,3.9519
981.00,3.9567
980.00,3.9621
979.00,3.9787
978.00,4.0061
977.00,4.0221
976.00,4.0147
975.00,4.0007
974.00,3.9959
973.00,4.0116
972.00,4.0614
971.00,4.1403
970.00,4.1948
969.00,4.1727
968.00,4.1120
967.00,4.0724
966.00,4.0780
965.00,4.1307
964.00,4.2174
963.00,4.2969
962.00,4.4103
961.00,4.4356
960.00,4.1894
959.00,4.0431
958.00,4.0211
957.00,4.0712
956.00,4.1860
955.00,4.4160
954.00,4.7808
953.00,4.9109
952.00,4.7889
951.00,4.7300
950.00,4.7545
949.00,4.5779
948.00,4.4185
947.00,4.3909
946.00,4.4541
945.00,4.5652
944.00,4.6250
943.00,4.6077
942.00,4.4716
941.00,4.2082
940.00,4.0007
939.00,3.8948
938.00,3.8749
937.00,3.9206
936.00,4.0110
935.00,4.1309
934.00,4.2644
933.00,4.3046
932.00,4.2025
931.00,4.1195
930.00,4.1107
929.00,4.1655
928.00,4.2900
927.00,4.5209
926.00,4.5782
925.00,4.3532
924.00,4.2445
923.00,4.2264
922.00,4.2623
921.00,4.3165
920.00,4.3305
919.00,4.3069
918.00,4.2678
917.00,4.2495
916.00,4.2715
915.00,4.2981
914.00,4.2682
913.00,4.1883
912.00,4.1165
911.00,4.0947
910.00,4.1331
909.00,4.1530
908.00,4.0682
907.00,3.9789
906.00,3.9502
905.00,3.9670
904.00,3.9947
903.00,4.0301
902.00,4.0891
901.00,4.1628
900.00,4.2323
899.00,4.2406
898.00,4.1823
897.00,4.1515
896.00,4.1410
895.00,4.1209
894.00,4.1396
893.00,4.2330
892.00,4.4489
891.00,4.6144
890.00,4.3926
889.00,4.2835
888.00,4.2746
887.00,4.1896
886.00,4.0507
885.00,3.9785
884.00,3.9788
883.00,3.9904
882.00,3.9651
881.00,3.9015
880.00,3.8340
879.00,3.8171
878.00,3.8722
877.00,3.9855
876.00,4.0987
875.00,4.1514
874.00,4.1748
873.00,4.1802
872.00,4.1750
871.00,4.1405
870.00,4.0888
869.00,4.0574
868.00,4.0703
867.00,4.1437
866.00,4.1952
865.00,4.1664
864.00,4.1057
863.00,4.0366
862.00,4.0174
861.00,4.0582
860.00,4.0816
859.00,4.0303
858.00,3.9992
857.00,4.0624
856.00,4.1968
855.00,4.3212
854.00,4.3864
853.00,4.2584
852.00,4.0582
851.00,3.9532
850.00,3.9557
849.00,4.0606
848.00,4.2631
847.00,4.5901
846.00,4.6629
845.00,4.3466
844.00,4.2697
843.00,4.4025
842.00,4.5672
841.00,4.5130
840.00,4.3784
839.00,4.0757
838.00,3.8749
837.00,3.8187
836.00,3.8784
835.00,4.0283
834.00,4.1988
833.00,4.2422
832.00,4.1096
831.00,3.9462
830.00,3.8393
829.00,3.8143
828.00,3.8721
827.00,3.9986
826.00,4.1170
825.00,4.1160
824.00,4.0993
823.00,4.2399
822.00,4.6950
821.00,4.6157
820.00,4.3318
819.00,4.2504
818.00,4.3034
817.00,4.6101
816.00,4.6707
815.00,4.2574
814.00,4.0914
813.00,4.0130
812.00,3.9803
811.00,3.9986
810.00,4.0685
809.00,4.1906
808.00,4.3057
807.00,4.2969
806.00,4.2560
805.00,4.3050
804.00,4.4260
803.00,4.4676
802.00,4.3461
801.00,4.2162
800.00,4.1718
799.00,4.2447
798.00,4.2594
797.00,4.0674
796.00,3.9765
795.00,4.0305
794.00,4.1477
793.00,4.2296
792.00,4.4141
791.00,4.8343
790.00,4.8241
789.00,4.5401
788.00,4.2596
787.00,4.1602
786.00,4.2276
785.00,4.4600
784.00,4.8075
783.00,4.5928
782.00,4.4164
781.00,4.3757
780.00,4.4200
779.00,4.6500
778.00,4.7428
777.00,4.3922
776.00,4.2456
775.00,4.3632
774.00,5.0110
773.00,4.2957
772.00,4.0822
771.00,4.0456
770.00,4.0434
769.00,4.0455
768.00,4.0516
767.00,4.0614
766.00,4.0379
765.00,3.9945
764.00,3.9599
763.00,3.9550
762.00,3.9741
761.00,3.9865
760.00,3.9965
759.00,4.0880
758.00,4.1915
757.00,4.0679
756.00,3.9785
755.00,3.9811
754.00,4.0170
753.00,4.0753
752.00,4.1387
751.00,4.1455
750.00,4.0816
749.00,4.0467
748.00,4.1455
747.00,4.4781
746.00,5.1568
745.00,4.8824
744.00,4.4106
743.00,4.3174
742.00,4.4158
741.00,4.4041
740.00,4.2782
739.00,4.0849
738.00,3.9298
737.00,3.8891
736.00,3.9532
735.00,4.0613
734.00,4.1249
733.00,4.1837
732.00,4.3151
731.00,4.3837
730.00,4.2331
729.00,4.0934
728.00,4.0495
727.00,4.0415
726.00,3.9686
725.00,3.8796
724.00,3.8314
723.00,3.8426
722.00,3.9162
721.00,4.0036
720.00,4.0200
719.00,3.9613
718.00,3.9001
717.00,3.8756
716.00,3.8879
715.00,3.9161
714.00,3.9303
713.00,3.9193
712.00,3.8960
711.00,3.8747
710.00,3.8496
709.00,3.8035
708.00,3.7410
707.00,3.6904
706.00,3.6728
705.00,3.6896
704.00,3.7239
703.00,3.7467
702.00,3.7432
701.00,3.7197
700.00,3.6841
699.00,3.6494
698.00,3.6334
697.00,3.6482
696.00,3.6963
695.00,3.7635
694.00,3.8204
693.00,3.8432
692.00,3.8322
691.00,3.8047
690.00,3.7726
689.00,3.7359
688.00,3.6965
687.00,3.6657
686.00,3.6519
685.00,3.6555
684.00,3.6651
683.00,3.6634
682.00,3.6652
681.00,3.6908
680.00,3.7168
679.00,3.7371
678.00,3.7813
677.00,3.8417
676.00,3.8867
675.00,3.9007
674.00,3.8846
673.00,3.8474
672.00,3.8034
671.00,3.7691
670.00,3.7461
669.00,3.7237
668.00,3.7086
667.00,3.7018
666.00,3.6790
665.00,3.6411
664.00,3.6100
663.00,3.5999
662.00,3.6119
661.00,3.6361
660.00,3.6639
659.00,3.6935
658.00,3.7216
657.00,3.7386
656.00,3.7402
655.00,3.7446
654.00,3.7785
653.00,3.8326
652.00,3.8580
651.00,3.8336
650.00,3.7791
649.00,3.7190
648.00,3.6726
647.00,3.6531
646.00,3.6741
645.00,3.7446
644.00,3.8621
643.00,3.9688
642.00,3.9314
641.00,3.8084
640.00,3.7119
639.00,3.6508
638.00,3.6064
637.00,3.5762
636.00,3.5683
635.00,3.5903
634.00,3.6510
633.00,3.7503
632.00,3.8553
631.00,3.8809
630.00,3.7925
629.00,3.6706
628.00,3.5792
627.00,3.5381
626.00,3.5476
625.00,3.5962
624.00,3.6615
623.00,3.7269
622.00,3.7964
621.00,3.8628
620.00,3.8980
619.00,3.9220
618.00,3.9538
617.00,3.9385
616.00,3.8724
615.00,3.8016
614.00,3.7440
613.00,3.6904
612.00,3.6539
611.00,3.6788
610.00,3.7866
609.00,3.9636
608.00,4.1806
607.00,4.2884
606.00,4.0787
605.00,3.8900
604.00,3.8077
603.00,3.7969
602.00,3.8181
601.00,3.8357
600.00,3.8195
599.00,3.7755
598.00,3.7385
597.00,3.7366
596.00,3.7910
595.00,3.9350
594.00,4.2144
593.00,4.2468
592.00,4.0067
591.00,3.8932
590.00,3.8658
589.00,3.9039
588.00,3.9794
587.00,3.9806
586.00,3.8482
585.00,3.7021
584.00,3.6118
583.00,3.5858
582.00,3.6071
581.00,3.6321
580.00,3.6342
579.00,3.6609
578.00,3.7755
577.00,3.9878
576.00,4.1785
575.00,4.2367
574.00,4.0475
573.00,3.8548
572.00,3.7555
571.00,3.6906
570.00,3.6104
569.00,3.5269
568.00,3.4851
567.00,3.5043
566.00,3.5641
565.00,3.6097
564.00,3.6061
563.00,3.5820
562.00,3.5748
561.00,3.6036
560.00,3.6908
559.00,3.8702
558.00,4.2170
557.00,4.8799
556.00,4.2870
555.00,3.9130
554.00,3.7033
553.00,3.5837
552.00,3.5015
551.00,3.4452
550.00,3.4463
549.00,3.5279
548.00,3.6976
547.00,3.9684
546.00,4.2080
545.00,3.9639
544.00,3.8087
543.00,3.8461
542.00,4.1336
541.00,4.7898
540.00,4.3347
539.00,3.9600
538.00,3.6973
537.00,3.5979
536.00,3.6490
535.00,3.8154
534.00,3.9595
533.00,3.8615
532.00,3.6584
531.00,3.5041
530.00,3.4170
529.00,3.3845
528.00,3.4040
527.00,3.4915
526.00,3.6027
525.00,3.6093
524.00,3.5896
523.00,3.6947
522.00,4.0347
521.00,4.2185
520.00,4.0267
519.00,4.2818
518.00,4.2625
517.00,3.7566
516.00,3.5918
515.00,3.5754
514.00,3.6084
513.00,3.6260
512.00,3.6395
511.00,3.6459
510.00,3.6270
509.00,3.6412
508.00,3.7231
507.00,3.7891
506.00,3.7434
505.00,3.6140
504.00,3.5287
503.00,3.5821
502.00,3.8151
501.00,4.0416
500.00,3.7725
499.00,3.6163
498.00,3.6362
497.00,3.9098
496.00,4.4149
495.00,3.7047
494.00,3.5616
493.00,3.5716
492.00,3.6530
491.00,3.7904
490.00,3.9257
489.00,3.9042
488.00,3.7404
487.00,3.6701
486.00,3.5759
485.00,3.4842
484.00,3.5331
483.00,3.7599
482.00,3.9088
481.00,3.8557
480.00,3.8169
479.00,3.6145
478.00,3.5264
477.00,3.6200
476.00,3.9390
475.00,4.0083
474.00,3.6874
473.00,3.6120
472.00,3.7760
471.00,3.9846
470.00,3.5367
469.00,3.3347
468.00,3.2739
467.00,3.2977
466.00,3.3625
465.00,3.3981
464.00,3.3725
463.00,3.3362
462.00,3.3564
461.00,3.4824
460.00,3.7506
459.00,4.0220
458.00,3.6996
457.00,3.3461
456.00,3.2179
455.00,3.2931
454.00,3.6414
453.00,3.9217
452.00,3.7800
451.00,4.1742
450.00,3.4535
449.00,3.2472
448.00,3.2110
447.00,3.2381
446.00,3.2193
445.00,3.1144
444.00,3.0603
443.00,3.1241
442.00,3.2632
441.00,3.3501
440.00,3.3907
439.00,3.3859
438.00,3.3352
437.00,3.2664
436.00,3.1947
435.00,3.1251
434.00,3.0688
433.00,3.0591
432.00,3.1055
431.00,3.1500
430.00,3.1393
429.00,3.1123
428.00,3.0939
427.00,3.1247
426.00,3.2431
425.00,3.3655
424.00,3.2170
423.00,3.0637
422.00,3.0474
421.00,3.1474
420.00,3.1649
419.00,2.9965
418.00,2.9081
417.00,2.9338
416.00,3.0069
415.00,2.9985
414.00,2.9228
413.00,2.8562
412.00,2.8017
411.00,2.7671
410.00,2.7711
409.00,2.8374
408.00,2.9970
407.00,3.2308
406.00,3.2517
405.00,3.0452
404.00,2.8905
403.00,2.8171
402.00,2.7340
401.00,2.6191
400.00,2.5329
