Created as New Dataset,Sample 174 By Administrator Date Friday, November 26 2021
cm-1,A
7000.00,1.1426
6999.00,1.1454
6998.00,1.1483
6997.00,1.1514
6996.00,1.1544
6995.00,1.1573
6994.00,1.1600
6993.00,1.1625
6992.00,1.1647
6991.00,1.1666
6990.00,1.1684
6989.00,1.1702
6988.00,1.1723
6987.00,1.1742
6986.00,1.1760
6985.00,1.1778
6984.00,1.1797
6983.00,1.1818
6982.00,1.1840
6981.00,1.1859
6980.00,1.1875
6979.00,1.1890
6978.00,1.1904
6977.00,1.1920
6976.00,1.1934
6975.00,1.1946
6974.00,1.1953
6973.00,1.1960
6972.00,1.1967
6971.00,1.1978
6970.00,1.1989
6969.00,1.2000
6968.00,1.2010
6967.00,1.2020
6966.00,1.2029
6965.00,1.2039
6964.00,1.2048
6963.00,1.2053
6962.00,1.2054
6961.00,1.2054
6960.00,1.2057
6959.00,1.2067
6958.00,1.2078
6957.00,1.2088
6956.00,1.2095
6955.00,1.2100
6954.00,1.2103
6953.00,1.2103
6952.00,1.2098
6951.00,1.2088
6950.00,1.2077
6949.00,1.2070
6948.00,1.2068
6947.00,1.2070
6946.00,1.2072
6945.00,1.2070
6944.00,1.2067
6943.00,1.2063
6942.00,1.2058
6941.00,1.2052
6940.00,1.2045
6939.00,1.2039
6938.00,1.2034
6937.00,1.2027
6936.00,1.2018
6935.00,1.2008
6934.00,1.1995
6933.00,1.1979
6932.00,1.1960
6931.00,1.1942
6930.00,1.1929
6929.00,1.1919
6928.00,1.1909
6927.00,1.1899
6926.00,1.1890
6925.00,1.1883
6924.00,1.1872
6923.00,1.1855
6922.00,1.1834
6921.00,1.1813
6920.00,1.1794
6919.00,1.1777
6918.00,1.1761
6917.00,1.1744
6916.00,1.1727
6915.00,1.1708
6914.00,1.1689
6913.00,1.1667
6912.00,1.1642
6911.00,1.1615
6910.00,1.1588
6909.00,1.1565
6908.00,1.1546
6907.00,1.1527
6906.00,1.1507
6905.00,1.1485
6904.00,1.1462
6903.00,1.1438
6902.00,1.1412
6901.00,1.1383
6900.00,1.1352
6899.00,1.1321
6898.00,1.1292
6897.00,1.1263
6896.00,1.1234
6895.00,1.1204
6894.00,1.1175
6893.00,1.1147
6892.00,1.1119
6891.00,1.1088
6890.00,1.1055
6889.00,1.1021
6888.00,1.0986
6887.00,1.0948
6886.00,1.0907
6885.00,1.0866
6884.00,1.0828
6883.00,1.0791
6882.00,1.0754
6881.00,1.0715
6880.00,1.0675
6879.00,1.0634
6878.00,1.0594
6877.00,1.0554
6876.00,1.0516
6875.00,1.0478
6874.00,1.0442
6873.00,1.0405
6872.00,1.0366
6871.00,1.0322
6870.00,1.0275
6869.00,1.0227
6868.00,1.0182
6867.00,1.0141
6866.00,1.0101
6865.00,1.0060
6864.00,1.0016
6863.00,0.9969
6862.00,0.9920
6861.00,0.9872
6860.00,0.9823
6859.00,0.9774
6858.00,0.9727
6857.00,0.9685
6856.00,0.9645
6855.00,0.9604
6854.00,0.9559
6853.00,0.9511
6852.00,0.9461
6851.00,0.9413
6850.00,0.9367
6849.00,0.9320
6848.00,0.9272
6847.00,0.9223
6846.00,0.9177
6845.00,0.9134
6844.00,0.9091
6843.00,0.9045
6842.00,0.8998
6841.00,0.8951
6840.00,0.8904
6839.00,0.8857
6838.00,0.8810
6837.00,0.8762
6836.00,0.8713
6835.00,0.8666
6834.00,0.8619
6833.00,0.8573
6832.00,0.8526
6831.00,0.8479
6830.00,0.8431
6829.00,0.8385
6828.00,0.8341
6827.00,0.8298
6826.00,0.8256
6825.00,0.8216
6824.00,0.8177
6823.00,0.8137
6822.00,0.8095
6821.00,0.8052
6820.00,0.8009
6819.00,0.7965
6818.00,0.7922
6817.00,0.7879
6816.00,0.7838
6815.00,0.7798
6814.00,0.7761
6813.00,0.7724
6812.00,0.7687
6811.00,0.7651
6810.00,0.7614
6809.00,0.7577
6808.00,0.7541
6807.00,0.7506
6806.00,0.7472
6805.00,0.7438
6804.00,0.7403
6803.00,0.7369
6802.00,0.7337
6801.00,0.7306
6800.00,0.7277
6799.00,0.7249
6798.00,0.7224
6797.00,0.7200
6796.00,0.7178
6795.00,0.7156
6794.00,0.7134
6793.00,0.7113
6792.00,0.7093
6791.00,0.7075
6790.00,0.7059
6789.00,0.7045
6788.00,0.7034
6787.00,0.7024
6786.00,0.7015
6785.00,0.7007
6784.00,0.7000
6783.00,0.6994
6782.00,0.6989
6781.00,0.6986
6780.00,0.6985
6779.00,0.6986
6778.00,0.6989
6777.00,0.6994
6776.00,0.6999
6775.00,0.7005
6774.00,0.7012
6773.00,0.7020
6772.00,0.7029
6771.00,0.7039
6770.00,0.7051
6769.00,0.7066
6768.00,0.7083
6767.00,0.7101
6766.00,0.7120
6765.00,0.7141
6764.00,0.7163
6763.00,0.7187
6762.00,0.7212
6761.00,0.7238
6760.00,0.7264
6759.00,0.7291
6758.00,0.7318
6757.00,0.7345
6756.00,0.7374
6755.00,0.7404
6754.00,0.7435
6753.00,0.7468
6752.00,0.7503
6751.00,0.7537
6750.00,0.7573
6749.00,0.7610
6748.00,0.7647
6747.00,0.7686
6746.00,0.7724
6745.00,0.7764
6744.00,0.7805
6743.00,0.7846
6742.00,0.7888
6741.00,0.7930
6740.00,0.7972
6739.00,0.8015
6738.00,0.8059
6737.00,0.8104
6736.00,0.8150
6735.00,0.8196
6734.00,0.8242
6733.00,0.8287
6732.00,0.8332
6731.00,0.8378
6730.00,0.8424
6729.00,0.8471
6728.00,0.8518
6727.00,0.8567
6726.00,0.8618
6725.00,0.8671
6724.00,0.8722
6723.00,0.8772
6722.00,0.8821
6721.00,0.8870
6720.00,0.8919
6719.00,0.8967
6718.00,0.9017
6717.00,0.9068
6716.00,0.9119
6715.00,0.9171
6714.00,0.9222
6713.00,0.9273
6712.00,0.9324
6711.00,0.9375
6710.00,0.9426
6709.00,0.9477
6708.00,0.9528
6707.00,0.9580
6706.00,0.9631
6705.00,0.9679
6704.00,0.9725
6703.00,0.9770
6702.00,0.9818
6701.00,0.9868
6700.00,0.9917
6699.00,0.9965
6698.00,1.0013
6697.00,1.0063
6696.00,1.0113
6695.00,1.0161
6694.00,1.0206
6693.00,1.0251
6692.00,1.0295
6691.00,1.0340
6690.00,1.0384
6689.00,1.0429
6688.00,1.0473
6687.00,1.0517
6686.00,1.0561
6685.00,1.0606
6684.00,1.0651
6683.00,1.0695
6682.00,1.0737
6681.00,1.0779
6680.00,1.0819
6679.00,1.0860
6678.00,1.0900
6677.00,1.0941
6676.00,1.0981
6675.00,1.1021
6674.00,1.1062
6673.00,1.1104
6672.00,1.1143
6671.00,1.1180
6670.00,1.1214
6669.00,1.1248
6668.00,1.1282
6667.00,1.1315
6666.00,1.1348
6665.00,1.1384
6664.00,1.1421
6663.00,1.1458
6662.00,1.1492
6661.00,1.1524
6660.00,1.1554
6659.00,1.1584
6658.00,1.1612
6657.00,1.1640
6656.00,1.1666
6655.00,1.1690
6654.00,1.1714
6653.00,1.1739
6652.00,1.1765
6651.00,1.1792
6650.00,1.1818
6649.00,1.1846
6648.00,1.1875
6647.00,1.1903
6646.00,1.1928
6645.00,1.1952
6644.00,1.1975
6643.00,1.1998
6642.00,1.2021
6641.00,1.2044
6640.00,1.2067
6639.00,1.2089
6638.00,1.2110
6637.00,1.2130
6636.00,1.2148
6635.00,1.2164
6634.00,1.2179
6633.00,1.2196
6632.00,1.2213
6631.00,1.2228
6630.00,1.2243
6629.00,1.2258
6628.00,1.2276
6627.00,1.2294
6626.00,1.2308
6625.00,1.2318
6624.00,1.2329
6623.00,1.2342
6622.00,1.2354
6621.00,1.2362
6620.00,1.2368
6619.00,1.2375
6618.00,1.2384
6617.00,1.2393
6616.00,1.2400
6615.00,1.2406
6614.00,1.2412
6613.00,1.2418
6612.00,1.2425
6611.00,1.2431
6610.00,1.2434
6609.00,1.2434
6608.00,1.2436
6607.00,1.2439
6606.00,1.2445
6605.00,1.2449
6604.00,1.2451
6603.00,1.2452
6602.00,1.2452
6601.00,1.2451
6600.00,1.2449
6599.00,1.2446
6598.00,1.2442
6597.00,1.2439
6596.00,1.2437
6595.00,1.2436
6594.00,1.2435
6593.00,1.2431
6592.00,1.2423
6591.00,1.2414
6590.00,1.2404
6589.00,1.2394
6588.00,1.2383
6587.00,1.2372
6586.00,1.2363
6585.00,1.2358
6584.00,1.2352
6583.00,1.2344
6582.00,1.2332
6581.00,1.2318
6580.00,1.2305
6579.00,1.2292
6578.00,1.2280
6577.00,1.2270
6576.00,1.2258
6575.00,1.2244
6574.00,1.2227
6573.00,1.2207
6572.00,1.2186
6571.00,1.2166
6570.00,1.2148
6569.00,1.2131
6568.00,1.2114
6567.00,1.2096
6566.00,1.2076
6565.00,1.2055
6564.00,1.2031
6563.00,1.2007
6562.00,1.1983
6561.00,1.1960
6560.00,1.1936
6559.00,1.1912
6558.00,1.1886
6557.00,1.1860
6556.00,1.1835
6555.00,1.1809
6554.00,1.1784
6553.00,1.1758
6552.00,1.1731
6551.00,1.1705
6550.00,1.1677
6549.00,1.1646
6548.00,1.1614
6547.00,1.1581
6546.00,1.1549
6545.00,1.1517
6544.00,1.1484
6543.00,1.1453
6542.00,1.1423
6541.00,1.1392
6540.00,1.1358
6539.00,1.1320
6538.00,1.1281
6537.00,1.1242
6536.00,1.1201
6535.00,1.1161
6534.00,1.1121
6533.00,1.1083
6532.00,1.1042
6531.00,1.1000
6530.00,1.0957
6529.00,1.0916
6528.00,1.0873
6527.00,1.0829
6526.00,1.0784
6525.00,1.0741
6524.00,1.0698
6523.00,1.0655
6522.00,1.0611
6521.00,1.0567
6520.00,1.0522
6519.00,1.0474
6518.00,1.0425
6517.00,1.0375
6516.00,1.0324
6515.00,1.0272
6514.00,1.0220
6513.00,1.0169
6512.00,1.0120
6511.00,1.0072
6510.00,1.0021
6509.00,0.9970
6508.00,0.9918
6507.00,0.9866
6506.00,0.9813
6505.00,0.9761
6504.00,0.9709
6503.00,0.9659
6502.00,0.9610
6501.00,0.9561
6500.00,0.9511
6499.00,0.9460
6498.00,0.9407
6497.00,0.9351
6496.00,0.9295
6495.00,0.9238
6494.00,0.9182
6493.00,0.9129
6492.00,0.9077
6491.00,0.9025
6490.00,0.8972
6489.00,0.8918
6488.00,0.8863
6487.00,0.8807
6486.00,0.8751
6485.00,0.8697
6484.00,0.8644
6483.00,0.8591
6482.00,0.8540
6481.00,0.8491
6480.00,0.8441
6479.00,0.8391
6478.00,0.8340
6477.00,0.8290
6476.00,0.8240
6475.00,0.8191
6474.00,0.8144
6473.00,0.8097
6472.00,0.8052
6471.00,0.8009
6470.00,0.7966
6469.00,0.7922
6468.00,0.7878
6467.00,0.7833
6466.00,0.7791
6465.00,0.7750
6464.00,0.7711
6463.00,0.7673
6462.00,0.7636
6461.00,0.7602
6460.00,0.7568
6459.00,0.7535
6458.00,0.7503
6457.00,0.7473
6456.00,0.7444
6455.00,0.7415
6454.00,0.7387
6453.00,0.7361
6452.00,0.7337
6451.00,0.7316
6450.00,0.7297
6449.00,0.7280
6448.00,0.7264
6447.00,0.7249
6446.00,0.7235
6445.00,0.7223
6444.00,0.7211
6443.00,0.7202
6442.00,0.7194
6441.00,0.7188
6440.00,0.7183
6439.00,0.7178
6438.00,0.7176
6437.00,0.7175
6436.00,0.7177
6435.00,0.7180
6434.00,0.7185
6433.00,0.7193
6432.00,0.7203
6431.00,0.7214
6430.00,0.7226
6429.00,0.7240
6428.00,0.7255
6427.00,0.7271
6426.00,0.7287
6425.00,0.7305
6424.00,0.7326
6423.00,0.7348
6422.00,0.7371
6421.00,0.7396
6420.00,0.7423
6419.00,0.7450
6418.00,0.7479
6417.00,0.7510
6416.00,0.7541
6415.00,0.7573
6414.00,0.7607
6413.00,0.7642
6412.00,0.7678
6411.00,0.7713
6410.00,0.7750
6409.00,0.7790
6408.00,0.7832
6407.00,0.7873
6406.00,0.7914
6405.00,0.7955
6404.00,0.7998
6403.00,0.8041
6402.00,0.8085
6401.00,0.8129
6400.00,0.8174
6399.00,0.8221
6398.00,0.8269
6397.00,0.8317
6396.00,0.8366
6395.00,0.8414
6394.00,0.8464
6393.00,0.8515
6392.00,0.8565
6391.00,0.8615
6390.00,0.8664
6389.00,0.8714
6388.00,0.8764
6387.00,0.8815
6386.00,0.8866
6385.00,0.8919
6384.00,0.8973
6383.00,0.9025
6382.00,0.9078
6381.00,0.9131
6380.00,0.9184
6379.00,0.9236
6378.00,0.9289
6377.00,0.9342
6376.00,0.9395
6375.00,0.9448
6374.00,0.9502
6373.00,0.9555
6372.00,0.9610
6371.00,0.9664
6370.00,0.9720
6369.00,0.9776
6368.00,0.9831
6367.00,0.9885
6366.00,0.9937
6365.00,0.9987
6364.00,1.0037
6363.00,1.0087
6362.00,1.0135
6361.00,1.0184
6360.00,1.0234
6359.00,1.0285
6358.00,1.0334
6357.00,1.0383
6356.00,1.0432
6355.00,1.0480
6354.00,1.0529
6353.00,1.0578
6352.00,1.0627
6351.00,1.0677
6350.00,1.0726
6349.00,1.0772
6348.00,1.0816
6347.00,1.0861
6346.00,1.0906
6345.00,1.0950
6344.00,1.0993
6343.00,1.1035
6342.00,1.1078
6341.00,1.1120
6340.00,1.1161
6339.00,1.1203
6338.00,1.1245
6337.00,1.1286
6336.00,1.1328
6335.00,1.1368
6334.00,1.1406
6333.00,1.1441
6332.00,1.1473
6331.00,1.1505
6330.00,1.1539
6329.00,1.1574
6328.00,1.1608
6327.00,1.1643
6326.00,1.1679
6325.00,1.1714
6324.00,1.1748
6323.00,1.1779
6322.00,1.1809
6321.00,1.1838
6320.00,1.1867
6319.00,1.1896
6318.00,1.1925
6317.00,1.1955
6316.00,1.1985
6315.00,1.2014
6314.00,1.2042
6313.00,1.2069
6312.00,1.2094
6311.00,1.2117
6310.00,1.2141
6309.00,1.2164
6308.00,1.2187
6307.00,1.2208
6306.00,1.2226
6305.00,1.2244
6304.00,1.2261
6303.00,1.2278
6302.00,1.2296
6301.00,1.2315
6300.00,1.2337
6299.00,1.2359
6298.00,1.2380
6297.00,1.2401
6296.00,1.2421
6295.00,1.2439
6294.00,1.2454
6293.00,1.2466
6292.00,1.2478
6291.00,1.2489
6290.00,1.2498
6289.00,1.2504
6288.00,1.2511
6287.00,1.2518
6286.00,1.2525
6285.00,1.2532
6284.00,1.2537
6283.00,1.2543
6282.00,1.2551
6281.00,1.2561
6280.00,1.2570
6279.00,1.2578
6278.00,1.2585
6277.00,1.2592
6276.00,1.2597
6275.00,1.2599
6274.00,1.2601
6273.00,1.2603
6272.00,1.2605
6271.00,1.2608
6270.00,1.2609
6269.00,1.2610
6268.00,1.2609
6267.00,1.2607
6266.00,1.2602
6265.00,1.2597
6264.00,1.2590
6263.00,1.2584
6262.00,1.2577
6261.00,1.2571
6260.00,1.2566
6259.00,1.2560
6258.00,1.2554
6257.00,1.2549
6256.00,1.2544
6255.00,1.2536
6254.00,1.2526
6253.00,1.2516
6252.00,1.2504
6251.00,1.2490
6250.00,1.2475
6249.00,1.2459
6248.00,1.2446
6247.00,1.2434
6246.00,1.2422
6245.00,1.2410
6244.00,1.2396
6243.00,1.2380
6242.00,1.2359
6241.00,1.2335
6240.00,1.2312
6239.00,1.2290
6238.00,1.2269
6237.00,1.2248
6236.00,1.2227
6235.00,1.2207
6234.00,1.2185
6233.00,1.2161
6232.00,1.2137
6231.00,1.2112
6230.00,1.2088
6229.00,1.2064
6228.00,1.2038
6227.00,1.2013
6226.00,1.1986
6225.00,1.1959
6224.00,1.1931
6223.00,1.1902
6222.00,1.1871
6221.00,1.1839
6220.00,1.1805
6219.00,1.1772
6218.00,1.1740
6217.00,1.1709
6216.00,1.1678
6215.00,1.1646
6214.00,1.1614
6213.00,1.1580
6212.00,1.1544
6211.00,1.1506
6210.00,1.1467
6209.00,1.1428
6208.00,1.1389
6207.00,1.1351
6206.00,1.1313
6205.00,1.1274
6204.00,1.1236
6203.00,1.1198
6202.00,1.1160
6201.00,1.1122
6200.00,1.1082
6199.00,1.1040
6198.00,1.0996
6197.00,1.0950
6196.00,1.0903
6195.00,1.0856
6194.00,1.0810
6193.00,1.0765
6192.00,1.0720
6191.00,1.0674
6190.00,1.0627
6189.00,1.0576
6188.00,1.0525
6187.00,1.0474
6186.00,1.0425
6185.00,1.0377
6184.00,1.0330
6183.00,1.0284
6182.00,1.0240
6181.00,1.0196
6180.00,1.0150
6179.00,1.0102
6178.00,1.0053
6177.00,1.0003
6176.00,0.9952
6175.00,0.9900
6174.00,0.9849
6173.00,0.9799
6172.00,0.9749
6171.00,0.9700
6170.00,0.9651
6169.00,0.9603
6168.00,0.9556
6167.00,0.9509
6166.00,0.9463
6165.00,0.9417
6164.00,0.9370
6163.00,0.9322
6162.00,0.9273
6161.00,0.9223
6160.00,0.9174
6159.00,0.9124
6158.00,0.9076
6157.00,0.9028
6156.00,0.8982
6155.00,0.8935
6154.00,0.8888
6153.00,0.8840
6152.00,0.8792
6151.00,0.8744
6150.00,0.8696
6149.00,0.8648
6148.00,0.8599
6147.00,0.8551
6146.00,0.8504
6145.00,0.8457
6144.00,0.8411
6143.00,0.8364
6142.00,0.8317
6141.00,0.8269
6140.00,0.8220
6139.00,0.8170
6138.00,0.8121
6137.00,0.8074
6136.00,0.8029
6135.00,0.7985
6134.00,0.7941
6133.00,0.7897
6132.00,0.7853
6131.00,0.7808
6130.00,0.7763
6129.00,0.7720
6128.00,0.7677
6127.00,0.7636
6126.00,0.7595
6125.00,0.7556
6124.00,0.7517
6123.00,0.7478
6122.00,0.7441
6121.00,0.7406
6120.00,0.7373
6119.00,0.7340
6118.00,0.7309
6117.00,0.7279
6116.00,0.7250
6115.00,0.7222
6114.00,0.7196
6113.00,0.7171
6112.00,0.7147
6111.00,0.7125
6110.00,0.7105
6109.00,0.7087
6108.00,0.7070
6107.00,0.7055
6106.00,0.7041
6105.00,0.7030
6104.00,0.7020
6103.00,0.7011
6102.00,0.7004
6101.00,0.7000
6100.00,0.6997
6099.00,0.6997
6098.00,0.6997
6097.00,0.6999
6096.00,0.7001
6095.00,0.7005
6094.00,0.7011
6093.00,0.7019
6092.00,0.7030
6091.00,0.7044
6090.00,0.7060
6089.00,0.7077
6088.00,0.7096
6087.00,0.7116
6086.00,0.7137
6085.00,0.7159
6084.00,0.7183
6083.00,0.7208
6082.00,0.7234
6081.00,0.7263
6080.00,0.7293
6079.00,0.7325
6078.00,0.7358
6077.00,0.7392
6076.00,0.7428
6075.00,0.7464
6074.00,0.7501
6073.00,0.7540
6072.00,0.7580
6071.00,0.7622
6070.00,0.7665
6069.00,0.7709
6068.00,0.7754
6067.00,0.7800
6066.00,0.7847
6065.00,0.7895
6064.00,0.7942
6063.00,0.7991
6062.00,0.8041
6061.00,0.8092
6060.00,0.8143
6059.00,0.8195
6058.00,0.8247
6057.00,0.8300
6056.00,0.8354
6055.00,0.8408
6054.00,0.8463
6053.00,0.8518
6052.00,0.8574
6051.00,0.8630
6050.00,0.8687
6049.00,0.8745
6048.00,0.8803
6047.00,0.8863
6046.00,0.8922
6045.00,0.8979
6044.00,0.9037
6043.00,0.9094
6042.00,0.9151
6041.00,0.9208
6040.00,0.9266
6039.00,0.9323
6038.00,0.9382
6037.00,0.9441
6036.00,0.9500
6035.00,0.9559
6034.00,0.9618
6033.00,0.9679
6032.00,0.9739
6031.00,0.9798
6030.00,0.9857
6029.00,0.9915
6028.00,0.9973
6027.00,1.0031
6026.00,1.0089
6025.00,1.0146
6024.00,1.0201
6023.00,1.0256
6022.00,1.0311
6021.00,1.0367
6020.00,1.0422
6019.00,1.0477
6018.00,1.0532
6017.00,1.0586
6016.00,1.0640
6015.00,1.0692
6014.00,1.0744
6013.00,1.0795
6012.00,1.0845
6011.00,1.0896
6010.00,1.0945
6009.00,1.0996
6008.00,1.1046
6007.00,1.1097
6006.00,1.1148
6005.00,1.1198
6004.00,1.1246
6003.00,1.1292
6002.00,1.1336
6001.00,1.1380
6000.00,1.1424
5999.00,1.1469
5998.00,1.1514
5997.00,1.1560
5996.00,1.1607
5995.00,1.1653
5994.00,1.1698
5993.00,1.1740
5992.00,1.1779
5991.00,1.1817
5990.00,1.1852
5989.00,1.1888
5988.00,1.1926
5987.00,1.1966
5986.00,1.2008
5985.00,1.2049
5984.00,1.2088
5983.00,1.2124
5982.00,1.2157
5981.00,1.2188
5980.00,1.2216
5979.00,1.2245
5978.00,1.2275
5977.00,1.2306
5976.00,1.2337
5975.00,1.2370
5974.00,1.2403
5973.00,1.2435
5972.00,1.2466
5971.00,1.2494
5970.00,1.2520
5969.00,1.2545
5968.00,1.2571
5967.00,1.2597
5966.00,1.2625
5965.00,1.2651
5964.00,1.2677
5963.00,1.2701
5962.00,1.2724
5961.00,1.2748
5960.00,1.2773
5959.00,1.2797
5958.00,1.2820
5957.00,1.2841
5956.00,1.2861
5955.00,1.2878
5954.00,1.2894
5953.00,1.2910
5952.00,1.2927
5951.00,1.2944
5950.00,1.2960
5949.00,1.2976
5948.00,1.2990
5947.00,1.3006
5946.00,1.3021
5945.00,1.3036
5944.00,1.3050
5943.00,1.3063
5942.00,1.3075
5941.00,1.3087
5940.00,1.3097
5939.00,1.3106
5938.00,1.3115
5937.00,1.3125
5936.00,1.3133
5935.00,1.3141
5934.00,1.3148
5933.00,1.3154
5932.00,1.3159
5931.00,1.3162
5930.00,1.3164
5929.00,1.3166
5928.00,1.3168
5927.00,1.3172
5926.00,1.3177
5925.00,1.3181
5924.00,1.3184
5923.00,1.3184
5922.00,1.3183
5921.00,1.3179
5920.00,1.3175
5919.00,1.3172
5918.00,1.3169
5917.00,1.3165
5916.00,1.3161
5915.00,1.3157
5914.00,1.3152
5913.00,1.3146
5912.00,1.3139
5911.00,1.3132
5910.00,1.3126
5909.00,1.3120
5908.00,1.3113
5907.00,1.3106
5906.00,1.3100
5905.00,1.3092
5904.00,1.3082
5903.00,1.3070
5902.00,1.3057
5901.00,1.3042
5900.00,1.3025
5899.00,1.3007
5898.00,1.2991
5897.00,1.2974
5896.00,1.2957
5895.00,1.2938
5894.00,1.2921
5893.00,1.2905
5892.00,1.2889
5891.00,1.2872
5890.00,1.2854
5889.00,1.2835
5888.00,1.2814
5887.00,1.2791
5886.00,1.2766
5885.00,1.2740
5884.00,1.2715
5883.00,1.2689
5882.00,1.2663
5881.00,1.2637
5880.00,1.2609
5879.00,1.2580
5878.00,1.2552
5877.00,1.2524
5876.00,1.2496
5875.00,1.2467
5874.00,1.2438
5873.00,1.2411
5872.00,1.2384
5871.00,1.2355
5870.00,1.2325
5869.00,1.2292
5868.00,1.2258
5867.00,1.2222
5866.00,1.2185
5865.00,1.2149
5864.00,1.2115
5863.00,1.2081
5862.00,1.2045
5861.00,1.2007
5860.00,1.1966
5859.00,1.1923
5858.00,1.1879
5857.00,1.1835
5856.00,1.1792
5855.00,1.1749
5854.00,1.1708
5853.00,1.1666
5852.00,1.1623
5851.00,1.1580
5850.00,1.1536
5849.00,1.1490
5848.00,1.1444
5847.00,1.1396
5846.00,1.1346
5845.00,1.1297
5844.00,1.1247
5843.00,1.1197
5842.00,1.1147
5841.00,1.1097
5840.00,1.1048
5839.00,1.0999
5838.00,1.0949
5837.00,1.0898
5836.00,1.0844
5835.00,1.0789
5834.00,1.0731
5833.00,1.0674
5832.00,1.0618
5831.00,1.0562
5830.00,1.0507
5829.00,1.0450
5828.00,1.0393
5827.00,1.0334
5826.00,1.0274
5825.00,1.0214
5824.00,1.0155
5823.00,1.0096
5822.00,1.0037
5821.00,0.9978
5820.00,0.9919
5819.00,0.9858
5818.00,0.9797
5817.00,0.9736
5816.00,0.9674
5815.00,0.9611
5814.00,0.9548
5813.00,0.9485
5812.00,0.9422
5811.00,0.9359
5810.00,0.9297
5809.00,0.9235
5808.00,0.9172
5807.00,0.9108
5806.00,0.9045
5805.00,0.8982
5804.00,0.8919
5803.00,0.8856
5802.00,0.8794
5801.00,0.8732
5800.00,0.8670
5799.00,0.8609
5798.00,0.8548
5797.00,0.8488
5796.00,0.8428
5795.00,0.8369
5794.00,0.8311
5793.00,0.8254
5792.00,0.8197
5791.00,0.8141
5790.00,0.8086
5789.00,0.8031
5788.00,0.7977
5787.00,0.7924
5786.00,0.7871
5785.00,0.7820
5784.00,0.7770
5783.00,0.7721
5782.00,0.7673
5781.00,0.7627
5780.00,0.7583
5779.00,0.7540
5778.00,0.7500
5777.00,0.7462
5776.00,0.7426
5775.00,0.7390
5774.00,0.7357
5773.00,0.7326
5772.00,0.7297
5771.00,0.7269
5770.00,0.7244
5769.00,0.7220
5768.00,0.7199
5767.00,0.7178
5766.00,0.7158
5765.00,0.7141
5764.00,0.7127
5763.00,0.7115
5762.00,0.7106
5761.00,0.7099
5760.00,0.7095
5759.00,0.7093
5758.00,0.7093
5757.00,0.7094
5756.00,0.7097
5755.00,0.7102
5754.00,0.7108
5753.00,0.7117
5752.00,0.7128
5751.00,0.7141
5750.00,0.7157
5749.00,0.7174
5748.00,0.7193
5747.00,0.7213
5746.00,0.7236
5745.00,0.7260
5744.00,0.7286
5743.00,0.7315
5742.00,0.7345
5741.00,0.7376
5740.00,0.7408
5739.00,0.7441
5738.00,0.7476
5737.00,0.7513
5736.00,0.7552
5735.00,0.7592
5734.00,0.7633
5733.00,0.7675
5732.00,0.7717
5731.00,0.7760
5730.00,0.7805
5729.00,0.7851
5728.00,0.7899
5727.00,0.7948
5726.00,0.7998
5725.00,0.8049
5724.00,0.8101
5723.00,0.8153
5722.00,0.8207
5721.00,0.8260
5720.00,0.8314
5719.00,0.8369
5718.00,0.8424
5717.00,0.8480
5716.00,0.8537
5715.00,0.8593
5714.00,0.8651
5713.00,0.8709
5712.00,0.8768
5711.00,0.8827
5710.00,0.8887
5709.00,0.8947
5708.00,0.9008
5707.00,0.9069
5706.00,0.9130
5705.00,0.9191
5704.00,0.9254
5703.00,0.9316
5702.00,0.9377
5701.00,0.9439
5700.00,0.9501
5699.00,0.9563
5698.00,0.9626
5697.00,0.9690
5696.00,0.9754
5695.00,0.9818
5694.00,0.9881
5693.00,0.9943
5692.00,1.0003
5691.00,1.0064
5690.00,1.0124
5689.00,1.0185
5688.00,1.0247
5687.00,1.0309
5686.00,1.0370
5685.00,1.0431
5684.00,1.0491
5683.00,1.0550
5682.00,1.0610
5681.00,1.0670
5680.00,1.0729
5679.00,1.0787
5678.00,1.0844
5677.00,1.0901
5676.00,1.0956
5675.00,1.1010
5674.00,1.1063
5673.00,1.1116
5672.00,1.1171
5671.00,1.1226
5670.00,1.1282
5669.00,1.1338
5668.00,1.1394
5667.00,1.1448
5666.00,1.1501
5665.00,1.1552
5664.00,1.1601
5663.00,1.1649
5662.00,1.1696
5661.00,1.1743
5660.00,1.1789
5659.00,1.1836
5658.00,1.1882
5657.00,1.1929
5656.00,1.1974
5655.00,1.2017
5654.00,1.2060
5653.00,1.2103
5652.00,1.2146
5651.00,1.2188
5650.00,1.2228
5649.00,1.2267
5648.00,1.2304
5647.00,1.2343
5646.00,1.2382
5645.00,1.2421
5644.00,1.2461
5643.00,1.2499
5642.00,1.2537
5641.00,1.2573
5640.00,1.2610
5639.00,1.2646
5638.00,1.2682
5637.00,1.2716
5636.00,1.2749
5635.00,1.2779
5634.00,1.2808
5633.00,1.2837
5632.00,1.2867
5631.00,1.2896
5630.00,1.2925
5629.00,1.2953
5628.00,1.2981
5627.00,1.3007
5626.00,1.3032
5625.00,1.3056
5624.00,1.3079
5623.00,1.3102
5622.00,1.3125
5621.00,1.3149
5620.00,1.3173
5619.00,1.3195
5618.00,1.3215
5617.00,1.3233
5616.00,1.3249
5615.00,1.3265
5614.00,1.3281
5613.00,1.3298
5612.00,1.3316
5611.00,1.3334
5610.00,1.3351
5609.00,1.3369
5608.00,1.3387
5607.00,1.3404
5606.00,1.3419
5605.00,1.3431
5604.00,1.3441
5603.00,1.3449
5602.00,1.3455
5601.00,1.3463
5600.00,1.3473
5599.00,1.3486
5598.00,1.3500
5597.00,1.3513
5596.00,1.3524
5595.00,1.3533
5594.00,1.3540
5593.00,1.3544
5592.00,1.3545
5591.00,1.3546
5590.00,1.3547
5589.00,1.3548
5588.00,1.3549
5587.00,1.3548
5586.00,1.3548
5585.00,1.3551
5584.00,1.3556
5583.00,1.3562
5582.00,1.3568
5581.00,1.3571
5580.00,1.3571
5579.00,1.3568
5578.00,1.3563
5577.00,1.3558
5576.00,1.3551
5575.00,1.3544
5574.00,1.3534
5573.00,1.3524
5572.00,1.3515
5571.00,1.3507
5570.00,1.3501
5569.00,1.3496
5568.00,1.3490
5567.00,1.3481
5566.00,1.3468
5565.00,1.3454
5564.00,1.3440
5563.00,1.3428
5562.00,1.3417
5561.00,1.3407
5560.00,1.3395
5559.00,1.3382
5558.00,1.3367
5557.00,1.3351
5556.00,1.3333
5555.00,1.3315
5554.00,1.3296
5553.00,1.3276
5552.00,1.3255
5551.00,1.3235
5550.00,1.3215
5549.00,1.3195
5548.00,1.3174
5547.00,1.3152
5546.00,1.3130
5545.00,1.3106
5544.00,1.3078
5543.00,1.3049
5542.00,1.3021
5541.00,1.2994
5540.00,1.2967
5539.00,1.2941
5538.00,1.2913
5537.00,1.2886
5536.00,1.2856
5535.00,1.2824
5534.00,1.2792
5533.00,1.2761
5532.00,1.2730
5531.00,1.2698
5530.00,1.2667
5529.00,1.2636
5528.00,1.2604
5527.00,1.2570
5526.00,1.2533
5525.00,1.2494
5524.00,1.2453
5523.00,1.2411
5522.00,1.2370
5521.00,1.2331
5520.00,1.2292
5519.00,1.2252
5518.00,1.2211
5517.00,1.2168
5516.00,1.2123
5515.00,1.2077
5514.00,1.2032
5513.00,1.1988
5512.00,1.1945
5511.00,1.1900
5510.00,1.1855
5509.00,1.1808
5508.00,1.1760
5507.00,1.1709
5506.00,1.1657
5505.00,1.1605
5504.00,1.1553
5503.00,1.1501
5502.00,1.1447
5501.00,1.1394
5500.00,1.1342
5499.00,1.1289
5498.00,1.1235
5497.00,1.1180
5496.00,1.1124
5495.00,1.1066
5494.00,1.1007
5493.00,1.0947
5492.00,1.0887
5491.00,1.0827
5490.00,1.0766
5489.00,1.0705
5488.00,1.0642
5487.00,1.0578
5486.00,1.0515
5485.00,1.0451
5484.00,1.0387
5483.00,1.0323
5482.00,1.0260
5481.00,1.0196
5480.00,1.0132
5479.00,1.0067
5478.00,1.0002
5477.00,0.9935
5476.00,0.9866
5475.00,0.9796
5474.00,0.9726
5473.00,0.9656
5472.00,0.9586
5471.00,0.9517
5470.00,0.9449
5469.00,0.9381
5468.00,0.9312
5467.00,0.9242
5466.00,0.9170
5465.00,0.9099
5464.00,0.9028
5463.00,0.8958
5462.00,0.8888
5461.00,0.8819
5460.00,0.8749
5459.00,0.8680
5458.00,0.8611
5457.00,0.8544
5456.00,0.8477
5455.00,0.8411
5454.00,0.8344
5453.00,0.8277
5452.00,0.8211
5451.00,0.8146
5450.00,0.8082
5449.00,0.8020
5448.00,0.7958
5447.00,0.7897
5446.00,0.7836
5445.00,0.7777
5444.00,0.7719
5443.00,0.7662
5442.00,0.7607
5441.00,0.7554
5440.00,0.7502
5439.00,0.7452
5438.00,0.7405
5437.00,0.7359
5436.00,0.7316
5435.00,0.7274
5434.00,0.7233
5433.00,0.7194
5432.00,0.7157
5431.00,0.7122
5430.00,0.7089
5429.00,0.7059
5428.00,0.7030
5427.00,0.7003
5426.00,0.6977
5425.00,0.6955
5424.00,0.6935
5423.00,0.6918
5422.00,0.6905
5421.00,0.6895
5420.00,0.6887
5419.00,0.6880
5418.00,0.6875
5417.00,0.6874
5416.00,0.6874
5415.00,0.6876
5414.00,0.6879
5413.00,0.6885
5412.00,0.6894
5411.00,0.6905
5410.00,0.6918
5409.00,0.6935
5408.00,0.6953
5407.00,0.6975
5406.00,0.6998
5405.00,0.7023
5404.00,0.7051
5403.00,0.7082
5402.00,0.7115
5401.00,0.7150
5400.00,0.7186
5399.00,0.7223
5398.00,0.7263
5397.00,0.7304
5396.00,0.7347
5395.00,0.7392
5394.00,0.7439
5393.00,0.7487
5392.00,0.7537
5391.00,0.7589
5390.00,0.7642
5389.00,0.7697
5388.00,0.7754
5387.00,0.7812
5386.00,0.7871
5385.00,0.7930
5384.00,0.7991
5383.00,0.8053
5382.00,0.8115
5381.00,0.8178
5380.00,0.8242
5379.00,0.8306
5378.00,0.8371
5377.00,0.8437
5376.00,0.8504
5375.00,0.8571
5374.00,0.8640
5373.00,0.8708
5372.00,0.8778
5371.00,0.8848
5370.00,0.8919
5369.00,0.8990
5368.00,0.9061
5367.00,0.9131
5366.00,0.9200
5365.00,0.9270
5364.00,0.9340
5363.00,0.9409
5362.00,0.9479
5361.00,0.9550
5360.00,0.9623
5359.00,0.9695
5358.00,0.9767
5357.00,0.9838
5356.00,0.9908
5355.00,0.9976
5354.00,1.0044
5353.00,1.0112
5352.00,1.0181
5351.00,1.0250
5350.00,1.0318
5349.00,1.0385
5348.00,1.0453
5347.00,1.0520
5346.00,1.0587
5345.00,1.0654
5344.00,1.0719
5343.00,1.0785
5342.00,1.0850
5341.00,1.0915
5340.00,1.0978
5339.00,1.1040
5338.00,1.1101
5337.00,1.1163
5336.00,1.1224
5335.00,1.1285
5334.00,1.1346
5333.00,1.1407
5332.00,1.1465
5331.00,1.1522
5330.00,1.1577
5329.00,1.1632
5328.00,1.1689
5327.00,1.1746
5326.00,1.1803
5325.00,1.1859
5324.00,1.1913
5323.00,1.1966
5322.00,1.2018
5321.00,1.2071
5320.00,1.2122
5319.00,1.2172
5318.00,1.2220
5317.00,1.2267
5316.00,1.2315
5315.00,1.2363
5314.00,1.2411
5313.00,1.2460
5312.00,1.2508
5311.00,1.2554
5310.00,1.2600
5309.00,1.2644
5308.00,1.2687
5307.00,1.2729
5306.00,1.2771
5305.00,1.2812
5304.00,1.2852
5303.00,1.2893
5302.00,1.2932
5301.00,1.2971
5300.00,1.3009
5299.00,1.3048
5298.00,1.3086
5297.00,1.3123
5296.00,1.3160
5295.00,1.3196
5294.00,1.3230
5293.00,1.3263
5292.00,1.3294
5291.00,1.3324
5290.00,1.3354
5289.00,1.3384
5288.00,1.3413
5287.00,1.3443
5286.00,1.3472
5285.00,1.3500
5284.00,1.3526
5283.00,1.3552
5282.00,1.3576
5281.00,1.3600
5280.00,1.3624
5279.00,1.3649
5278.00,1.3675
5277.00,1.3699
5276.00,1.3722
5275.00,1.3743
5274.00,1.3762
5273.00,1.3778
5272.00,1.3794
5271.00,1.3811
5270.00,1.3830
5269.00,1.3852
5268.00,1.3872
5267.00,1.3889
5266.00,1.3903
5265.00,1.3915
5264.00,1.3926
5263.00,1.3939
5262.00,1.3953
5261.00,1.3967
5260.00,1.3980
5259.00,1.3991
5258.00,1.4001
5257.00,1.4012
5256.00,1.4023
5255.00,1.4034
5254.00,1.4045
5253.00,1.4054
5252.00,1.4061
5251.00,1.4067
5250.00,1.4073
5249.00,1.4077
5248.00,1.4081
5247.00,1.4084
5246.00,1.4086
5245.00,1.4087
5244.00,1.4087
5243.00,1.4087
5242.00,1.4085
5241.00,1.4084
5240.00,1.4082
5239.00,1.4081
5238.00,1.4079
5237.00,1.4077
5236.00,1.4075
5235.00,1.4073
5234.00,1.4071
5233.00,1.4068
5232.00,1.4065
5231.00,1.4059
5230.00,1.4051
5229.00,1.4040
5228.00,1.4028
5227.00,1.4018
5226.00,1.4009
5225.00,1.3999
5224.00,1.3990
5223.00,1.3979
5222.00,1.3968
5221.00,1.3955
5220.00,1.3942
5219.00,1.3928
5218.00,1.3913
5217.00,1.3897
5216.00,1.3878
5215.00,1.3860
5214.00,1.3842
5213.00,1.3824
5212.00,1.3808
5211.00,1.3793
5210.00,1.3776
5209.00,1.3758
5208.00,1.3736
5207.00,1.3712
5206.00,1.3686
5205.00,1.3659
5204.00,1.3633
5203.00,1.3607
5202.00,1.3582
5201.00,1.3556
5200.00,1.3530
5199.00,1.3503
5198.00,1.3476
5197.00,1.3447
5196.00,1.3416
5195.00,1.3382
5194.00,1.3347
5193.00,1.3312
5192.00,1.3279
5191.00,1.3247
5190.00,1.3216
5189.00,1.3185
5188.00,1.3153
5187.00,1.3120
5186.00,1.3084
5185.00,1.3047
5184.00,1.3008
5183.00,1.2967
5182.00,1.2924
5181.00,1.2881
5180.00,1.2839
5179.00,1.2799
5178.00,1.2759
5177.00,1.2718
5176.00,1.2674
5175.00,1.2627
5174.00,1.2579
5173.00,1.2530
5172.00,1.2481
5171.00,1.2431
5170.00,1.2382
5169.00,1.2333
5168.00,1.2284
5167.00,1.2236
5166.00,1.2186
5165.00,1.2135
5164.00,1.2082
5163.00,1.2027
5162.00,1.1971
5161.00,1.1914
5160.00,1.1856
5159.00,1.1798
5158.00,1.1740
5157.00,1.1682
5156.00,1.1624
5155.00,1.1565
5154.00,1.1504
5153.00,1.1441
5152.00,1.1377
5151.00,1.1312
5150.00,1.1247
5149.00,1.1181
5148.00,1.1114
5147.00,1.1047
5146.00,1.0979
5145.00,1.0911
5144.00,1.0843
5143.00,1.0774
5142.00,1.0705
5141.00,1.0634
5140.00,1.0562
5139.00,1.0489
5138.00,1.0415
5137.00,1.0342
5136.00,1.0270
5135.00,1.0197
5134.00,1.0124
5133.00,1.0049
5132.00,0.9972
5131.00,0.9895
5130.00,0.9817
5129.00,0.9740
5128.00,0.9662
5127.00,0.9585
5126.00,0.9508
5125.00,0.9432
5124.00,0.9355
5123.00,0.9279
5122.00,0.9203
5121.00,0.9127
5120.00,0.9050
5119.00,0.8973
5118.00,0.8896
5117.00,0.8820
5116.00,0.8744
5115.00,0.8669
5114.00,0.8594
5113.00,0.8519
5112.00,0.8446
5111.00,0.8373
5110.00,0.8301
5109.00,0.8230
5108.00,0.8161
5107.00,0.8092
5106.00,0.8026
5105.00,0.7960
5104.00,0.7896
5103.00,0.7833
5102.00,0.7772
5101.00,0.7712
5100.00,0.7654
5099.00,0.7599
5098.00,0.7545
5097.00,0.7493
5096.00,0.7444
5095.00,0.7396
5094.00,0.7350
5093.00,0.7307
5092.00,0.7266
5091.00,0.7227
5090.00,0.7192
5089.00,0.7158
5088.00,0.7128
5087.00,0.7100
5086.00,0.7076
5085.00,0.7054
5084.00,0.7035
5083.00,0.7019
5082.00,0.7005
5081.00,0.6994
5080.00,0.6986
5079.00,0.6980
5078.00,0.6978
5077.00,0.6978
5076.00,0.6982
5075.00,0.6987
5074.00,0.6996
5073.00,0.7007
5072.00,0.7021
5071.00,0.7038
5070.00,0.7056
5069.00,0.7078
5068.00,0.7102
5067.00,0.7128
5066.00,0.7158
5065.00,0.7190
5064.00,0.7225
5063.00,0.7262
5062.00,0.7301
5061.00,0.7342
5060.00,0.7385
5059.00,0.7430
5058.00,0.7478
5057.00,0.7528
5056.00,0.7580
5055.00,0.7634
5054.00,0.7688
5053.00,0.7745
5052.00,0.7803
5051.00,0.7862
5050.00,0.7924
5049.00,0.7987
5048.00,0.8052
5047.00,0.8118
5046.00,0.8185
5045.00,0.8253
5044.00,0.8323
5043.00,0.8393
5042.00,0.8465
5041.00,0.8537
5040.00,0.8610
5039.00,0.8683
5038.00,0.8757
5037.00,0.8832
5036.00,0.8908
5035.00,0.8985
5034.00,0.9062
5033.00,0.9141
5032.00,0.9219
5031.00,0.9298
5030.00,0.9377
5029.00,0.9455
5028.00,0.9532
5027.00,0.9610
5026.00,0.9688
5025.00,0.9766
5024.00,0.9846
5023.00,0.9925
5022.00,1.0004
5021.00,1.0083
5020.00,1.0161
5019.00,1.0239
5018.00,1.0316
5017.00,1.0393
5016.00,1.0471
5015.00,1.0548
5014.00,1.0625
5013.00,1.0701
5012.00,1.0776
5011.00,1.0851
5010.00,1.0925
5009.00,1.0997
5008.00,1.1070
5007.00,1.1142
5006.00,1.1215
5005.00,1.1287
5004.00,1.1359
5003.00,1.1430
5002.00,1.1500
5001.00,1.1569
5000.00,1.1637
4999.00,1.1705
4998.00,1.1772
4997.00,1.1839
4996.00,1.1905
4995.00,1.1971
4994.00,1.2036
4993.00,1.2101
4992.00,1.2164
4991.00,1.2225
4990.00,1.2285
4989.00,1.2345
4988.00,1.2404
4987.00,1.2463
4986.00,1.2522
4985.00,1.2579
4984.00,1.2635
4983.00,1.2691
4982.00,1.2746
4981.00,1.2802
4980.00,1.2855
4979.00,1.2908
4978.00,1.2959
4977.00,1.3009
4976.00,1.3059
4975.00,1.3109
4974.00,1.3158
4973.00,1.3206
4972.00,1.3252
4971.00,1.3296
4970.00,1.3339
4969.00,1.3382
4968.00,1.3425
4967.00,1.3469
4966.00,1.3512
4965.00,1.3555
4964.00,1.3597
4963.00,1.3638
4962.00,1.3677
4961.00,1.3714
4960.00,1.3750
4959.00,1.3786
4958.00,1.3822
4957.00,1.3858
4956.00,1.3892
4955.00,1.3927
4954.00,1.3959
4953.00,1.3991
4952.00,1.4023
4951.00,1.4056
4950.00,1.4089
4949.00,1.4121
4948.00,1.4152
4947.00,1.4183
4946.00,1.4212
4945.00,1.4239
4944.00,1.4265
4943.00,1.4291
4942.00,1.4317
4941.00,1.4343
4940.00,1.4367
4939.00,1.4390
4938.00,1.4412
4937.00,1.4432
4936.00,1.4452
4935.00,1.4473
4934.00,1.4494
4933.00,1.4514
4932.00,1.4531
4931.00,1.4545
4930.00,1.4558
4929.00,1.4571
4928.00,1.4585
4927.00,1.4601
4926.00,1.4617
4925.00,1.4633
4924.00,1.4647
4923.00,1.4660
4922.00,1.4673
4921.00,1.4686
4920.00,1.4698
4919.00,1.4708
4918.00,1.4716
4917.00,1.4723
4916.00,1.4730
4915.00,1.4737
4914.00,1.4745
4913.00,1.4754
4912.00,1.4763
4911.00,1.4770
4910.00,1.4774
4909.00,1.4775
4908.00,1.4775
4907.00,1.4776
4906.00,1.4780
4905.00,1.4785
4904.00,1.4788
4903.00,1.4789
4902.00,1.4787
4901.00,1.4782
4900.00,1.4777
4899.00,1.4772
4898.00,1.4769
4897.00,1.4768
4896.00,1.4766
4895.00,1.4762
4894.00,1.4756
4893.00,1.4749
4892.00,1.4741
4891.00,1.4732
4890.00,1.4723
4889.00,1.4714
4888.00,1.4704
4887.00,1.4692
4886.00,1.4679
4885.00,1.4665
4884.00,1.4653
4883.00,1.4642
4882.00,1.4632
4881.00,1.4620
4880.00,1.4604
4879.00,1.4585
4878.00,1.4564
4877.00,1.4543
4876.00,1.4524
4875.00,1.4506
4874.00,1.4488
4873.00,1.4468
4872.00,1.4446
4871.00,1.4425
4870.00,1.4403
4869.00,1.4383
4868.00,1.4362
4867.00,1.4339
4866.00,1.4314
4865.00,1.4287
4864.00,1.4259
4863.00,1.4232
4862.00,1.4204
4861.00,1.4176
4860.00,1.4147
4859.00,1.4116
4858.00,1.4085
4857.00,1.4054
4856.00,1.4024
4855.00,1.3993
4854.00,1.3962
4853.00,1.3928
4852.00,1.3893
4851.00,1.3855
4850.00,1.3815
4849.00,1.3776
4848.00,1.3738
4847.00,1.3700
4846.00,1.3662
4845.00,1.3624
4844.00,1.3584
4843.00,1.3542
4842.00,1.3499
4841.00,1.3454
4840.00,1.3409
4839.00,1.3362
4838.00,1.3315
4837.00,1.3265
4836.00,1.3215
4835.00,1.3165
4834.00,1.3115
4833.00,1.3066
4832.00,1.3017
4831.00,1.2968
4830.00,1.2918
4829.00,1.2865
4828.00,1.2810
4827.00,1.2754
4826.00,1.2697
4825.00,1.2639
4824.00,1.2581
4823.00,1.2522
4822.00,1.2462
4821.00,1.2401
4820.00,1.2340
4819.00,1.2279
4818.00,1.2217
4817.00,1.2154
4816.00,1.2088
4815.00,1.2021
4814.00,1.1953
4813.00,1.1884
4812.00,1.1816
4811.00,1.1747
4810.00,1.1677
4809.00,1.1605
4808.00,1.1531
4807.00,1.1457
4806.00,1.1383
4805.00,1.1308
4804.00,1.1233
4803.00,1.1156
4802.00,1.1079
4801.00,1.1001
4800.00,1.0922
4799.00,1.0842
4798.00,1.0762
4797.00,1.0681
4796.00,1.0599
4795.00,1.0516
4794.00,1.0433
4793.00,1.0350
4792.00,1.0264
4791.00,1.0179
4790.00,1.0092
4789.00,1.0006
4788.00,0.9920
4787.00,0.9833
4786.00,0.9746
4785.00,0.9659
4784.00,0.9571
4783.00,0.9483
4782.00,0.9395
4781.00,0.9306
4780.00,0.9217
4779.00,0.9129
4778.00,0.9041
4777.00,0.8954
4776.00,0.8867
4775.00,0.8781
4774.00,0.8696
4773.00,0.8611
4772.00,0.8527
4771.00,0.8444
4770.00,0.8362
4769.00,0.8281
4768.00,0.8200
4767.00,0.8121
4766.00,0.8042
4765.00,0.7966
4764.00,0.7891
4763.00,0.7818
4762.00,0.7747
4761.00,0.7679
4760.00,0.7612
4759.00,0.7548
4758.00,0.7487
4757.00,0.7429
4756.00,0.7373
4755.00,0.7319
4754.00,0.7269
4753.00,0.7221
4752.00,0.7176
4751.00,0.7134
4750.00,0.7096
4749.00,0.7061
4748.00,0.7030
4747.00,0.7002
4746.00,0.6978
4745.00,0.6957
4744.00,0.6939
4743.00,0.6923
4742.00,0.6912
4741.00,0.6904
4740.00,0.6899
4739.00,0.6899
4738.00,0.6902
4737.00,0.6908
4736.00,0.6918
4735.00,0.6931
4734.00,0.6948
4733.00,0.6968
4732.00,0.6991
4731.00,0.7018
4730.00,0.7048
4729.00,0.7080
4728.00,0.7116
4727.00,0.7155
4726.00,0.7196
4725.00,0.7241
4724.00,0.7288
4723.00,0.7337
4722.00,0.7390
4721.00,0.7444
4720.00,0.7501
4719.00,0.7560
4718.00,0.7621
4717.00,0.7684
4716.00,0.7749
4715.00,0.7816
4714.00,0.7885
4713.00,0.7956
4712.00,0.8029
4711.00,0.8103
4710.00,0.8179
4709.00,0.8257
4708.00,0.8336
4707.00,0.8416
4706.00,0.8497
4705.00,0.8579
4704.00,0.8663
4703.00,0.8747
4702.00,0.8832
4701.00,0.8918
4700.00,0.9005
4699.00,0.9092
4698.00,0.9180
4697.00,0.9269
4696.00,0.9358
4695.00,0.9448
4694.00,0.9539
4693.00,0.9631
4692.00,0.9723
4691.00,0.9815
4690.00,0.9906
4689.00,0.9997
4688.00,1.0087
4687.00,1.0177
4686.00,1.0266
4685.00,1.0355
4684.00,1.0443
4683.00,1.0532
4682.00,1.0621
4681.00,1.0709
4680.00,1.0796
4679.00,1.0881
4678.00,1.0965
4677.00,1.1049
4676.00,1.1132
4675.00,1.1215
4674.00,1.1296
4673.00,1.1377
4672.00,1.1457
4671.00,1.1536
4670.00,1.1615
4669.00,1.1692
4668.00,1.1769
4667.00,1.1844
4666.00,1.1919
4665.00,1.1994
4664.00,1.2069
4663.00,1.2143
4662.00,1.2216
4661.00,1.2288
4660.00,1.2358
4659.00,1.2427
4658.00,1.2495
4657.00,1.2562
4656.00,1.2629
4655.00,1.2696
4654.00,1.2763
4653.00,1.2830
4652.00,1.2896
4651.00,1.2962
4650.00,1.3026
4649.00,1.3090
4648.00,1.3153
4647.00,1.3215
4646.00,1.3276
4645.00,1.3335
4644.00,1.3394
4643.00,1.3451
4642.00,1.3508
4641.00,1.3562
4640.00,1.3615
4639.00,1.3667
4638.00,1.3718
4637.00,1.3771
4636.00,1.3825
4635.00,1.3879
4634.00,1.3931
4633.00,1.3980
4632.00,1.4028
4631.00,1.4075
4630.00,1.4122
4629.00,1.4169
4628.00,1.4216
4627.00,1.4262
4626.00,1.4307
4625.00,1.4350
4624.00,1.4392
4623.00,1.4434
4622.00,1.4474
4621.00,1.4514
4620.00,1.4554
4619.00,1.4594
4618.00,1.4631
4617.00,1.4668
4616.00,1.4705
4615.00,1.4742
4614.00,1.4780
4613.00,1.4816
4612.00,1.4850
4611.00,1.4882
4610.00,1.4911
4609.00,1.4941
4608.00,1.4971
4607.00,1.5001
4606.00,1.5031
4605.00,1.5059
4604.00,1.5087
4603.00,1.5114
4602.00,1.5140
4601.00,1.5166
4600.00,1.5191
4599.00,1.5215
4598.00,1.5239
4597.00,1.5261
4596.00,1.5282
4595.00,1.5302
4594.00,1.5321
4593.00,1.5340
4592.00,1.5359
4591.00,1.5379
4590.00,1.5397
4589.00,1.5414
4588.00,1.5432
4587.00,1.5451
4586.00,1.5468
4585.00,1.5484
4584.00,1.5497
4583.00,1.5508
4582.00,1.5519
4581.00,1.5530
4580.00,1.5540
4579.00,1.5551
4578.00,1.5562
4577.00,1.5572
4576.00,1.5581
4575.00,1.5589
4574.00,1.5594
4573.00,1.5598
4572.00,1.5602
4571.00,1.5607
4570.00,1.5611
4569.00,1.5615
4568.00,1.5618
4567.00,1.5620
4566.00,1.5622
4565.00,1.5624
4564.00,1.5626
4563.00,1.5627
4562.00,1.5627
4561.00,1.5625
4560.00,1.5621
4559.00,1.5617
4558.00,1.5613
4557.00,1.5608
4556.00,1.5604
4555.00,1.5600
4554.00,1.5595
4553.00,1.5589
4552.00,1.5583
4551.00,1.5578
4550.00,1.5573
4549.00,1.5567
4548.00,1.5557
4547.00,1.5543
4546.00,1.5527
4545.00,1.5510
4544.00,1.5495
4543.00,1.5483
4542.00,1.5471
4541.00,1.5457
4540.00,1.5442
4539.00,1.5424
4538.00,1.5406
4537.00,1.5389
4536.00,1.5372
4535.00,1.5354
4534.00,1.5334
4533.00,1.5312
4532.00,1.5289
4531.00,1.5266
4530.00,1.5242
4529.00,1.5217
4528.00,1.5190
4527.00,1.5163
4526.00,1.5137
4525.00,1.5113
4524.00,1.5090
4523.00,1.5065
4522.00,1.5038
4521.00,1.5008
4520.00,1.4978
4519.00,1.4946
4518.00,1.4914
4517.00,1.4880
4516.00,1.4845
4515.00,1.4810
4514.00,1.4775
4513.00,1.4739
4512.00,1.4702
4511.00,1.4664
4510.00,1.4625
4509.00,1.4585
4508.00,1.4546
4507.00,1.4506
4506.00,1.4464
4505.00,1.4421
4504.00,1.4377
4503.00,1.4332
4502.00,1.4287
4501.00,1.4242
4500.00,1.4196
4499.00,1.4150
4498.00,1.4102
4497.00,1.4053
4496.00,1.4001
4495.00,1.3948
4494.00,1.3894
4493.00,1.3841
4492.00,1.3788
4491.00,1.3734
4490.00,1.3678
4489.00,1.3621
4488.00,1.3562
4487.00,1.3501
4486.00,1.3439
4485.00,1.3377
4484.00,1.3314
4483.00,1.3252
4482.00,1.3189
4481.00,1.3125
4480.00,1.3059
4479.00,1.2991
4478.00,1.2922
4477.00,1.2852
4476.00,1.2782
4475.00,1.2711
4474.00,1.2638
4473.00,1.2564
4472.00,1.2488
4471.00,1.2412
4470.00,1.2335
4469.00,1.2257
4468.00,1.2178
4467.00,1.2099
4466.00,1.2018
4465.00,1.1937
4464.00,1.1854
4463.00,1.1770
4462.00,1.1684
4461.00,1.1598
4460.00,1.1510
4459.00,1.1421
4458.00,1.1331
4457.00,1.1240
4456.00,1.1149
4455.00,1.1057
4454.00,1.0964
4453.00,1.0871
4452.00,1.0777
4451.00,1.0682
4450.00,1.0586
4449.00,1.0490
4448.00,1.0393
4447.00,1.0296
4446.00,1.0199
4445.00,1.0101
4444.00,1.0001
4443.00,0.9902
4442.00,0.9802
4441.00,0.9702
4440.00,0.9602
4439.00,0.9502
4438.00,0.9403
4437.00,0.9304
4436.00,0.9205
4435.00,0.9106
4434.00,0.9009
4433.00,0.8912
4432.00,0.8816
4431.00,0.8722
4430.00,0.8630
4429.00,0.8539
4428.00,0.8449
4427.00,0.8360
4426.00,0.8274
4425.00,0.8190
4424.00,0.8108
4423.00,0.8029
4422.00,0.7953
4421.00,0.7880
4420.00,0.7809
4419.00,0.7742
4418.00,0.7677
4417.00,0.7616
4416.00,0.7558
4415.00,0.7504
4414.00,0.7454
4413.00,0.7409
4412.00,0.7368
4411.00,0.7331
4410.00,0.7298
4409.00,0.7269
4408.00,0.7245
4407.00,0.7225
4406.00,0.7209
4405.00,0.7198
4404.00,0.7191
4403.00,0.7189
4402.00,0.7192
4401.00,0.7199
4400.00,0.7210
4399.00,0.7226
4398.00,0.7246
4397.00,0.7270
4396.00,0.7298
4395.00,0.7330
4394.00,0.7366
4393.00,0.7405
4392.00,0.7448
4391.00,0.7495
4390.00,0.7545
4389.00,0.7597
4388.00,0.7653
4387.00,0.7713
4386.00,0.7775
4385.00,0.7840
4384.00,0.7908
4383.00,0.7977
4382.00,0.8049
4381.00,0.8123
4380.00,0.8199
4379.00,0.8277
4378.00,0.8357
4377.00,0.8438
4376.00,0.8519
4375.00,0.8602
4374.00,0.8686
4373.00,0.8772
4372.00,0.8858
4371.00,0.8945
4370.00,0.9033
4369.00,0.9121
4368.00,0.9209
4367.00,0.9296
4366.00,0.9384
4365.00,0.9473
4364.00,0.9563
4363.00,0.9652
4362.00,0.9742
4361.00,0.9832
4360.00,0.9922
4359.00,1.0013
4358.00,1.0104
4357.00,1.0197
4356.00,1.0290
4355.00,1.0383
4354.00,1.0476
4353.00,1.0570
4352.00,1.0663
4351.00,1.0757
4350.00,1.0851
4349.00,1.0946
4348.00,1.1040
4347.00,1.1133
4346.00,1.1226
4345.00,1.1319
4344.00,1.1411
4343.00,1.1502
4342.00,1.1593
4341.00,1.1683
4340.00,1.1772
4339.00,1.1860
4338.00,1.1948
4337.00,1.2036
4336.00,1.2124
4335.00,1.2212
4334.00,1.2300
4333.00,1.2387
4332.00,1.2473
4331.00,1.2558
4330.00,1.2643
4329.00,1.2726
4328.00,1.2809
4327.00,1.2892
4326.00,1.2974
4325.00,1.3055
4324.00,1.3135
4323.00,1.3216
4322.00,1.3295
4321.00,1.3373
4320.00,1.3448
4319.00,1.3521
4318.00,1.3594
4317.00,1.3665
4316.00,1.3737
4315.00,1.3808
4314.00,1.3879
4313.00,1.3948
4312.00,1.4016
4311.00,1.4083
4310.00,1.4148
4309.00,1.4211
4308.00,1.4274
4307.00,1.4336
4306.00,1.4397
4305.00,1.4458
4304.00,1.4519
4303.00,1.4579
4302.00,1.4638
4301.00,1.4696
4300.00,1.4752
4299.00,1.4806
4298.00,1.4858
4297.00,1.4911
4296.00,1.4966
4295.00,1.5021
4294.00,1.5075
4293.00,1.5127
4292.00,1.5175
4291.00,1.5220
4290.00,1.5263
4289.00,1.5306
4288.00,1.5351
4287.00,1.5396
4286.00,1.5442
4285.00,1.5487
4284.00,1.5530
4283.00,1.5571
4282.00,1.5609
4281.00,1.5645
4280.00,1.5681
4279.00,1.5717
4278.00,1.5754
4277.00,1.5790
4276.00,1.5827
4275.00,1.5863
4274.00,1.5897
4273.00,1.5929
4272.00,1.5960
4271.00,1.5990
4270.00,1.6019
4269.00,1.6049
4268.00,1.6079
4267.00,1.6107
4266.00,1.6134
4265.00,1.6158
4264.00,1.6181
4263.00,1.6206
4262.00,1.6232
4261.00,1.6259
4260.00,1.6286
4259.00,1.6310
4258.00,1.6332
4257.00,1.6352
4256.00,1.6372
4255.00,1.6391
4254.00,1.6411
4253.00,1.6431
4252.00,1.6451
4251.00,1.6470
4250.00,1.6486
4249.00,1.6501
4248.00,1.6515
4247.00,1.6528
4246.00,1.6540
4245.00,1.6552
4244.00,1.6564
4243.00,1.6576
4242.00,1.6589
4241.00,1.6602
4240.00,1.6615
4239.00,1.6627
4238.00,1.6639
4237.00,1.6649
4236.00,1.6658
4235.00,1.6667
4234.00,1.6675
4233.00,1.6682
4232.00,1.6689
4231.00,1.6694
4230.00,1.6696
4229.00,1.6697
4228.00,1.6698
4227.00,1.6698
4226.00,1.6698
4225.00,1.6698
4224.00,1.6697
4223.00,1.6696
4222.00,1.6694
4221.00,1.6693
4220.00,1.6690
4219.00,1.6685
4218.00,1.6678
4217.00,1.6673
4216.00,1.6669
4215.00,1.6666
4214.00,1.6661
4213.00,1.6655
4212.00,1.6646
4211.00,1.6636
4210.00,1.6624
4209.00,1.6611
4208.00,1.6597
4207.00,1.6582
4206.00,1.6568
4205.00,1.6553
4204.00,1.6536
4203.00,1.6520
4202.00,1.6503
4201.00,1.6487
4200.00,1.6472
4199.00,1.6457
4198.00,1.6439
4197.00,1.6418
4196.00,1.6395
4195.00,1.6372
4194.00,1.6350
4193.00,1.6329
4192.00,1.6309
4191.00,1.6288
4190.00,1.6265
4189.00,1.6241
4188.00,1.6217
4187.00,1.6191
4186.00,1.6166
4185.00,1.6140
4184.00,1.6113
4183.00,1.6084
4182.00,1.6054
4181.00,1.6021
4180.00,1.5987
4179.00,1.5953
4178.00,1.5917
4177.00,1.5881
4176.00,1.5845
4175.00,1.5808
4174.00,1.5773
4173.00,1.5737
4172.00,1.5700
4171.00,1.5660
4170.00,1.5619
4169.00,1.5574
4168.00,1.5530
4167.00,1.5485
4166.00,1.5441
4165.00,1.5397
4164.00,1.5352
4163.00,1.5305
4162.00,1.5258
4161.00,1.5211
4160.00,1.5163
4159.00,1.5113
4158.00,1.5062
4157.00,1.5008
4156.00,1.4953
4155.00,1.4899
4154.00,1.4844
4153.00,1.4789
4152.00,1.4732
4151.00,1.4674
4150.00,1.4614
4149.00,1.4554
4148.00,1.4492
4147.00,1.4429
4146.00,1.4366
4145.00,1.4302
4144.00,1.4238
4143.00,1.4172
4142.00,1.4104
4141.00,1.4035
4140.00,1.3964
4139.00,1.3892
4138.00,1.3819
4137.00,1.3745
4136.00,1.3670
4135.00,1.3594
4134.00,1.3516
4133.00,1.3438
4132.00,1.3359
4131.00,1.3279
4130.00,1.3197
4129.00,1.3113
4128.00,1.3029
4127.00,1.2943
4126.00,1.2857
4125.00,1.2770
4124.00,1.2683
4123.00,1.2593
4122.00,1.2500
4121.00,1.2406
4120.00,1.2311
4119.00,1.2216
4118.00,1.2120
4117.00,1.2022
4116.00,1.1922
4115.00,1.1821
4114.00,1.1719
4113.00,1.1616
4112.00,1.1512
4111.00,1.1407
4110.00,1.1301
4109.00,1.1195
4108.00,1.1087
4107.00,1.0978
4106.00,1.0867
4105.00,1.0755
4104.00,1.0643
4103.00,1.0530
4102.00,1.0417
4101.00,1.0304
4100.00,1.0190
4099.00,1.0077
4098.00,0.9964
4097.00,0.9851
4096.00,0.9738
4095.00,0.9625
4094.00,0.9513
4093.00,0.9402
4092.00,0.9291
4091.00,0.9183
4090.00,0.9075
4089.00,0.8969
4088.00,0.8865
4087.00,0.8763
4086.00,0.8662
4085.00,0.8564
4084.00,0.8468
4083.00,0.8374
4082.00,0.8284
4081.00,0.8196
4080.00,0.8112
4079.00,0.8030
4078.00,0.7951
4077.00,0.7876
4076.00,0.7805
4075.00,0.7739
4074.00,0.7676
4073.00,0.7618
4072.00,0.7564
4071.00,0.7515
4070.00,0.7471
4069.00,0.7432
4068.00,0.7398
4067.00,0.7370
4066.00,0.7348
4065.00,0.7331
4064.00,0.7320
4063.00,0.7315
4062.00,0.7316
4061.00,0.7322
4060.00,0.7334
4059.00,0.7352
4058.00,0.7376
4057.00,0.7405
4056.00,0.7439
4055.00,0.7479
4054.00,0.7523
4053.00,0.7573
4052.00,0.7626
4051.00,0.7684
4050.00,0.7746
4049.00,0.7812
4048.00,0.7882
4047.00,0.7955
4046.00,0.8031
4045.00,0.8110
4044.00,0.8192
4043.00,0.8277
4042.00,0.8365
4041.00,0.8455
4040.00,0.8547
4039.00,0.8642
4038.00,0.8738
4037.00,0.8837
4036.00,0.8938
4035.00,0.9041
4034.00,0.9146
4033.00,0.9252
4032.00,0.9360
4031.00,0.9470
4030.00,0.9581
4029.00,0.9693
4028.00,0.9806
4027.00,0.9921
4026.00,1.0036
4025.00,1.0153
4024.00,1.0271
4023.00,1.0389
4022.00,1.0506
4021.00,1.0623
4020.00,1.0741
4019.00,1.0858
4018.00,1.0974
4017.00,1.1089
4016.00,1.1204
4015.00,1.1318
4014.00,1.1432
4013.00,1.1545
4012.00,1.1657
4011.00,1.1769
4010.00,1.1880
4009.00,1.1990
4008.00,1.2100
4007.00,1.2209
4006.00,1.2317
4005.00,1.2422
4004.00,1.2527
4003.00,1.2631
4002.00,1.2735
4001.00,1.2837
4000.00,1.2938
3999.00,1.3037
3998.00,1.3135
3997.00,1.3233
3996.00,1.3331
3995.00,1.3427
3994.00,1.3523
3993.00,1.3617
3992.00,1.3710
3991.00,1.3803
3990.00,1.3894
3989.00,1.3984
3988.00,1.4072
3987.00,1.4158
3986.00,1.4243
3985.00,1.4327
3984.00,1.4411
3983.00,1.4493
3982.00,1.4574
3981.00,1.4654
3980.00,1.4733
3979.00,1.4813
3978.00,1.4890
3977.00,1.4966
3976.00,1.5039
3975.00,1.5111
3974.00,1.5180
3973.00,1.5250
3972.00,1.5319
3971.00,1.5388
3970.00,1.5456
3969.00,1.5521
3968.00,1.5585
3967.00,1.5649
3966.00,1.5713
3965.00,1.5776
3964.00,1.5839
3963.00,1.5901
3962.00,1.5961
3961.00,1.6019
3960.00,1.6075
3959.00,1.6129
3958.00,1.6181
3957.00,1.6235
3956.00,1.6288
3955.00,1.6341
3954.00,1.6391
3953.00,1.6439
3952.00,1.6486
3951.00,1.6531
3950.00,1.6577
3949.00,1.6622
3948.00,1.6668
3947.00,1.6713
3946.00,1.6758
3945.00,1.6802
3944.00,1.6845
3943.00,1.6887
3942.00,1.6928
3941.00,1.6968
3940.00,1.7005
3939.00,1.7041
3938.00,1.7077
3937.00,1.7113
3936.00,1.7149
3935.00,1.7183
3934.00,1.7214
3933.00,1.7244
3932.00,1.7274
3931.00,1.7306
3930.00,1.7338
3929.00,1.7370
3928.00,1.7400
3927.00,1.7429
3926.00,1.7458
3925.00,1.7485
3924.00,1.7512
3923.00,1.7539
3922.00,1.7565
3921.00,1.7591
3920.00,1.7616
3919.00,1.7640
3918.00,1.7661
3917.00,1.7680
3916.00,1.7698
3915.00,1.7716
3914.00,1.7735
3913.00,1.7754
3912.00,1.7773
3911.00,1.7791
3910.00,1.7808
3909.00,1.7825
3908.00,1.7841
3907.00,1.7856
3906.00,1.7871
3905.00,1.7887
3904.00,1.7903
3903.00,1.7918
3902.00,1.7930
3901.00,1.7940
3900.00,1.7947
3899.00,1.7955
3898.00,1.7963
3897.00,1.7971
3896.00,1.7978
3895.00,1.7984
3894.00,1.7988
3893.00,1.7989
3892.00,1.7988
3891.00,1.7989
3890.00,1.7994
3889.00,1.8004
3888.00,1.8013
3887.00,1.8018
3886.00,1.8018
3885.00,1.8016
3884.00,1.8013
3883.00,1.8011
3882.00,1.8007
3881.00,1.8000
3880.00,1.7990
3879.00,1.7980
3878.00,1.7974
3877.00,1.7971
3876.00,1.7969
3875.00,1.7965
3874.00,1.7959
3873.00,1.7950
3872.00,1.7938
3871.00,1.7925
3870.00,1.7910
3869.00,1.7897
3868.00,1.7885
3867.00,1.7875
3866.00,1.7865
3865.00,1.7853
3864.00,1.7838
3863.00,1.7820
3862.00,1.7800
3861.00,1.7779
3860.00,1.7756
3859.00,1.7735
3858.00,1.7719
3857.00,1.7707
3856.00,1.7696
3855.00,1.7684
3854.00,1.7666
3853.00,1.7644
3852.00,1.7621
3851.00,1.7601
3850.00,1.7575
3849.00,1.7539
3848.00,1.7496
3847.00,1.7451
3846.00,1.7410
3845.00,1.7373
3844.00,1.7340
3843.00,1.7307
3842.00,1.7275
3841.00,1.7243
3840.00,1.7211
3839.00,1.7178
3838.00,1.7142
3837.00,1.7102
3836.00,1.7061
3835.00,1.7021
3834.00,1.6984
3833.00,1.6944
3832.00,1.6899
3831.00,1.6852
3830.00,1.6805
3829.00,1.6760
3828.00,1.6713
3827.00,1.6664
3826.00,1.6613
3825.00,1.6561
3824.00,1.6510
3823.00,1.6461
3822.00,1.6411
3821.00,1.6358
3820.00,1.6305
3819.00,1.6254
3818.00,1.6203
3817.00,1.6145
3816.00,1.6079
3815.00,1.6010
3814.00,1.5943
3813.00,1.5882
3812.00,1.5823
3811.00,1.5762
3810.00,1.5697
3809.00,1.5630
3808.00,1.5560
3807.00,1.5489
3806.00,1.5420
3805.00,1.5354
3804.00,1.5287
3803.00,1.5215
3802.00,1.5132
3801.00,1.5042
3800.00,1.4952
3799.00,1.4868
3798.00,1.4787
3797.00,1.4703
3796.00,1.4614
3795.00,1.4523
3794.00,1.4433
3793.00,1.4345
3792.00,1.4258
3791.00,1.4170
3790.00,1.4078
3789.00,1.3984
3788.00,1.3889
3787.00,1.3792
3786.00,1.3694
3785.00,1.3592
3784.00,1.3487
3783.00,1.3381
3782.00,1.3274
3781.00,1.3167
3780.00,1.3056
3779.00,1.2944
3778.00,1.2831
3777.00,1.2717
3776.00,1.2602
3775.00,1.2487
3774.00,1.2371
3773.00,1.2255
3772.00,1.2137
3771.00,1.2015
3770.00,1.1889
3769.00,1.1761
3768.00,1.1632
3767.00,1.1502
3766.00,1.1369
3765.00,1.1234
3764.00,1.1099
3763.00,1.0966
3762.00,1.0835
3761.00,1.0702
3760.00,1.0564
3759.00,1.0425
3758.00,1.0285
3757.00,1.0146
3756.00,1.0011
3755.00,0.9880
3754.00,0.9754
3753.00,0.9629
3752.00,0.9501
3751.00,0.9368
3750.00,0.9230
3749.00,0.9093
3748.00,0.8963
3747.00,0.8846
3746.00,0.8735
3745.00,0.8620
3744.00,0.8498
3743.00,0.8381
3742.00,0.8281
3741.00,0.8193
3740.00,0.8109
3739.00,0.8026
3738.00,0.7949
3737.00,0.7885
3736.00,0.7834
3735.00,0.7793
3734.00,0.7760
3733.00,0.7733
3732.00,0.7709
3731.00,0.7693
3730.00,0.7689
3729.00,0.7696
3728.00,0.7711
3727.00,0.7732
3726.00,0.7757
3725.00,0.7788
3724.00,0.7825
3723.00,0.7866
3722.00,0.7910
3721.00,0.7957
3720.00,0.8007
3719.00,0.8062
3718.00,0.8122
3717.00,0.8185
3716.00,0.8251
3715.00,0.8320
3714.00,0.8394
3713.00,0.8475
3712.00,0.8562
3711.00,0.8656
3710.00,0.8753
3709.00,0.8852
3708.00,0.8956
3707.00,0.9069
3706.00,0.9193
3705.00,0.9326
3704.00,0.9468
3703.00,0.9615
3702.00,0.9768
3701.00,0.9926
3700.00,1.0084
3699.00,1.0240
3698.00,1.0390
3697.00,1.0537
3696.00,1.0682
3695.00,1.0825
3694.00,1.0966
3693.00,1.1106
3692.00,1.1247
3691.00,1.1390
3690.00,1.1535
3689.00,1.1686
3688.00,1.1840
3687.00,1.1992
3686.00,1.2136
3685.00,1.2271
3684.00,1.2398
3683.00,1.2519
3682.00,1.2638
3681.00,1.2758
3680.00,1.2882
3679.00,1.3006
3678.00,1.3128
3677.00,1.3250
3676.00,1.3379
3675.00,1.3518
3674.00,1.3659
3673.00,1.3792
3672.00,1.3912
3671.00,1.4026
3670.00,1.4140
3669.00,1.4254
3668.00,1.4369
3667.00,1.4481
3666.00,1.4587
3665.00,1.4688
3664.00,1.4787
3663.00,1.4884
3662.00,1.4980
3661.00,1.5076
3660.00,1.5174
3659.00,1.5270
3658.00,1.5365
3657.00,1.5461
3656.00,1.5562
3655.00,1.5663
3654.00,1.5759
3653.00,1.5848
3652.00,1.5931
3651.00,1.6012
3650.00,1.6095
3649.00,1.6184
3648.00,1.6275
3647.00,1.6363
3646.00,1.6443
3645.00,1.6518
3644.00,1.6591
3643.00,1.6662
3642.00,1.6731
3641.00,1.6800
3640.00,1.6871
3639.00,1.6943
3638.00,1.7014
3637.00,1.7084
3636.00,1.7154
3635.00,1.7224
3634.00,1.7294
3633.00,1.7365
3632.00,1.7437
3631.00,1.7509
3630.00,1.7579
3629.00,1.7654
3628.00,1.7734
3627.00,1.7815
3626.00,1.7890
3625.00,1.7956
3624.00,1.8015
3623.00,1.8065
3622.00,1.8111
3621.00,1.8156
3620.00,1.8206
3619.00,1.8257
3618.00,1.8307
3617.00,1.8354
3616.00,1.8396
3615.00,1.8432
3614.00,1.8462
3613.00,1.8493
3612.00,1.8526
3611.00,1.8558
3610.00,1.8587
3609.00,1.8614
3608.00,1.8643
3607.00,1.8674
3606.00,1.8703
3605.00,1.8734
3604.00,1.8770
3603.00,1.8812
3602.00,1.8858
3601.00,1.8905
3600.00,1.8950
3599.00,1.8991
3598.00,1.9027
3597.00,1.9063
3596.00,1.9100
3595.00,1.9138
3594.00,1.9175
3593.00,1.9208
3592.00,1.9238
3591.00,1.9261
3590.00,1.9281
3589.00,1.9300
3588.00,1.9323
3587.00,1.9346
3586.00,1.9367
3585.00,1.9386
3584.00,1.9402
3583.00,1.9418
3582.00,1.9433
3581.00,1.9447
3580.00,1.9461
3579.00,1.9474
3578.00,1.9483
3577.00,1.9490
3576.00,1.9494
3575.00,1.9498
3574.00,1.9502
3573.00,1.9511
3572.00,1.9524
3571.00,1.9538
3570.00,1.9548
3569.00,1.9554
3568.00,1.9555
3567.00,1.9553
3566.00,1.9551
3565.00,1.9552
3564.00,1.9555
3563.00,1.9558
3562.00,1.9559
3561.00,1.9559
3560.00,1.9557
3559.00,1.9555
3558.00,1.9552
3557.00,1.9550
3556.00,1.9548
3555.00,1.9543
3554.00,1.9536
3553.00,1.9530
3552.00,1.9529
3551.00,1.9531
3550.00,1.9531
3549.00,1.9529
3548.00,1.9527
3547.00,1.9528
3546.00,1.9531
3545.00,1.9534
3544.00,1.9535
3543.00,1.9529
3542.00,1.9519
3541.00,1.9509
3540.00,1.9504
3539.00,1.9502
3538.00,1.9499
3537.00,1.9495
3536.00,1.9487
3535.00,1.9473
3534.00,1.9456
3533.00,1.9439
3532.00,1.9424
3531.00,1.9409
3530.00,1.9393
3529.00,1.9378
3528.00,1.9364
3527.00,1.9349
3526.00,1.9332
3525.00,1.9313
3524.00,1.9295
3523.00,1.9276
3522.00,1.9255
3521.00,1.9234
3520.00,1.9213
3519.00,1.9191
3518.00,1.9169
3517.00,1.9147
3516.00,1.9127
3515.00,1.9108
3514.00,1.9088
3513.00,1.9067
3512.00,1.9043
3511.00,1.9016
3510.00,1.8984
3509.00,1.8951
3508.00,1.8921
3507.00,1.8890
3506.00,1.8858
3505.00,1.8824
3504.00,1.8788
3503.00,1.8751
3502.00,1.8712
3501.00,1.8672
3500.00,1.8633
3499.00,1.8592
3498.00,1.8550
3497.00,1.8505
3496.00,1.8461
3495.00,1.8416
3494.00,1.8371
3493.00,1.8325
3492.00,1.8278
3491.00,1.8228
3490.00,1.8176
3489.00,1.8124
3488.00,1.8073
3487.00,1.8021
3486.00,1.7965
3485.00,1.7908
3484.00,1.7849
3483.00,1.7790
3482.00,1.7730
3481.00,1.7670
3480.00,1.7608
3479.00,1.7544
3478.00,1.7480
3477.00,1.7414
3476.00,1.7349
3475.00,1.7283
3474.00,1.7214
3473.00,1.7143
3472.00,1.7070
3471.00,1.6994
3470.00,1.6917
3469.00,1.6839
3468.00,1.6760
3467.00,1.6682
3466.00,1.6602
3465.00,1.6521
3464.00,1.6438
3463.00,1.6351
3462.00,1.6262
3461.00,1.6171
3460.00,1.6079
3459.00,1.5985
3458.00,1.5890
3457.00,1.5794
3456.00,1.5698
3455.00,1.5602
3454.00,1.5503
3453.00,1.5402
3452.00,1.5299
3451.00,1.5193
3450.00,1.5085
3449.00,1.4975
3448.00,1.4863
3447.00,1.4750
3446.00,1.4635
3445.00,1.4519
3444.00,1.4403
3443.00,1.4286
3442.00,1.4169
3441.00,1.4050
3440.00,1.3929
3439.00,1.3806
3438.00,1.3681
3437.00,1.3556
3436.00,1.3430
3435.00,1.3305
3434.00,1.3180
3433.00,1.3055
3432.00,1.2930
3431.00,1.2804
3430.00,1.2679
3429.00,1.2554
3428.00,1.2432
3427.00,1.2312
3426.00,1.2195
3425.00,1.2082
3424.00,1.1973
3423.00,1.1869
3422.00,1.1769
3421.00,1.1675
3420.00,1.1586
3419.00,1.1503
3418.00,1.1427
3417.00,1.1357
3416.00,1.1294
3415.00,1.1237
3414.00,1.1185
3413.00,1.1137
3412.00,1.1092
3411.00,1.1051
3410.00,1.1010
3409.00,1.0970
3408.00,1.0928
3407.00,1.0884
3406.00,1.0835
3405.00,1.0781
3404.00,1.0721
3403.00,1.0654
3402.00,1.0580
3401.00,1.0500
3400.00,1.0415
3399.00,1.0327
3398.00,1.0239
3397.00,1.0150
3396.00,1.0064
3395.00,0.9982
3394.00,0.9905
3393.00,0.9834
3392.00,0.9771
3391.00,0.9718
3390.00,0.9674
3389.00,0.9641
3388.00,0.9618
3387.00,0.9605
3386.00,0.9603
3385.00,0.9609
3384.00,0.9625
3383.00,0.9650
3382.00,0.9684
3381.00,0.9727
3380.00,0.9778
3379.00,0.9838
3378.00,0.9905
3377.00,0.9980
3376.00,1.0063
3375.00,1.0152
3374.00,1.0247
3373.00,1.0348
3372.00,1.0454
3371.00,1.0565
3370.00,1.0679
3369.00,1.0798
3368.00,1.0921
3367.00,1.1048
3366.00,1.1178
3365.00,1.1310
3364.00,1.1443
3363.00,1.1579
3362.00,1.1716
3361.00,1.1854
3360.00,1.1993
3359.00,1.2134
3358.00,1.2275
3357.00,1.2417
3356.00,1.2559
3355.00,1.2701
3354.00,1.2843
3353.00,1.2985
3352.00,1.3126
3351.00,1.3267
3350.00,1.3407
3349.00,1.3546
3348.00,1.3684
3347.00,1.3820
3346.00,1.3954
3345.00,1.4088
3344.00,1.4221
3343.00,1.4352
3342.00,1.4482
3341.00,1.4610
3340.00,1.4737
3339.00,1.4861
3338.00,1.4983
3337.00,1.5104
3336.00,1.5224
3335.00,1.5343
3334.00,1.5461
3333.00,1.5577
3332.00,1.5692
3331.00,1.5805
3330.00,1.5917
3329.00,1.6027
3328.00,1.6137
3327.00,1.6244
3326.00,1.6349
3325.00,1.6452
3324.00,1.6553
3323.00,1.6652
3322.00,1.6748
3321.00,1.6843
3320.00,1.6936
3319.00,1.7027
3318.00,1.7116
3317.00,1.7205
3316.00,1.7293
3315.00,1.7380
3314.00,1.7466
3313.00,1.7549
3312.00,1.7631
3311.00,1.7711
3310.00,1.7791
3309.00,1.7874
3308.00,1.7960
3307.00,1.8046
3306.00,1.8127
3305.00,1.8201
3304.00,1.8268
3303.00,1.8328
3302.00,1.8387
3301.00,1.8446
3300.00,1.8509
3299.00,1.8575
3298.00,1.8643
3297.00,1.8714
3296.00,1.8785
3295.00,1.8854
3294.00,1.8918
3293.00,1.8979
3292.00,1.9037
3291.00,1.9092
3290.00,1.9144
3289.00,1.9195
3288.00,1.9248
3287.00,1.9300
3286.00,1.9351
3285.00,1.9402
3284.00,1.9455
3283.00,1.9510
3282.00,1.9564
3281.00,1.9618
3280.00,1.9671
3279.00,1.9723
3278.00,1.9774
3277.00,1.9825
3276.00,1.9876
3275.00,1.9923
3274.00,1.9969
3273.00,2.0016
3272.00,2.0065
3271.00,2.0113
3270.00,2.0156
3269.00,2.0193
3268.00,2.0225
3267.00,2.0255
3266.00,2.0285
3265.00,2.0318
3264.00,2.0352
3263.00,2.0386
3262.00,2.0418
3261.00,2.0450
3260.00,2.0480
3259.00,2.0507
3258.00,2.0533
3257.00,2.0562
3256.00,2.0595
3255.00,2.0630
3254.00,2.0661
3253.00,2.0689
3252.00,2.0712
3251.00,2.0734
3250.00,2.0756
3249.00,2.0779
3248.00,2.0804
3247.00,2.0828
3246.00,2.0848
3245.00,2.0867
3244.00,2.0885
3243.00,2.0899
3242.00,2.0910
3241.00,2.0921
3240.00,2.0935
3239.00,2.0952
3238.00,2.0971
3237.00,2.0988
3236.00,2.1004
3235.00,2.1016
3234.00,2.1027
3233.00,2.1038
3232.00,2.1050
3231.00,2.1063
3230.00,2.1073
3229.00,2.1083
3228.00,2.1092
3227.00,2.1100
3226.00,2.1106
3225.00,2.1110
3224.00,2.1112
3223.00,2.1112
3222.00,2.1111
3221.00,2.1112
3220.00,2.1113
3219.00,2.1111
3218.00,2.1107
3217.00,2.1103
3216.00,2.1102
3215.00,2.1100
3214.00,2.1094
3213.00,2.1084
3212.00,2.1072
3211.00,2.1061
3210.00,2.1053
3209.00,2.1047
3208.00,2.1040
3207.00,2.1031
3206.00,2.1018
3205.00,2.1006
3204.00,2.0997
3203.00,2.0988
3202.00,2.0981
3201.00,2.0973
3200.00,2.0961
3199.00,2.0945
3198.00,2.0925
3197.00,2.0905
3196.00,2.0886
3195.00,2.0864
3194.00,2.0841
3193.00,2.0817
3192.00,2.0794
3191.00,2.0771
3190.00,2.0746
3189.00,2.0722
3188.00,2.0700
3187.00,2.0677
3186.00,2.0652
3185.00,2.0624
3184.00,2.0593
3183.00,2.0559
3182.00,2.0523
3181.00,2.0488
3180.00,2.0454
3179.00,2.0420
3178.00,2.0387
3177.00,2.0356
3176.00,2.0324
3175.00,2.0288
3174.00,2.0246
3173.00,2.0201
3172.00,2.0157
3171.00,2.0113
3170.00,2.0069
3169.00,2.0024
3168.00,1.9978
3167.00,1.9931
3166.00,1.9883
3165.00,1.9836
3164.00,1.9792
3163.00,1.9748
3162.00,1.9700
3161.00,1.9647
3160.00,1.9591
3159.00,1.9529
3158.00,1.9465
3157.00,1.9400
3156.00,1.9334
3155.00,1.9269
3154.00,1.9204
3153.00,1.9140
3152.00,1.9077
3151.00,1.9012
3150.00,1.8947
3149.00,1.8880
3148.00,1.8812
3147.00,1.8739
3146.00,1.8660
3145.00,1.8580
3144.00,1.8499
3143.00,1.8418
3142.00,1.8338
3141.00,1.8257
3140.00,1.8174
3139.00,1.8088
3138.00,1.7998
3137.00,1.7905
3136.00,1.7811
3135.00,1.7716
3134.00,1.7619
3133.00,1.7522
3132.00,1.7422
3131.00,1.7321
3130.00,1.7217
3129.00,1.7112
3128.00,1.7006
3127.00,1.6896
3126.00,1.6781
3125.00,1.6662
3124.00,1.6541
3123.00,1.6418
3122.00,1.6295
3121.00,1.6171
3120.00,1.6044
3119.00,1.5913
3118.00,1.5777
3117.00,1.5639
3116.00,1.5500
3115.00,1.5357
3114.00,1.5213
3113.00,1.5066
3112.00,1.4918
3111.00,1.4765
3110.00,1.4609
3109.00,1.4450
3108.00,1.4289
3107.00,1.4125
3106.00,1.3959
3105.00,1.3791
3104.00,1.3620
3103.00,1.3446
3102.00,1.3269
3101.00,1.3090
3100.00,1.2909
3099.00,1.2726
3098.00,1.2543
3097.00,1.2359
3096.00,1.2175
3095.00,1.1992
3094.00,1.1809
3093.00,1.1628
3092.00,1.1450
3091.00,1.1276
3090.00,1.1106
3089.00,1.0941
3088.00,1.0782
3087.00,1.0629
3086.00,1.0484
3085.00,1.0347
3084.00,1.0219
3083.00,1.0101
3082.00,0.9995
3081.00,0.9900
3080.00,0.9817
3079.00,0.9747
3078.00,0.9690
3077.00,0.9648
3076.00,0.9621
3075.00,0.9609
3074.00,0.9612
3073.00,0.9629
3072.00,0.9661
3071.00,0.9707
3070.00,0.9766
3069.00,0.9838
3068.00,0.9921
3067.00,1.0016
3066.00,1.0121
3065.00,1.0236
3064.00,1.0361
3063.00,1.0494
3062.00,1.0636
3061.00,1.0784
3060.00,1.0940
3059.00,1.1102
3058.00,1.1270
3057.00,1.1442
3056.00,1.1620
3055.00,1.1801
3054.00,1.1985
3053.00,1.2171
3052.00,1.2360
3051.00,1.2551
3050.00,1.2744
3049.00,1.2938
3048.00,1.3134
3047.00,1.3332
3046.00,1.3531
3045.00,1.3733
3044.00,1.3937
3043.00,1.4141
3042.00,1.4345
3041.00,1.4549
3040.00,1.4754
3039.00,1.4958
3038.00,1.5162
3037.00,1.5365
3036.00,1.5565
3035.00,1.5762
3034.00,1.5954
3033.00,1.6143
3032.00,1.6328
3031.00,1.6509
3030.00,1.6686
3029.00,1.6861
3028.00,1.7034
3027.00,1.7204
3026.00,1.7371
3025.00,1.7534
3024.00,1.7696
3023.00,1.7856
3022.00,1.8014
3021.00,1.8169
3020.00,1.8322
3019.00,1.8471
3018.00,1.8618
3017.00,1.8764
3016.00,1.8908
3015.00,1.9051
3014.00,1.9191
3013.00,1.9329
3012.00,1.9464
3011.00,1.9597
3010.00,1.9728
3009.00,1.9858
3008.00,1.9988
3007.00,2.0116
3006.00,2.0242
3005.00,2.0366
3004.00,2.0492
3003.00,2.0619
3002.00,2.0745
3001.00,2.0868
3000.00,2.0987
2999.00,2.1102
2998.00,2.1213
2997.00,2.1321
2996.00,2.1428
2995.00,2.1533
2994.00,2.1637
2993.00,2.1744
2992.00,2.1853
2991.00,2.1962
2990.00,2.2067
2989.00,2.2167
2988.00,2.2265
2987.00,2.2359
2986.00,2.2453
2985.00,2.2545
2984.00,2.2638
2983.00,2.2730
2982.00,2.2818
2981.00,2.2905
2980.00,2.2991
2979.00,2.3079
2978.00,2.3172
2977.00,2.3272
2976.00,2.3379
2975.00,2.3489
2974.00,2.3606
2973.00,2.3736
2972.00,2.3887
2971.00,2.4058
2970.00,2.4248
2969.00,2.4459
2968.00,2.4690
2967.00,2.4941
2966.00,2.5211
2965.00,2.5504
2964.00,2.5817
2963.00,2.6145
2962.00,2.6484
2961.00,2.6836
2960.00,2.7194
2959.00,2.7537
2958.00,2.7845
2957.00,2.8119
2956.00,2.8378
2955.00,2.8630
2954.00,2.8872
2953.00,2.9103
2952.00,2.9333
2951.00,2.9589
2950.00,2.9893
2949.00,3.0244
2948.00,3.0602
2947.00,3.0908
2946.00,3.1138
2945.00,3.1326
2944.00,3.1524
2943.00,3.1761
2942.00,3.2036
2941.00,3.2322
2940.00,3.2561
2939.00,3.2686
2938.00,3.2679
2937.00,3.2581
2936.00,3.2447
2935.00,3.2294
2934.00,3.2106
2933.00,3.1855
2932.00,3.1526
2931.00,3.1133
2930.00,3.0706
2929.00,3.0268
2928.00,2.9813
2927.00,2.9328
2926.00,2.8819
2925.00,2.8305
2924.00,2.7802
2923.00,2.7314
2922.00,2.6846
2921.00,2.6396
2920.00,2.5963
2919.00,2.5547
2918.00,2.5161
2917.00,2.4814
2916.00,2.4510
2915.00,2.4244
2914.00,2.4017
2913.00,2.3831
2912.00,2.3688
2911.00,2.3586
2910.00,2.3520
2909.00,2.3483
2908.00,2.3464
2907.00,2.3453
2906.00,2.3445
2905.00,2.3443
2904.00,2.3446
2903.00,2.3453
2902.00,2.3460
2901.00,2.3464
2900.00,2.3464
2899.00,2.3463
2898.00,2.3466
2897.00,2.3480
2896.00,2.3505
2895.00,2.3535
2894.00,2.3568
2893.00,2.3605
2892.00,2.3645
2891.00,2.3688
2890.00,2.3734
2889.00,2.3788
2888.00,2.3848
2887.00,2.3907
2886.00,2.3961
2885.00,2.4015
2884.00,2.4077
2883.00,2.4151
2882.00,2.4236
2881.00,2.4327
2880.00,2.4423
2879.00,2.4520
2878.00,2.4621
2877.00,2.4729
2876.00,2.4855
2875.00,2.5000
2874.00,2.5165
2873.00,2.5347
2872.00,2.5541
2871.00,2.5742
2870.00,2.5950
2869.00,2.6168
2868.00,2.6397
2867.00,2.6630
2866.00,2.6852
2865.00,2.7046
2864.00,2.7189
2863.00,2.7256
2862.00,2.7223
2861.00,2.7089
2860.00,2.6870
2859.00,2.6592
2858.00,2.6275
2857.00,2.5933
2856.00,2.5574
2855.00,2.5213
2854.00,2.4864
2853.00,2.4541
2852.00,2.4251
2851.00,2.4000
2850.00,2.3793
2849.00,2.3636
2848.00,2.3524
2847.00,2.3451
2846.00,2.3405
2845.00,2.3381
2844.00,2.3378
2843.00,2.3389
2842.00,2.3409
2841.00,2.3434
2840.00,2.3460
2839.00,2.3486
2838.00,2.3511
2837.00,2.3532
2836.00,2.3551
2835.00,2.3570
2834.00,2.3592
2833.00,2.3619
2832.00,2.3646
2831.00,2.3665
2830.00,2.3673
2829.00,2.3673
2828.00,2.3669
2827.00,2.3666
2826.00,2.3665
2825.00,2.3666
2824.00,2.3664
2823.00,2.3658
2822.00,2.3645
2821.00,2.3632
2820.00,2.3619
2819.00,2.3607
2818.00,2.3596
2817.00,2.3583
2816.00,2.3565
2815.00,2.3541
2814.00,2.3514
2813.00,2.3490
2812.00,2.3471
2811.00,2.3451
2810.00,2.3428
2809.00,2.3401
2808.00,2.3374
2807.00,2.3349
2806.00,2.3324
2805.00,2.3297
2804.00,2.3267
2803.00,2.3235
2802.00,2.3204
2801.00,2.3173
2800.00,2.3138
2799.00,2.3098
2798.00,2.3056
2797.00,2.3016
2796.00,2.2979
2795.00,2.2943
2794.00,2.2906
2793.00,2.2866
2792.00,2.2823
2791.00,2.2776
2790.00,2.2726
2789.00,2.2677
2788.00,2.2627
2787.00,2.2575
2786.00,2.2520
2785.00,2.2463
2784.00,2.2403
2783.00,2.2341
2782.00,2.2279
2781.00,2.2219
2780.00,2.2159
2779.00,2.2100
2778.00,2.2041
2777.00,2.1982
2776.00,2.1919
2775.00,2.1849
2774.00,2.1773
2773.00,2.1696
2772.00,2.1620
2771.00,2.1546
2770.00,2.1472
2769.00,2.1397
2768.00,2.1322
2767.00,2.1245
2766.00,2.1165
2765.00,2.1081
2764.00,2.0993
2763.00,2.0900
2762.00,2.0806
2761.00,2.0713
2760.00,2.0620
2759.00,2.0526
2758.00,2.0430
2757.00,2.0332
2756.00,2.0232
2755.00,2.0126
2754.00,2.0016
2753.00,1.9905
2752.00,1.9794
2751.00,1.9680
2750.00,1.9561
2749.00,1.9437
2748.00,1.9311
2747.00,1.9184
2746.00,1.9056
2745.00,1.8924
2744.00,1.8789
2743.00,1.8650
2742.00,1.8507
2741.00,1.8363
2740.00,1.8217
2739.00,1.8068
2738.00,1.7917
2737.00,1.7763
2736.00,1.7606
2735.00,1.7446
2734.00,1.7284
2733.00,1.7118
2732.00,1.6948
2731.00,1.6773
2730.00,1.6594
2729.00,1.6411
2728.00,1.6225
2727.00,1.6035
2726.00,1.5840
2725.00,1.5639
2724.00,1.5435
2723.00,1.5227
2722.00,1.5016
2721.00,1.4802
2720.00,1.4586
2719.00,1.4367
2718.00,1.4146
2717.00,1.3924
2716.00,1.3700
2715.00,1.3475
2714.00,1.3250
2713.00,1.3025
2712.00,1.2800
2711.00,1.2575
2710.00,1.2353
2709.00,1.2136
2708.00,1.1926
2707.00,1.1722
2706.00,1.1528
2705.00,1.1343
2704.00,1.1170
2703.00,1.1010
2702.00,1.0864
2701.00,1.0735
2700.00,1.0622
2699.00,1.0527
2698.00,1.0450
2697.00,1.0394
2696.00,1.0357
2695.00,1.0341
2694.00,1.0344
2693.00,1.0366
2692.00,1.0408
2691.00,1.0469
2690.00,1.0550
2689.00,1.0652
2688.00,1.0774
2687.00,1.0915
2686.00,1.1075
2685.00,1.1252
2684.00,1.1444
2683.00,1.1649
2682.00,1.1863
2681.00,1.2084
2680.00,1.2307
2679.00,1.2527
2678.00,1.2740
2677.00,1.2941
2676.00,1.3131
2675.00,1.3309
2674.00,1.3479
2673.00,1.3641
2672.00,1.3797
2671.00,1.3948
2670.00,1.4092
2669.00,1.4230
2668.00,1.4361
2667.00,1.4487
2666.00,1.4610
2665.00,1.4736
2664.00,1.4870
2663.00,1.5013
2662.00,1.5168
2661.00,1.5335
2660.00,1.5512
2659.00,1.5697
2658.00,1.5886
2657.00,1.6078
2656.00,1.6270
2655.00,1.6461
2654.00,1.6648
2653.00,1.6831
2652.00,1.7009
2651.00,1.7181
2650.00,1.7349
2649.00,1.7511
2648.00,1.7669
2647.00,1.7824
2646.00,1.7975
2645.00,1.8124
2644.00,1.8269
2643.00,1.8411
2642.00,1.8552
2641.00,1.8695
2640.00,1.8840
2639.00,1.8984
2638.00,1.9124
2637.00,1.9263
2636.00,1.9403
2635.00,1.9544
2634.00,1.9685
2633.00,1.9823
2632.00,1.9956
2631.00,2.0082
2630.00,2.0207
2629.00,2.0334
2628.00,2.0460
2627.00,2.0583
2626.00,2.0699
2625.00,2.0810
2624.00,2.0918
2623.00,2.1027
2622.00,2.1137
2621.00,2.1245
2620.00,2.1349
2619.00,2.1448
2618.00,2.1543
2617.00,2.1636
2616.00,2.1729
2615.00,2.1820
2614.00,2.1910
2613.00,2.1999
2612.00,2.2087
2611.00,2.2170
2610.00,2.2247
2609.00,2.2320
2608.00,2.2395
2607.00,2.2471
2606.00,2.2546
2605.00,2.2621
2604.00,2.2692
2603.00,2.2759
2602.00,2.2823
2601.00,2.2889
2600.00,2.2960
2599.00,2.3034
2598.00,2.3103
2597.00,2.3163
2596.00,2.3220
2595.00,2.3279
2594.00,2.3345
2593.00,2.3415
2592.00,2.3485
2591.00,2.3547
2590.00,2.3600
2589.00,2.3647
2588.00,2.3696
2587.00,2.3751
2586.00,2.3809
2585.00,2.3865
2584.00,2.3914
2583.00,2.3960
2582.00,2.4006
2581.00,2.4056
2580.00,2.4108
2579.00,2.4156
2578.00,2.4203
2577.00,2.4253
2576.00,2.4305
2575.00,2.4353
2574.00,2.4394
2573.00,2.4427
2572.00,2.4457
2571.00,2.4487
2570.00,2.4522
2569.00,2.4561
2568.00,2.4603
2567.00,2.4643
2566.00,2.4684
2565.00,2.4727
2564.00,2.4770
2563.00,2.4806
2562.00,2.4829
2561.00,2.4844
2560.00,2.4857
2559.00,2.4871
2558.00,2.4888
2557.00,2.4910
2556.00,2.4939
2555.00,2.4977
2554.00,2.5019
2553.00,2.5062
2552.00,2.5099
2551.00,2.5123
2550.00,2.5133
2549.00,2.5136
2548.00,2.5139
2547.00,2.5149
2546.00,2.5167
2545.00,2.5191
2544.00,2.5218
2543.00,2.5244
2542.00,2.5264
2541.00,2.5276
2540.00,2.5280
2539.00,2.5283
2538.00,2.5291
2537.00,2.5308
2536.00,2.5330
2535.00,2.5349
2534.00,2.5362
2533.00,2.5367
2532.00,2.5367
2531.00,2.5367
2530.00,2.5372
2529.00,2.5383
2528.00,2.5392
2527.00,2.5394
2526.00,2.5392
2525.00,2.5391
2524.00,2.5393
2523.00,2.5396
2522.00,2.5399
2521.00,2.5405
2520.00,2.5413
2519.00,2.5417
2518.00,2.5412
2517.00,2.5399
2516.00,2.5383
2515.00,2.5368
2514.00,2.5359
2513.00,2.5354
2512.00,2.5348
2511.00,2.5338
2510.00,2.5328
2509.00,2.5322
2508.00,2.5322
2507.00,2.5325
2506.00,2.5326
2505.00,2.5323
2504.00,2.5308
2503.00,2.5280
2502.00,2.5246
2501.00,2.5214
2500.00,2.5192
2499.00,2.5177
2498.00,2.5163
2497.00,2.5145
2496.00,2.5122
2495.00,2.5095
2494.00,2.5066
2493.00,2.5042
2492.00,2.5024
2491.00,2.5007
2490.00,2.4990
2489.00,2.4974
2488.00,2.4956
2487.00,2.4933
2486.00,2.4902
2485.00,2.4864
2484.00,2.4823
2483.00,2.4781
2482.00,2.4741
2481.00,2.4703
2480.00,2.4669
2479.00,2.4635
2478.00,2.4599
2477.00,2.4563
2476.00,2.4527
2475.00,2.4491
2474.00,2.4452
2473.00,2.4412
2472.00,2.4370
2471.00,2.4328
2470.00,2.4284
2469.00,2.4239
2468.00,2.4194
2467.00,2.4149
2466.00,2.4108
2465.00,2.4065
2464.00,2.4016
2463.00,2.3957
2462.00,2.3893
2461.00,2.3829
2460.00,2.3765
2459.00,2.3700
2458.00,2.3638
2457.00,2.3581
2456.00,2.3529
2455.00,2.3475
2454.00,2.3413
2453.00,2.3345
2452.00,2.3276
2451.00,2.3209
2450.00,2.3142
2449.00,2.3074
2448.00,2.3005
2447.00,2.2933
2446.00,2.2860
2445.00,2.2787
2444.00,2.2711
2443.00,2.2629
2442.00,2.2542
2441.00,2.2452
2440.00,2.2360
2439.00,2.2265
2438.00,2.2167
2437.00,2.2069
2436.00,2.1975
2435.00,2.1882
2434.00,2.1787
2433.00,2.1689
2432.00,2.1588
2431.00,2.1484
2430.00,2.1377
2429.00,2.1269
2428.00,2.1160
2427.00,2.1051
2426.00,2.0941
2425.00,2.0831
2424.00,2.0718
2423.00,2.0600
2422.00,2.0476
2421.00,2.0346
2420.00,2.0213
2419.00,2.0080
2418.00,1.9947
2417.00,1.9814
2416.00,1.9678
2415.00,1.9537
2414.00,1.9389
2413.00,1.9236
2412.00,1.9078
2411.00,1.8915
2410.00,1.8749
2409.00,1.8579
2408.00,1.8407
2407.00,1.8230
2406.00,1.8047
2405.00,1.7859
2404.00,1.7667
2403.00,1.7471
2402.00,1.7270
2401.00,1.7066
2400.00,1.6857
2399.00,1.6645
2398.00,1.6429
2397.00,1.6208
2396.00,1.5984
2395.00,1.5756
2394.00,1.5524
2393.00,1.5291
2392.00,1.5055
2391.00,1.4818
2390.00,1.4581
2389.00,1.4343
2388.00,1.4107
2387.00,1.3873
2386.00,1.3644
2385.00,1.3424
2384.00,1.3218
2383.00,1.3029
2382.00,1.2862
2381.00,1.2722
2380.00,1.2615
2379.00,1.2546
2378.00,1.2515
2377.00,1.2519
2376.00,1.2550
2375.00,1.2592
2374.00,1.2632
2373.00,1.2656
2372.00,1.2658
2371.00,1.2641
2370.00,1.2620
2369.00,1.2614
2368.00,1.2642
2367.00,1.2720
2366.00,1.2853
2365.00,1.3038
2364.00,1.3265
2363.00,1.3520
2362.00,1.3793
2361.00,1.4073
2360.00,1.4349
2359.00,1.4619
2358.00,1.4876
2357.00,1.5119
2356.00,1.5349
2355.00,1.5556
2354.00,1.5740
2353.00,1.5902
2352.00,1.6050
2351.00,1.6193
2350.00,1.6344
2349.00,1.6516
2348.00,1.6711
2347.00,1.6926
2346.00,1.7142
2345.00,1.7330
2344.00,1.7478
2343.00,1.7618
2342.00,1.7809
2341.00,1.8056
2340.00,1.8303
2339.00,1.8511
2338.00,1.8684
2337.00,1.8852
2336.00,1.9021
2335.00,1.9195
2334.00,1.9374
2333.00,1.9557
2332.00,1.9741
2331.00,1.9932
2330.00,2.0140
2329.00,2.0375
2328.00,2.0619
2327.00,2.0849
2326.00,2.1037
2325.00,2.1180
2324.00,2.1299
2323.00,2.1415
2322.00,2.1552
2321.00,2.1718
2320.00,2.1913
2319.00,2.2118
2318.00,2.2304
2317.00,2.2452
2316.00,2.2554
2315.00,2.2623
2314.00,2.2679
2313.00,2.2749
2312.00,2.2854
2311.00,2.3002
2310.00,2.3179
2309.00,2.3359
2308.00,2.3516
2307.00,2.3637
2306.00,2.3725
2305.00,2.3790
2304.00,2.3839
2303.00,2.3879
2302.00,2.3911
2301.00,2.3941
2300.00,2.3972
2299.00,2.4006
2298.00,2.4041
2297.00,2.4079
2296.00,2.4121
2295.00,2.4165
2294.00,2.4211
2293.00,2.4257
2292.00,2.4303
2291.00,2.4350
2290.00,2.4396
2289.00,2.4441
2288.00,2.4488
2287.00,2.4541
2286.00,2.4603
2285.00,2.4666
2284.00,2.4721
2283.00,2.4764
2282.00,2.4804
2281.00,2.4848
2280.00,2.4903
2279.00,2.4964
2278.00,2.5030
2277.00,2.5098
2276.00,2.5172
2275.00,2.5250
2274.00,2.5328
2273.00,2.5404
2272.00,2.5476
2271.00,2.5546
2270.00,2.5615
2269.00,2.5684
2268.00,2.5752
2267.00,2.5819
2266.00,2.5881
2265.00,2.5937
2264.00,2.5987
2263.00,2.6039
2262.00,2.6094
2261.00,2.6150
2260.00,2.6199
2259.00,2.6239
2258.00,2.6273
2257.00,2.6311
2256.00,2.6354
2255.00,2.6400
2254.00,2.6446
2253.00,2.6488
2252.00,2.6528
2251.00,2.6572
2250.00,2.6623
2249.00,2.6675
2248.00,2.6717
2247.00,2.6746
2246.00,2.6770
2245.00,2.6801
2244.00,2.6840
2243.00,2.6881
2242.00,2.6920
2241.00,2.6955
2240.00,2.6990
2239.00,2.7023
2238.00,2.7051
2237.00,2.7072
2236.00,2.7089
2235.00,2.7109
2234.00,2.7137
2233.00,2.7169
2232.00,2.7194
2231.00,2.7207
2230.00,2.7214
2229.00,2.7222
2228.00,2.7237
2227.00,2.7260
2226.00,2.7291
2225.00,2.7327
2224.00,2.7362
2223.00,2.7397
2222.00,2.7430
2221.00,2.7461
2220.00,2.7485
2219.00,2.7502
2218.00,2.7514
2217.00,2.7528
2216.00,2.7545
2215.00,2.7561
2214.00,2.7574
2213.00,2.7584
2212.00,2.7596
2211.00,2.7613
2210.00,2.7638
2209.00,2.7665
2208.00,2.7684
2207.00,2.7685
2206.00,2.7674
2205.00,2.7666
2204.00,2.7671
2203.00,2.7683
2202.00,2.7689
2201.00,2.7681
2200.00,2.7663
2199.00,2.7651
2198.00,2.7659
2197.00,2.7685
2196.00,2.7713
2195.00,2.7723
2194.00,2.7711
2193.00,2.7689
2192.00,2.7677
2191.00,2.7681
2190.00,2.7695
2189.00,2.7705
2188.00,2.7707
2187.00,2.7705
2186.00,2.7705
2185.00,2.7704
2184.00,2.7699
2183.00,2.7694
2182.00,2.7698
2181.00,2.7709
2180.00,2.7718
2179.00,2.7716
2178.00,2.7701
2177.00,2.7677
2176.00,2.7648
2175.00,2.7618
2174.00,2.7597
2173.00,2.7586
2172.00,2.7578
2171.00,2.7560
2170.00,2.7530
2169.00,2.7498
2168.00,2.7475
2167.00,2.7458
2166.00,2.7435
2165.00,2.7397
2164.00,2.7354
2163.00,2.7319
2162.00,2.7297
2161.00,2.7280
2160.00,2.7258
2159.00,2.7227
2158.00,2.7188
2157.00,2.7148
2156.00,2.7110
2155.00,2.7078
2154.00,2.7050
2153.00,2.7020
2152.00,2.6985
2151.00,2.6951
2150.00,2.6923
2149.00,2.6901
2148.00,2.6881
2147.00,2.6856
2146.00,2.6824
2145.00,2.6779
2144.00,2.6723
2143.00,2.6666
2142.00,2.6615
2141.00,2.6575
2140.00,2.6537
2139.00,2.6497
2138.00,2.6453
2137.00,2.6406
2136.00,2.6355
2135.00,2.6303
2134.00,2.6252
2133.00,2.6197
2132.00,2.6132
2131.00,2.6057
2130.00,2.5982
2129.00,2.5919
2128.00,2.5872
2127.00,2.5834
2126.00,2.5791
2125.00,2.5734
2124.00,2.5661
2123.00,2.5579
2122.00,2.5500
2121.00,2.5428
2120.00,2.5358
2119.00,2.5286
2118.00,2.5211
2117.00,2.5135
2116.00,2.5059
2115.00,2.4982
2114.00,2.4905
2113.00,2.4825
2112.00,2.4738
2111.00,2.4643
2110.00,2.4543
2109.00,2.4443
2108.00,2.4344
2107.00,2.4247
2106.00,2.4151
2105.00,2.4056
2104.00,2.3961
2103.00,2.3861
2102.00,2.3754
2101.00,2.3640
2100.00,2.3520
2099.00,2.3399
2098.00,2.3281
2097.00,2.3165
2096.00,2.3052
2095.00,2.2938
2094.00,2.2820
2093.00,2.2695
2092.00,2.2564
2091.00,2.2431
2090.00,2.2296
2089.00,2.2158
2088.00,2.2014
2087.00,2.1864
2086.00,2.1710
2085.00,2.1550
2084.00,2.1383
2083.00,2.1209
2082.00,2.1032
2081.00,2.0854
2080.00,2.0674
2079.00,2.0490
2078.00,2.0300
2077.00,2.0104
2076.00,1.9904
2075.00,1.9699
2074.00,1.9491
2073.00,1.9279
2072.00,1.9064
2071.00,1.8846
2070.00,1.8626
2069.00,1.8406
2068.00,1.8191
2067.00,1.7979
2066.00,1.7769
2065.00,1.7558
2064.00,1.7346
2063.00,1.7131
2062.00,1.6912
2061.00,1.6687
2060.00,1.6453
2059.00,1.6208
2058.00,1.5953
2057.00,1.5688
2056.00,1.5415
2055.00,1.5137
2054.00,1.4859
2053.00,1.4583
2052.00,1.4315
2051.00,1.4057
2050.00,1.3813
2049.00,1.3587
2048.00,1.3382
2047.00,1.3202
2046.00,1.3048
2045.00,1.2923
2044.00,1.2829
2043.00,1.2766
2042.00,1.2734
2041.00,1.2731
2040.00,1.2759
2039.00,1.2818
2038.00,1.2906
2037.00,1.3021
2036.00,1.3160
2035.00,1.3318
2034.00,1.3495
2033.00,1.3688
2032.00,1.3898
2031.00,1.4121
2030.00,1.4357
2029.00,1.4604
2028.00,1.4863
2027.00,1.5129
2026.00,1.5403
2025.00,1.5680
2024.00,1.5961
2023.00,1.6242
2022.00,1.6522
2021.00,1.6802
2020.00,1.7080
2019.00,1.7356
2018.00,1.7627
2017.00,1.7894
2016.00,1.8157
2015.00,1.8419
2014.00,1.8680
2013.00,1.8937
2012.00,1.9187
2011.00,1.9429
2010.00,1.9665
2009.00,1.9897
2008.00,2.0126
2007.00,2.0348
2006.00,2.0563
2005.00,2.0773
2004.00,2.0978
2003.00,2.1181
2002.00,2.1384
2001.00,2.1586
2000.00,2.1784
1999.00,2.1974
1998.00,2.2159
1997.00,2.2340
1996.00,2.2518
1995.00,2.2692
1994.00,2.2861
1993.00,2.3026
1992.00,2.3186
1991.00,2.3343
1990.00,2.3502
1989.00,2.3667
1988.00,2.3837
1987.00,2.4001
1986.00,2.4153
1985.00,2.4291
1984.00,2.4421
1983.00,2.4548
1982.00,2.4676
1981.00,2.4807
1980.00,2.4936
1979.00,2.5058
1978.00,2.5174
1977.00,2.5290
1976.00,2.5407
1975.00,2.5519
1974.00,2.5618
1973.00,2.5703
1972.00,2.5782
1971.00,2.5869
1970.00,2.5969
1969.00,2.6079
1968.00,2.6189
1967.00,2.6291
1966.00,2.6384
1965.00,2.6472
1964.00,2.6555
1963.00,2.6642
1962.00,2.6738
1961.00,2.6844
1960.00,2.6949
1959.00,2.7039
1958.00,2.7114
1957.00,2.7183
1956.00,2.7252
1955.00,2.7321
1954.00,2.7394
1953.00,2.7474
1952.00,2.7557
1951.00,2.7637
1950.00,2.7709
1949.00,2.7778
1948.00,2.7850
1947.00,2.7927
1946.00,2.8006
1945.00,2.8084
1944.00,2.8157
1943.00,2.8219
1942.00,2.8270
1941.00,2.8319
1940.00,2.8373
1939.00,2.8428
1938.00,2.8474
1937.00,2.8510
1936.00,2.8550
1935.00,2.8607
1934.00,2.8677
1933.00,2.8738
1932.00,2.8781
1931.00,2.8813
1930.00,2.8855
1929.00,2.8916
1928.00,2.8986
1927.00,2.9052
1926.00,2.9108
1925.00,2.9160
1924.00,2.9210
1923.00,2.9245
1922.00,2.9259
1921.00,2.9265
1920.00,2.9286
1919.00,2.9337
1918.00,2.9409
1917.00,2.9478
1916.00,2.9527
1915.00,2.9553
1914.00,2.9567
1913.00,2.9584
1912.00,2.9615
1911.00,2.9661
1910.00,2.9708
1909.00,2.9741
1908.00,2.9753
1907.00,2.9755
1906.00,2.9759
1905.00,2.9771
1904.00,2.9797
1903.00,2.9833
1902.00,2.9875
1901.00,2.9915
1900.00,2.9950
1899.00,2.9979
1898.00,2.9996
1897.00,3.0002
1896.00,3.0006
1895.00,3.0019
1894.00,3.0041
1893.00,3.0056
1892.00,3.0055
1891.00,3.0045
1890.00,3.0033
1889.00,3.0024
1888.00,3.0025
1887.00,3.0048
1886.00,3.0094
1885.00,3.0143
1884.00,3.0174
1883.00,3.0179
1882.00,3.0166
1881.00,3.0141
1880.00,3.0114
1879.00,3.0103
1878.00,3.0118
1877.00,3.0149
1876.00,3.0175
1875.00,3.0178
1874.00,3.0154
1873.00,3.0122
1872.00,3.0110
1871.00,3.0131
1870.00,3.0165
1869.00,3.0174
1868.00,3.0146
1867.00,3.0108
1866.00,3.0088
1865.00,3.0086
1864.00,3.0084
1863.00,3.0068
1862.00,3.0034
1861.00,2.9987
1860.00,2.9946
1859.00,2.9932
1858.00,2.9941
1857.00,2.9945
1856.00,2.9925
1855.00,2.9894
1854.00,2.9871
1853.00,2.9863
1852.00,2.9864
1851.00,2.9868
1850.00,2.9862
1849.00,2.9826
1848.00,2.9766
1847.00,2.9721
1846.00,2.9721
1845.00,2.9735
1844.00,2.9703
1843.00,2.9611
1842.00,2.9504
1841.00,2.9428
1840.00,2.9388
1839.00,2.9372
1838.00,2.9366
1837.00,2.9354
1836.00,2.9325
1835.00,2.9277
1834.00,2.9220
1833.00,2.9163
1832.00,2.9110
1831.00,2.9060
1830.00,2.9001
1829.00,2.8926
1828.00,2.8839
1827.00,2.8756
1826.00,2.8677
1825.00,2.8584
1824.00,2.8478
1823.00,2.8380
1822.00,2.8307
1821.00,2.8247
1820.00,2.8185
1819.00,2.8115
1818.00,2.8036
1817.00,2.7946
1816.00,2.7851
1815.00,2.7767
1814.00,2.7703
1813.00,2.7645
1812.00,2.7576
1811.00,2.7495
1810.00,2.7407
1809.00,2.7317
1808.00,2.7236
1807.00,2.7168
1806.00,2.7109
1805.00,2.7039
1804.00,2.6947
1803.00,2.6840
1802.00,2.6726
1801.00,2.6598
1800.00,2.6452
1799.00,2.6292
1798.00,2.6124
1797.00,2.5943
1796.00,2.5748
1795.00,2.5549
1794.00,2.5345
1793.00,2.5121
1792.00,2.4855
1791.00,2.4555
1790.00,2.4244
1789.00,2.3942
1788.00,2.3649
1787.00,2.3353
1786.00,2.3035
1785.00,2.2684
1784.00,2.2308
1783.00,2.1929
1782.00,2.1554
1781.00,2.1171
1780.00,2.0771
1779.00,2.0369
1778.00,1.9986
1777.00,1.9635
1776.00,1.9329
1775.00,1.9090
1774.00,1.8942
1773.00,1.8895
1772.00,1.8939
1771.00,1.9056
1770.00,1.9225
1769.00,1.9425
1768.00,1.9624
1767.00,1.9785
1766.00,1.9890
1765.00,1.9958
1764.00,2.0019
1763.00,2.0102
1762.00,2.0227
1761.00,2.0415
1760.00,2.0678
1759.00,2.1021
1758.00,2.1435
1757.00,2.1909
1756.00,2.2427
1755.00,2.2968
1754.00,2.3522
1753.00,2.4083
1752.00,2.4638
1751.00,2.5164
1750.00,2.5637
1749.00,2.6064
1748.00,2.6472
1747.00,2.6877
1746.00,2.7291
1745.00,2.7724
1744.00,2.8171
1743.00,2.8618
1742.00,2.9063
1741.00,2.9524
1740.00,3.0006
1739.00,3.0486
1738.00,3.0939
1737.00,3.1376
1736.00,3.1816
1735.00,3.2267
1734.00,3.2740
1733.00,3.3235
1732.00,3.3707
1731.00,3.4098
1730.00,3.4438
1729.00,3.4871
1728.00,3.5535
1727.00,3.6463
1726.00,3.7611
1725.00,3.8895
1724.00,4.0229
1723.00,4.1642
1722.00,4.3527
1721.00,4.6442
1720.00,4.7974
1719.00,4.7090
1718.00,4.7410
1717.00,4.8980
1716.00,5.1203
1715.00,5.2900
1714.00,5.4091
1713.00,5.2568
1712.00,5.0877
1711.00,4.9803
1710.00,4.8090
1709.00,4.6772
1708.00,4.6238
1707.00,4.6645
1706.00,4.6537
1705.00,4.4511
1704.00,4.2623
1703.00,4.1406
1702.00,4.0374
1701.00,3.9065
1700.00,3.7443
1699.00,3.5930
1698.00,3.4813
1697.00,3.4062
1696.00,3.3539
1695.00,3.3157
1694.00,3.2882
1693.00,3.2694
1692.00,3.2544
1691.00,3.2374
1690.00,3.2155
1689.00,3.1911
1688.00,3.1698
1687.00,3.1565
1686.00,3.1489
1685.00,3.1372
1684.00,3.1123
1683.00,3.0761
1682.00,3.0393
1681.00,3.0078
1680.00,2.9801
1679.00,2.9552
1678.00,2.9346
1677.00,2.9183
1676.00,2.9025
1675.00,2.8820
1674.00,2.8558
1673.00,2.8277
1672.00,2.8012
1671.00,2.7760
1670.00,2.7489
1669.00,2.7171
1668.00,2.6800
1667.00,2.6403
1666.00,2.6004
1665.00,2.5596
1664.00,2.5161
1663.00,2.4682
1662.00,2.4163
1661.00,2.3629
1660.00,2.3098
1659.00,2.2573
1658.00,2.2064
1657.00,2.1596
1656.00,2.1200
1655.00,2.0878
1654.00,2.0590
1653.00,2.0284
1652.00,1.9955
1651.00,1.9657
1650.00,1.9416
1649.00,1.9211
1648.00,1.9044
1647.00,1.8933
1646.00,1.8871
1645.00,1.8846
1644.00,1.8857
1643.00,1.8909
1642.00,1.9006
1641.00,1.9155
1640.00,1.9356
1639.00,1.9603
1638.00,1.9891
1637.00,2.0222
1636.00,2.0578
1635.00,2.0910
1634.00,2.1165
1633.00,2.1339
1632.00,2.1467
1631.00,2.1587
1630.00,2.1729
1629.00,2.1911
1628.00,2.2127
1627.00,2.2365
1626.00,2.2621
1625.00,2.2901
1624.00,2.3209
1623.00,2.3529
1622.00,2.3842
1621.00,2.4139
1620.00,2.4425
1619.00,2.4720
1618.00,2.5042
1617.00,2.5386
1616.00,2.5712
1615.00,2.5970
1614.00,2.6156
1613.00,2.6305
1612.00,2.6442
1611.00,2.6569
1610.00,2.6680
1609.00,2.6780
1608.00,2.6881
1607.00,2.6993
1606.00,2.7134
1605.00,2.7313
1604.00,2.7516
1603.00,2.7715
1602.00,2.7890
1601.00,2.8046
1600.00,2.8192
1599.00,2.8330
1598.00,2.8468
1597.00,2.8613
1596.00,2.8757
1595.00,2.8885
1594.00,2.8999
1593.00,2.9129
1592.00,2.9288
1591.00,2.9454
1590.00,2.9599
1589.00,2.9710
1588.00,2.9794
1587.00,2.9856
1586.00,2.9908
1585.00,2.9970
1584.00,3.0055
1583.00,3.0165
1582.00,3.0298
1581.00,3.0442
1580.00,3.0577
1579.00,3.0686
1578.00,3.0770
1577.00,3.0847
1576.00,3.0927
1575.00,3.1007
1574.00,3.1087
1573.00,3.1174
1572.00,3.1265
1571.00,3.1360
1570.00,3.1456
1569.00,3.1541
1568.00,3.1588
1567.00,3.1588
1566.00,3.1571
1565.00,3.1577
1564.00,3.1627
1563.00,3.1718
1562.00,3.1856
1561.00,3.2047
1560.00,3.2256
1559.00,3.2392
1558.00,3.2415
1557.00,3.2387
1556.00,3.2376
1555.00,3.2384
1554.00,3.2399
1553.00,3.2410
1552.00,3.2400
1551.00,3.2369
1550.00,3.2361
1549.00,3.2428
1548.00,3.2571
1547.00,3.2732
1546.00,3.2864
1545.00,3.2968
1544.00,3.3050
1543.00,3.3096
1542.00,3.3094
1541.00,3.3055
1540.00,3.3011
1539.00,3.2988
1538.00,3.2997
1537.00,3.3026
1536.00,3.3028
1535.00,3.2970
1534.00,3.2896
1533.00,3.2882
1532.00,3.2954
1531.00,3.3063
1530.00,3.3150
1529.00,3.3200
1528.00,3.3222
1527.00,3.3217
1526.00,3.3184
1525.00,3.3139
1524.00,3.3112
1523.00,3.3134
1522.00,3.3224
1521.00,3.3355
1520.00,3.3447
1519.00,3.3451
1518.00,3.3408
1517.00,3.3396
1516.00,3.3442
1515.00,3.3513
1514.00,3.3572
1513.00,3.3604
1512.00,3.3604
1511.00,3.3569
1510.00,3.3511
1509.00,3.3451
1508.00,3.3399
1507.00,3.3366
1506.00,3.3374
1505.00,3.3420
1504.00,3.3443
1503.00,3.3389
1502.00,3.3269
1501.00,3.3155
1500.00,3.3093
1499.00,3.3087
1498.00,3.3116
1497.00,3.3147
1496.00,3.3141
1495.00,3.3091
1494.00,3.3051
1493.00,3.3067
1492.00,3.3118
1491.00,3.3145
1490.00,3.3131
1489.00,3.3118
1488.00,3.3142
1487.00,3.3183
1486.00,3.3202
1485.00,3.3188
1484.00,3.3146
1483.00,3.3099
1482.00,3.3075
1481.00,3.3060
1480.00,3.2998
1479.00,3.2863
1478.00,3.2708
1477.00,3.2609
1476.00,3.2597
1475.00,3.2657
1474.00,3.2746
1473.00,3.2792
1472.00,3.2702
1471.00,3.2479
1470.00,3.2256
1469.00,3.2145
1468.00,3.2145
1467.00,3.2182
1466.00,3.2209
1465.00,3.2237
1464.00,3.2279
1463.00,3.2302
1462.00,3.2271
1461.00,3.2213
1460.00,3.2174
1459.00,3.2176
1458.00,3.2207
1457.00,3.2250
1456.00,3.2308
1455.00,3.2424
1454.00,3.2663
1453.00,3.3075
1452.00,3.3668
1451.00,3.4348
1450.00,3.4910
1449.00,3.5185
1448.00,3.5167
1447.00,3.4955
1446.00,3.4661
1445.00,3.4355
1444.00,3.4057
1443.00,3.3772
1442.00,3.3507
1441.00,3.3265
1440.00,3.3025
1439.00,3.2777
1438.00,3.2552
1437.00,3.2400
1436.00,3.2355
1435.00,3.2415
1434.00,3.2550
1433.00,3.2723
1432.00,3.2901
1431.00,3.3045
1430.00,3.3127
1429.00,3.3162
1428.00,3.3209
1427.00,3.3319
1426.00,3.3501
1425.00,3.3703
1424.00,3.3848
1423.00,3.3917
1422.00,3.3973
1421.00,3.4063
1420.00,3.4133
1419.00,3.4082
1418.00,3.3890
1417.00,3.3632
1416.00,3.3356
1415.00,3.3065
1414.00,3.2783
1413.00,3.2543
1412.00,3.2336
1411.00,3.2137
1410.00,3.1945
1409.00,3.1785
1408.00,3.1661
1407.00,3.1540
1406.00,3.1395
1405.00,3.1227
1404.00,3.1047
1403.00,3.0864
1402.00,3.0685
1401.00,3.0504
1400.00,3.0307
1399.00,3.0103
1398.00,2.9922
1397.00,2.9775
1396.00,2.9626
1395.00,2.9431
1394.00,2.9195
1393.00,2.8961
1392.00,2.8751
1391.00,2.8550
1390.00,2.8338
1389.00,2.8103
1388.00,2.7839
1387.00,2.7548
1386.00,2.7254
1385.00,2.6986
1384.00,2.6743
1383.00,2.6503
1382.00,2.6251
1381.00,2.5986
1380.00,2.5708
1379.00,2.5413
1378.00,2.5102
1377.00,2.4777
1376.00,2.4435
1375.00,2.4067
1374.00,2.3672
1373.00,2.3263
1372.00,2.2858
1371.00,2.2470
1370.00,2.2102
1369.00,2.1760
1368.00,2.1459
1367.00,2.1218
1366.00,2.1052
1365.00,2.0964
1364.00,2.0945
1363.00,2.0979
1362.00,2.1054
1361.00,2.1178
1360.00,2.1371
1359.00,2.1655
1358.00,2.2042
1357.00,2.2536
1356.00,2.3135
1355.00,2.3836
1354.00,2.4641
1353.00,2.5543
1352.00,2.6525
1351.00,2.7541
1350.00,2.8507
1349.00,2.9312
1348.00,2.9851
1347.00,3.0073
1346.00,3.0014
1345.00,2.9789
1344.00,2.9555
1343.00,2.9454
1342.00,2.9575
1341.00,2.9930
1340.00,3.0415
1339.00,3.0786
1338.00,3.0750
1337.00,3.0223
1336.00,2.9390
1335.00,2.8491
1334.00,2.7676
1333.00,2.7019
1332.00,2.6551
1331.00,2.6278
1330.00,2.6192
1329.00,2.6270
1328.00,2.6486
1327.00,2.6819
1326.00,2.7249
1325.00,2.7748
1324.00,2.8283
1323.00,2.8825
1322.00,2.9367
1321.00,2.9925
1320.00,3.0513
1319.00,3.1128
1318.00,3.1765
1317.00,3.2426
1316.00,3.3104
1315.00,3.3763
1314.00,3.4344
1313.00,3.4799
1312.00,3.5047
1311.00,3.4940
1310.00,3.4352
1309.00,3.3342
1308.00,3.2119
1307.00,3.0880
1306.00,2.9743
1305.00,2.8765
1304.00,2.7967
1303.00,2.7353
1302.00,2.6911
1301.00,2.6619
1300.00,2.6458
1299.00,2.6417
1298.00,2.6495
1297.00,2.6682
1296.00,2.6951
1295.00,2.7261
1294.00,2.7592
1293.00,2.7948
1292.00,2.8327
1291.00,2.8704
1290.00,2.9047
1289.00,2.9355
1288.00,2.9653
1287.00,2.9960
1286.00,3.0276
1285.00,3.0602
1284.00,3.0933
1283.00,3.1249
1282.00,3.1514
1281.00,3.1714
1280.00,3.1873
1279.00,3.2020
1278.00,3.2172
1277.00,3.2333
1276.00,3.2497
1275.00,3.2650
1274.00,3.2777
1273.00,3.2883
1272.00,3.2972
1271.00,3.3035
1270.00,3.3072
1269.00,3.3122
1268.00,3.3236
1267.00,3.3420
1266.00,3.3620
1265.00,3.3781
1264.00,3.3896
1263.00,3.3998
1262.00,3.4110
1261.00,3.4217
1260.00,3.4282
1259.00,3.4303
1258.00,3.4327
1257.00,3.4410
1256.00,3.4570
1255.00,3.4772
1254.00,3.4940
1253.00,3.5047
1252.00,3.5143
1251.00,3.5268
1250.00,3.5402
1249.00,3.5512
1248.00,3.5585
1247.00,3.5633
1246.00,3.5675
1245.00,3.5716
1244.00,3.5764
1243.00,3.5845
1242.00,3.5983
1241.00,3.6185
1240.00,3.6390
1239.00,3.6467
1238.00,3.6411
1237.00,3.6405
1236.00,3.6617
1235.00,3.7016
1234.00,3.7388
1233.00,3.7559
1232.00,3.7563
1231.00,3.7503
1230.00,3.7420
1229.00,3.7378
1228.00,3.7517
1227.00,3.7920
1226.00,3.8448
1225.00,3.8838
1224.00,3.9057
1223.00,3.9310
1222.00,3.9653
1221.00,3.9788
1220.00,3.9379
1219.00,3.8566
1218.00,3.7695
1217.00,3.6922
1216.00,3.6285
1215.00,3.5832
1214.00,3.5609
1213.00,3.5620
1212.00,3.5799
1211.00,3.6030
1210.00,3.6196
1209.00,3.6257
1208.00,3.6277
1207.00,3.6353
1206.00,3.6496
1205.00,3.6605
1204.00,3.6570
1203.00,3.6425
1202.00,3.6331
1201.00,3.6449
1200.00,3.6859
1199.00,3.7493
1198.00,3.8066
1197.00,3.8199
1196.00,3.7856
1195.00,3.7419
1194.00,3.7251
1193.00,3.7464
1192.00,3.7938
1191.00,3.8364
1190.00,3.8448
1189.00,3.8233
1188.00,3.7930
1187.00,3.7651
1186.00,3.7458
1185.00,3.7420
1184.00,3.7638
1183.00,3.8163
1182.00,3.8791
1181.00,3.9069
1180.00,3.8788
1179.00,3.8234
1178.00,3.7802
1177.00,3.7645
1176.00,3.7709
1175.00,3.7875
1174.00,3.8035
1173.00,3.8137
1172.00,3.8172
1171.00,3.8138
1170.00,3.8100
1169.00,3.8165
1168.00,3.8405
1167.00,3.8818
1166.00,3.9256
1165.00,3.9363
1164.00,3.8950
1163.00,3.8334
1162.00,3.7876
1161.00,3.7623
1160.00,3.7375
1159.00,3.7002
1158.00,3.6714
1157.00,3.6779
1156.00,3.7113
1155.00,3.7305
1154.00,3.7222
1153.00,3.7186
1152.00,3.7414
1151.00,3.7840
1150.00,3.8184
1149.00,3.8170
1148.00,3.7833
1147.00,3.7436
1146.00,3.7159
1145.00,3.7038
1144.00,3.7062
1143.00,3.7218
1142.00,3.7480
1141.00,3.7869
1140.00,3.8253
1139.00,3.8327
1138.00,3.8169
1137.00,3.8140
1136.00,3.8385
1135.00,3.8598
1134.00,3.8296
1133.00,3.7558
1132.00,3.6878
1131.00,3.6566
1130.00,3.6647
1129.00,3.6961
1128.00,3.7284
1127.00,3.7519
1126.00,3.7798
1125.00,3.8274
1124.00,3.8927
1123.00,3.9602
1122.00,4.0024
1121.00,4.0078
1120.00,4.0039
1119.00,4.0224
1118.00,4.0683
1117.00,4.1115
1116.00,4.1114
1115.00,4.0761
1114.00,4.0677
1113.00,4.1193
1112.00,4.1837
1111.00,4.1619
1110.00,4.0684
1109.00,3.9622
1108.00,3.8811
1107.00,3.8398
1106.00,3.8282
1105.00,3.8366
1104.00,3.8605
1103.00,3.8940
1102.00,3.9276
1101.00,3.9370
1100.00,3.9228
1099.00,3.9246
1098.00,3.9625
1097.00,4.0102
1096.00,4.0156
1095.00,3.9806
1094.00,3.9521
1093.00,3.9590
1092.00,4.0039
1091.00,4.0630
1090.00,4.1090
1089.00,4.1496
1088.00,4.1956
1087.00,4.2243
1086.00,4.1968
1085.00,4.1107
1084.00,4.0146
1083.00,3.9480
1082.00,3.9036
1081.00,3.8568
1080.00,3.8144
1079.00,3.7907
1078.00,3.7809
1077.00,3.7761
1076.00,3.7743
1075.00,3.7757
1074.00,3.7776
1073.00,3.7731
1072.00,3.7582
1071.00,3.7386
1070.00,3.7269
1069.00,3.7356
1068.00,3.7701
1067.00,3.8190
1066.00,3.8583
1065.00,3.8853
1064.00,3.9113
1063.00,3.9213
1062.00,3.8826
1061.00,3.8056
1060.00,3.7340
1059.00,3.6916
1058.00,3.6816
1057.00,3.6954
1056.00,3.7203
1055.00,3.7508
1054.00,3.7760
1053.00,3.7778
1052.00,3.7599
1051.00,3.7427
1050.00,3.7335
1049.00,3.7151
1048.00,3.6764
1047.00,3.6400
1046.00,3.6277
1045.00,3.6319
1044.00,3.6292
1043.00,3.6095
1042.00,3.5824
1041.00,3.5582
1040.00,3.5394
1039.00,3.5260
1038.00,3.5157
1037.00,3.5009
1036.00,3.4782
1035.00,3.4550
1034.00,3.4368
1033.00,3.4189
1032.00,3.3955
1031.00,3.3675
1030.00,3.3417
1029.00,3.3225
1028.00,3.3056
1027.00,3.2883
1026.00,3.2750
1025.00,3.2700
1024.00,3.2709
1023.00,3.2743
1022.00,3.2816
1021.00,3.2990
1020.00,3.3324
1019.00,3.3840
1018.00,3.4484
1017.00,3.5065
1016.00,3.5309
1015.00,3.5109
1014.00,3.4633
1013.00,3.4038
1012.00,3.3380
1011.00,3.2747
1010.00,3.2256
1009.00,3.1936
1008.00,3.1677
1007.00,3.1349
1006.00,3.0961
1005.00,3.0621
1004.00,3.0397
1003.00,3.0276
1002.00,3.0223
1001.00,3.0230
1000.00,3.0320
999.00,3.0504
998.00,3.0774
997.00,3.1099
996.00,3.1454
995.00,3.1845
994.00,3.2312
993.00,3.2853
992.00,3.3337
991.00,3.3559
990.00,3.3503
989.00,3.3360
988.00,3.3291
987.00,3.3334
986.00,3.3473
985.00,3.3739
984.00,3.4186
983.00,3.4813
982.00,3.5526
981.00,3.6214
980.00,3.6813
979.00,3.7260
978.00,3.7450
977.00,3.7372
976.00,3.7208
975.00,3.7133
974.00,3.7205
973.00,3.7464
972.00,3.7984
971.00,3.8733
970.00,3.9468
969.00,3.9975
968.00,4.0313
967.00,4.0652
966.00,4.1234
965.00,4.1894
964.00,4.1783
963.00,4.1489
962.00,4.1952
961.00,4.2918
960.00,4.2654
959.00,4.1558
958.00,4.1362
957.00,4.2187
956.00,4.2748
955.00,4.2215
954.00,4.1971
953.00,4.2418
952.00,4.3407
951.00,4.4686
950.00,4.5784
949.00,4.6418
948.00,4.7036
947.00,4.6910
946.00,4.5276
945.00,4.4294
944.00,4.4271
943.00,4.4296
942.00,4.4085
941.00,4.3372
940.00,4.2080
939.00,4.1573
938.00,4.2141
937.00,4.2759
936.00,4.2042
935.00,4.0763
934.00,3.9846
933.00,3.9688
932.00,4.0552
931.00,4.2309
930.00,4.3170
929.00,4.2815
928.00,4.2712
927.00,4.2079
926.00,4.1168
925.00,4.1110
924.00,4.1952
923.00,4.3010
922.00,4.3758
921.00,4.4338
920.00,4.4822
919.00,4.4976
918.00,4.4805
917.00,4.4635
916.00,4.4932
915.00,4.4916
914.00,4.3237
913.00,4.1924
912.00,4.1550
911.00,4.1969
910.00,4.3234
909.00,4.5023
908.00,4.6423
907.00,4.7519
906.00,4.8559
905.00,4.7706
904.00,4.5445
903.00,4.3658
902.00,4.2720
901.00,4.2644
900.00,4.3191
899.00,4.3782
898.00,4.3714
897.00,4.3022
896.00,4.2414
895.00,4.2211
894.00,4.1861
893.00,4.1053
892.00,4.0709
891.00,4.1447
890.00,4.3914
889.00,4.7607
888.00,4.5735
887.00,4.5102
886.00,4.4148
885.00,4.3183
884.00,4.3882
883.00,4.5551
882.00,4.5478
881.00,4.4755
880.00,4.4406
879.00,4.4029
878.00,4.3594
877.00,4.2816
876.00,4.1814
875.00,4.1437
874.00,4.1684
873.00,4.1884
872.00,4.2122
871.00,4.2724
870.00,4.3297
869.00,4.4075
868.00,4.6141
867.00,4.8405
866.00,4.6822
865.00,4.5415
864.00,4.4927
863.00,4.4563
862.00,4.3617
861.00,4.2327
860.00,4.1211
859.00,4.0502
858.00,4.0198
857.00,4.0181
856.00,4.0465
855.00,4.1230
854.00,4.2235
853.00,4.2443
852.00,4.2155
851.00,4.2343
850.00,4.3259
849.00,4.5071
848.00,4.7647
847.00,4.7376
846.00,4.4661
845.00,4.2911
844.00,4.1966
843.00,4.1185
842.00,4.0412
841.00,3.9979
840.00,3.9978
839.00,4.0404
838.00,4.1272
837.00,4.2244
836.00,4.2887
835.00,4.3490
834.00,4.4165
833.00,4.4394
832.00,4.4463
831.00,4.4243
830.00,4.3441
829.00,4.2365
828.00,4.1296
827.00,4.0594
826.00,4.0445
825.00,4.0748
824.00,4.1241
823.00,4.1478
822.00,4.1050
821.00,4.0370
820.00,3.9959
819.00,3.9791
818.00,3.9466
817.00,3.8712
816.00,3.8142
815.00,3.8389
814.00,3.9969
813.00,4.2924
812.00,4.6738
811.00,5.1922
810.00,4.4927
809.00,4.2439
808.00,4.1499
807.00,4.1153
806.00,4.1308
805.00,4.1095
804.00,4.0565
803.00,4.0557
802.00,4.1455
801.00,4.2301
800.00,4.1621
799.00,4.1165
798.00,4.1714
797.00,4.4059
796.00,5.0365
795.00,4.6204
794.00,4.5856
793.00,4.8977
792.00,4.4694
791.00,4.1979
790.00,4.1083
789.00,4.1370
788.00,4.2302
787.00,4.2408
786.00,4.2018
785.00,4.2359
784.00,4.3208
783.00,4.4687
782.00,4.7331
781.00,4.8609
780.00,4.8361
779.00,4.8290
778.00,4.7313
777.00,4.5831
776.00,4.4683
775.00,4.3461
774.00,4.2599
773.00,4.3130
772.00,4.4724
771.00,4.4647
770.00,4.4094
769.00,4.3699
768.00,4.2574
767.00,4.3329
766.00,4.4690
765.00,4.1443
764.00,3.9927
763.00,4.0210
762.00,4.2244
761.00,4.7545
760.00,4.8195
759.00,4.7546
758.00,4.7993
757.00,4.5199
756.00,4.4202
755.00,4.4188
754.00,4.3719
753.00,4.3496
752.00,4.4101
751.00,4.6298
750.00,5.1902
749.00,4.6525
748.00,4.5689
747.00,4.9898
746.00,4.4697
745.00,4.1800
744.00,4.2307
743.00,4.4347
742.00,4.2545
741.00,4.1283
740.00,4.1373
739.00,4.1571
738.00,4.1993
737.00,4.3284
736.00,4.4840
735.00,4.4842
734.00,4.4196
733.00,4.5899
732.00,5.0140
731.00,4.3702
730.00,4.1322
729.00,4.0559
728.00,3.9837
727.00,3.9552
726.00,3.9875
725.00,4.0592
724.00,4.0994
723.00,4.2078
722.00,4.4226
721.00,4.3115
720.00,4.1880
719.00,4.1978
718.00,4.1482
717.00,4.1688
716.00,4.3047
715.00,4.2369
714.00,4.0735
713.00,4.0391
712.00,4.1017
711.00,4.3490
710.00,4.9014
709.00,4.6671
708.00,4.5804
707.00,4.3698
706.00,4.1206
705.00,4.0594
704.00,4.1358
703.00,4.3453
702.00,4.6413
701.00,4.6658
700.00,4.3868
699.00,4.2946
698.00,4.3638
697.00,4.6348
696.00,5.3154
695.00,4.8801
694.00,4.5893
693.00,4.4405
692.00,4.3349
691.00,4.3284
690.00,4.4677
689.00,4.7147
688.00,4.6391
687.00,4.5028
686.00,4.4530
685.00,4.4661
684.00,4.5836
683.00,4.6505
682.00,4.5066
681.00,4.3741
680.00,4.3796
679.00,4.6038
678.00,4.7040
677.00,4.5895
676.00,4.5325
675.00,4.2589
674.00,4.1094
673.00,4.1217
672.00,4.2773
671.00,4.4987
670.00,4.3516
669.00,4.1507
668.00,4.0807
667.00,4.1022
666.00,4.1675
665.00,4.1981
664.00,4.1846
663.00,4.1661
662.00,4.2908
661.00,4.7778
660.00,4.5573
659.00,4.1590
658.00,4.0550
657.00,4.1419
656.00,4.4474
655.00,4.8338
654.00,4.6175
653.00,4.2091
652.00,4.0910
651.00,4.1625
650.00,4.4715
649.00,5.0244
648.00,4.3657
647.00,4.1858
646.00,4.2060
645.00,4.2141
644.00,4.2164
643.00,4.2335
642.00,4.3097
641.00,4.2813
640.00,4.2261
639.00,4.1896
638.00,4.3900
637.00,4.6462
636.00,4.0986
635.00,3.9128
634.00,3.9356
633.00,4.1606
632.00,4.2879
631.00,3.9657
630.00,3.8043
629.00,3.8685
628.00,4.3348
627.00,4.3355
626.00,3.9476
625.00,3.9207
624.00,4.0204
623.00,4.1708
622.00,4.3125
621.00,4.4721
620.00,4.5101
619.00,4.2057
618.00,4.0135
617.00,3.9958
616.00,4.1113
615.00,4.2221
614.00,4.2242
613.00,4.2630
612.00,4.2356
611.00,4.1067
610.00,4.0493
609.00,4.1052
608.00,4.2957
607.00,4.5208
606.00,4.7554
605.00,4.8471
604.00,4.3249
603.00,4.0238
602.00,3.8444
601.00,3.7124
600.00,3.6286
599.00,3.5924
598.00,3.5941
597.00,3.6037
596.00,3.6258
595.00,3.7093
594.00,3.8883
593.00,4.0067
592.00,3.9706
591.00,3.9598
590.00,3.9216
589.00,3.8668
588.00,3.8745
587.00,3.9647
586.00,4.0894
585.00,4.0548
584.00,4.0925
583.00,4.2474
582.00,4.4628
581.00,4.9542
580.00,4.3746
579.00,4.1096
578.00,4.0700
577.00,4.0658
576.00,4.1363
575.00,4.1661
574.00,4.0088
573.00,3.8533
572.00,3.7845
571.00,3.7818
570.00,3.8292
569.00,3.9388
568.00,4.2147
567.00,4.1795
566.00,3.9266
565.00,3.8890
564.00,4.0809
563.00,4.5212
562.00,4.2714
561.00,4.0168
560.00,3.9384
559.00,3.9799
558.00,4.0576
557.00,3.9789
556.00,3.9619
555.00,4.0279
554.00,4.0841
553.00,4.1248
552.00,4.1479
551.00,4.0693
550.00,3.9803
549.00,3.9912
548.00,4.1289
547.00,4.5268
546.00,4.5576
545.00,4.0948
544.00,3.9150
543.00,3.8224
542.00,3.7918
541.00,3.8335
540.00,4.0618
539.00,4.3907
538.00,4.0254
537.00,3.8461
536.00,3.8100
535.00,3.8409
534.00,3.8544
533.00,3.8328
532.00,3.8887
531.00,4.1593
530.00,4.7546
529.00,4.1925
528.00,3.9537
527.00,3.9937
526.00,4.1930
525.00,4.0921
524.00,3.8991
523.00,3.9161
522.00,4.1814
521.00,4.4089
520.00,3.8284
519.00,3.5245
518.00,3.4054
517.00,3.4125
516.00,3.5286
515.00,3.6275
514.00,3.5810
513.00,3.5002
512.00,3.4781
511.00,3.5176
510.00,3.5903
509.00,3.6489
508.00,3.6993
507.00,3.7567
506.00,3.8162
505.00,3.8551
504.00,3.8368
503.00,3.7741
502.00,3.7201
501.00,3.7082
500.00,3.7470
499.00,3.8405
498.00,3.9796
497.00,4.0698
496.00,4.0265
495.00,3.9599
494.00,3.9031
493.00,3.7479
492.00,3.5330
491.00,3.3772
490.00,3.3535
489.00,3.4428
488.00,3.5847
487.00,3.6053
486.00,3.7117
485.00,4.1949
484.00,3.8144
483.00,3.4906
482.00,3.4525
481.00,3.5219
480.00,3.4443
479.00,3.2823
478.00,3.2339
477.00,3.2643
476.00,3.3069
475.00,3.3077
474.00,3.2995
473.00,3.3252
472.00,3.3585
471.00,3.3806
470.00,3.3681
469.00,3.3446
468.00,3.4065
467.00,3.5230
466.00,3.6830
465.00,3.8655
464.00,3.7719
463.00,3.6737
462.00,3.6336
461.00,3.5510
460.00,3.4243
459.00,3.3155
458.00,3.3736
457.00,3.7220
456.00,3.7633
455.00,3.3957
454.00,3.2299
453.00,3.1570
452.00,3.1955
451.00,3.4025
450.00,3.6877
449.00,3.9509
448.00,3.8332
447.00,3.4288
446.00,3.3143
445.00,3.4037
444.00,3.5765
443.00,3.9335
442.00,3.9507
441.00,3.5779
440.00,3.4598
439.00,3.6300
438.00,4.0149
437.00,3.6401
436.00,3.4071
435.00,3.3528
434.00,3.3448
433.00,3.4322
432.00,3.5188
431.00,3.3870
430.00,3.2357
429.00,3.1921
428.00,3.1736
427.00,3.1456
426.00,3.0916
425.00,3.0976
424.00,3.1509
423.00,3.3261
422.00,3.9081
421.00,3.4310
420.00,3.0179
419.00,2.8875
418.00,2.9516
417.00,3.2950
416.00,3.4551
415.00,3.1053
414.00,2.9713
413.00,2.9668
412.00,3.0870
411.00,3.3099
410.00,3.2789
409.00,3.1450
408.00,3.0915
407.00,3.0545
406.00,3.0004
405.00,2.9232
404.00,2.8937
403.00,2.9151
402.00,3.1074
401.00,3.4397
400.00,3.1739
