Created as New Dataset,Sample 175 By Administrator Date Friday, November 26 2021
cm-1,A
7000.00,0.8150
6999.00,0.8109
6998.00,0.8069
6997.00,0.8031
6996.00,0.7993
6995.00,0.7957
6994.00,0.7921
6993.00,0.7884
6992.00,0.7848
6991.00,0.7812
6990.00,0.7776
6989.00,0.7741
6988.00,0.7707
6987.00,0.7674
6986.00,0.7642
6985.00,0.7609
6984.00,0.7578
6983.00,0.7548
6982.00,0.7520
6981.00,0.7491
6980.00,0.7461
6979.00,0.7433
6978.00,0.7407
6977.00,0.7383
6976.00,0.7360
6975.00,0.7337
6974.00,0.7314
6973.00,0.7292
6972.00,0.7272
6971.00,0.7252
6970.00,0.7233
6969.00,0.7214
6968.00,0.7197
6967.00,0.7182
6966.00,0.7167
6965.00,0.7154
6964.00,0.7140
6963.00,0.7127
6962.00,0.7116
6961.00,0.7106
6960.00,0.7098
6959.00,0.7089
6958.00,0.7082
6957.00,0.7075
6956.00,0.7070
6955.00,0.7067
6954.00,0.7065
6953.00,0.7064
6952.00,0.7064
6951.00,0.7066
6950.00,0.7068
6949.00,0.7070
6948.00,0.7073
6947.00,0.7076
6946.00,0.7081
6945.00,0.7088
6944.00,0.7096
6943.00,0.7106
6942.00,0.7116
6941.00,0.7128
6940.00,0.7141
6939.00,0.7156
6938.00,0.7171
6937.00,0.7187
6936.00,0.7204
6935.00,0.7220
6934.00,0.7236
6933.00,0.7255
6932.00,0.7275
6931.00,0.7296
6930.00,0.7318
6929.00,0.7343
6928.00,0.7368
6927.00,0.7394
6926.00,0.7420
6925.00,0.7447
6924.00,0.7475
6923.00,0.7503
6922.00,0.7530
6921.00,0.7559
6920.00,0.7590
6919.00,0.7623
6918.00,0.7656
6917.00,0.7688
6916.00,0.7722
6915.00,0.7758
6914.00,0.7794
6913.00,0.7829
6912.00,0.7863
6911.00,0.7897
6910.00,0.7934
6909.00,0.7972
6908.00,0.8012
6907.00,0.8052
6906.00,0.8093
6905.00,0.8134
6904.00,0.8175
6903.00,0.8217
6902.00,0.8259
6901.00,0.8301
6900.00,0.8343
6899.00,0.8386
6898.00,0.8430
6897.00,0.8476
6896.00,0.8520
6895.00,0.8564
6894.00,0.8609
6893.00,0.8656
6892.00,0.8706
6891.00,0.8755
6890.00,0.8803
6889.00,0.8849
6888.00,0.8894
6887.00,0.8940
6886.00,0.8985
6885.00,0.9029
6884.00,0.9074
6883.00,0.9120
6882.00,0.9169
6881.00,0.9220
6880.00,0.9271
6879.00,0.9320
6878.00,0.9366
6877.00,0.9411
6876.00,0.9455
6875.00,0.9500
6874.00,0.9544
6873.00,0.9589
6872.00,0.9634
6871.00,0.9681
6870.00,0.9728
6869.00,0.9776
6868.00,0.9823
6867.00,0.9870
6866.00,0.9916
6865.00,0.9960
6864.00,1.0004
6863.00,1.0048
6862.00,1.0092
6861.00,1.0136
6860.00,1.0178
6859.00,1.0221
6858.00,1.0264
6857.00,1.0308
6856.00,1.0352
6855.00,1.0396
6854.00,1.0438
6853.00,1.0479
6852.00,1.0520
6851.00,1.0561
6850.00,1.0601
6849.00,1.0640
6848.00,1.0679
6847.00,1.0717
6846.00,1.0756
6845.00,1.0795
6844.00,1.0835
6843.00,1.0874
6842.00,1.0914
6841.00,1.0954
6840.00,1.0991
6839.00,1.1026
6838.00,1.1059
6837.00,1.1093
6836.00,1.1126
6835.00,1.1159
6834.00,1.1193
6833.00,1.1227
6832.00,1.1261
6831.00,1.1294
6830.00,1.1324
6829.00,1.1353
6828.00,1.1381
6827.00,1.1409
6826.00,1.1438
6825.00,1.1468
6824.00,1.1498
6823.00,1.1527
6822.00,1.1556
6821.00,1.1584
6820.00,1.1614
6819.00,1.1644
6818.00,1.1673
6817.00,1.1699
6816.00,1.1722
6815.00,1.1744
6814.00,1.1768
6813.00,1.1792
6812.00,1.1814
6811.00,1.1833
6810.00,1.1852
6809.00,1.1873
6808.00,1.1894
6807.00,1.1912
6806.00,1.1927
6805.00,1.1942
6804.00,1.1959
6803.00,1.1979
6802.00,1.2000
6801.00,1.2019
6800.00,1.2036
6799.00,1.2052
6798.00,1.2068
6797.00,1.2084
6796.00,1.2097
6795.00,1.2104
6794.00,1.2108
6793.00,1.2111
6792.00,1.2116
6791.00,1.2126
6790.00,1.2138
6789.00,1.2151
6788.00,1.2166
6787.00,1.2179
6786.00,1.2188
6785.00,1.2193
6784.00,1.2196
6783.00,1.2200
6782.00,1.2205
6781.00,1.2212
6780.00,1.2218
6779.00,1.2225
6778.00,1.2234
6777.00,1.2243
6776.00,1.2249
6775.00,1.2251
6774.00,1.2252
6773.00,1.2253
6772.00,1.2255
6771.00,1.2256
6770.00,1.2256
6769.00,1.2256
6768.00,1.2258
6767.00,1.2260
6766.00,1.2261
6765.00,1.2260
6764.00,1.2254
6763.00,1.2246
6762.00,1.2240
6761.00,1.2236
6760.00,1.2232
6759.00,1.2227
6758.00,1.2221
6757.00,1.2215
6756.00,1.2208
6755.00,1.2198
6754.00,1.2186
6753.00,1.2172
6752.00,1.2159
6751.00,1.2148
6750.00,1.2139
6749.00,1.2129
6748.00,1.2118
6747.00,1.2107
6746.00,1.2096
6745.00,1.2085
6744.00,1.2073
6743.00,1.2058
6742.00,1.2042
6741.00,1.2027
6740.00,1.2013
6739.00,1.2001
6738.00,1.1987
6737.00,1.1973
6736.00,1.1957
6735.00,1.1940
6734.00,1.1921
6733.00,1.1900
6732.00,1.1876
6731.00,1.1851
6730.00,1.1828
6729.00,1.1805
6728.00,1.1782
6727.00,1.1758
6726.00,1.1734
6725.00,1.1713
6724.00,1.1693
6723.00,1.1670
6722.00,1.1643
6721.00,1.1614
6720.00,1.1585
6719.00,1.1558
6718.00,1.1532
6717.00,1.1507
6716.00,1.1482
6715.00,1.1455
6714.00,1.1424
6713.00,1.1389
6712.00,1.1352
6711.00,1.1314
6710.00,1.1277
6709.00,1.1242
6708.00,1.1211
6707.00,1.1185
6706.00,1.1160
6705.00,1.1133
6704.00,1.1101
6703.00,1.1064
6702.00,1.1026
6701.00,1.0988
6700.00,1.0950
6699.00,1.0911
6698.00,1.0872
6697.00,1.0835
6696.00,1.0800
6695.00,1.0764
6694.00,1.0724
6693.00,1.0683
6692.00,1.0641
6691.00,1.0600
6690.00,1.0561
6689.00,1.0522
6688.00,1.0481
6687.00,1.0437
6686.00,1.0393
6685.00,1.0347
6684.00,1.0301
6683.00,1.0254
6682.00,1.0209
6681.00,1.0165
6680.00,1.0123
6679.00,1.0079
6678.00,1.0034
6677.00,0.9988
6676.00,0.9941
6675.00,0.9894
6674.00,0.9846
6673.00,0.9799
6672.00,0.9753
6671.00,0.9708
6670.00,0.9661
6669.00,0.9613
6668.00,0.9565
6667.00,0.9518
6666.00,0.9472
6665.00,0.9426
6664.00,0.9380
6663.00,0.9333
6662.00,0.9287
6661.00,0.9242
6660.00,0.9195
6659.00,0.9147
6658.00,0.9099
6657.00,0.9051
6656.00,0.9004
6655.00,0.8957
6654.00,0.8909
6653.00,0.8862
6652.00,0.8815
6651.00,0.8769
6650.00,0.8723
6649.00,0.8678
6648.00,0.8633
6647.00,0.8588
6646.00,0.8543
6645.00,0.8500
6644.00,0.8458
6643.00,0.8417
6642.00,0.8375
6641.00,0.8334
6640.00,0.8293
6639.00,0.8252
6638.00,0.8211
6637.00,0.8169
6636.00,0.8128
6635.00,0.8089
6634.00,0.8050
6633.00,0.8013
6632.00,0.7976
6631.00,0.7941
6630.00,0.7907
6629.00,0.7874
6628.00,0.7841
6627.00,0.7809
6626.00,0.7779
6625.00,0.7750
6624.00,0.7720
6623.00,0.7689
6622.00,0.7659
6621.00,0.7631
6620.00,0.7606
6619.00,0.7580
6618.00,0.7556
6617.00,0.7533
6616.00,0.7512
6615.00,0.7491
6614.00,0.7470
6613.00,0.7451
6612.00,0.7433
6611.00,0.7418
6610.00,0.7404
6609.00,0.7392
6608.00,0.7381
6607.00,0.7371
6606.00,0.7361
6605.00,0.7352
6604.00,0.7344
6603.00,0.7337
6602.00,0.7331
6601.00,0.7327
6600.00,0.7325
6599.00,0.7324
6598.00,0.7326
6597.00,0.7329
6596.00,0.7333
6595.00,0.7337
6594.00,0.7341
6593.00,0.7347
6592.00,0.7354
6591.00,0.7362
6590.00,0.7371
6589.00,0.7382
6588.00,0.7395
6587.00,0.7409
6586.00,0.7425
6585.00,0.7442
6584.00,0.7461
6583.00,0.7481
6582.00,0.7501
6581.00,0.7523
6580.00,0.7545
6579.00,0.7569
6578.00,0.7594
6577.00,0.7620
6576.00,0.7647
6575.00,0.7675
6574.00,0.7705
6573.00,0.7738
6572.00,0.7770
6571.00,0.7803
6570.00,0.7836
6569.00,0.7870
6568.00,0.7905
6567.00,0.7939
6566.00,0.7974
6565.00,0.8010
6564.00,0.8048
6563.00,0.8087
6562.00,0.8127
6561.00,0.8168
6560.00,0.8210
6559.00,0.8252
6558.00,0.8295
6557.00,0.8339
6556.00,0.8383
6555.00,0.8427
6554.00,0.8471
6553.00,0.8514
6552.00,0.8558
6551.00,0.8602
6550.00,0.8648
6549.00,0.8696
6548.00,0.8745
6547.00,0.8794
6546.00,0.8843
6545.00,0.8890
6544.00,0.8938
6543.00,0.8986
6542.00,0.9034
6541.00,0.9083
6540.00,0.9132
6539.00,0.9182
6538.00,0.9233
6537.00,0.9283
6536.00,0.9332
6535.00,0.9379
6534.00,0.9427
6533.00,0.9476
6532.00,0.9524
6531.00,0.9573
6530.00,0.9621
6529.00,0.9670
6528.00,0.9718
6527.00,0.9766
6526.00,0.9815
6525.00,0.9864
6524.00,0.9913
6523.00,0.9962
6522.00,1.0013
6521.00,1.0064
6520.00,1.0115
6519.00,1.0163
6518.00,1.0208
6517.00,1.0254
6516.00,1.0300
6515.00,1.0345
6514.00,1.0388
6513.00,1.0432
6512.00,1.0477
6511.00,1.0523
6510.00,1.0568
6509.00,1.0612
6508.00,1.0655
6507.00,1.0697
6506.00,1.0738
6505.00,1.0780
6504.00,1.0823
6503.00,1.0866
6502.00,1.0907
6501.00,1.0947
6500.00,1.0985
6499.00,1.1024
6498.00,1.1064
6497.00,1.1104
6496.00,1.1143
6495.00,1.1182
6494.00,1.1222
6493.00,1.1262
6492.00,1.1298
6491.00,1.1330
6490.00,1.1363
6489.00,1.1399
6488.00,1.1436
6487.00,1.1470
6486.00,1.1499
6485.00,1.1527
6484.00,1.1556
6483.00,1.1585
6482.00,1.1614
6481.00,1.1640
6480.00,1.1667
6479.00,1.1697
6478.00,1.1729
6477.00,1.1761
6476.00,1.1791
6475.00,1.1819
6474.00,1.1847
6473.00,1.1873
6472.00,1.1898
6471.00,1.1919
6470.00,1.1938
6469.00,1.1957
6468.00,1.1980
6467.00,1.2004
6466.00,1.2029
6465.00,1.2054
6464.00,1.2078
6463.00,1.2100
6462.00,1.2119
6461.00,1.2136
6460.00,1.2152
6459.00,1.2169
6458.00,1.2187
6457.00,1.2203
6456.00,1.2218
6455.00,1.2232
6454.00,1.2246
6453.00,1.2258
6452.00,1.2271
6451.00,1.2285
6450.00,1.2302
6449.00,1.2320
6448.00,1.2337
6447.00,1.2349
6446.00,1.2357
6445.00,1.2363
6444.00,1.2368
6443.00,1.2373
6442.00,1.2377
6441.00,1.2381
6440.00,1.2387
6439.00,1.2396
6438.00,1.2407
6437.00,1.2418
6436.00,1.2426
6435.00,1.2433
6434.00,1.2438
6433.00,1.2441
6432.00,1.2440
6431.00,1.2437
6430.00,1.2435
6429.00,1.2436
6428.00,1.2440
6427.00,1.2444
6426.00,1.2445
6425.00,1.2442
6424.00,1.2437
6423.00,1.2431
6422.00,1.2426
6421.00,1.2422
6420.00,1.2417
6419.00,1.2412
6418.00,1.2408
6417.00,1.2403
6416.00,1.2395
6415.00,1.2385
6414.00,1.2374
6413.00,1.2363
6412.00,1.2353
6411.00,1.2344
6410.00,1.2335
6409.00,1.2328
6408.00,1.2318
6407.00,1.2307
6406.00,1.2294
6405.00,1.2282
6404.00,1.2270
6403.00,1.2257
6402.00,1.2243
6401.00,1.2230
6400.00,1.2215
6399.00,1.2197
6398.00,1.2176
6397.00,1.2154
6396.00,1.2133
6395.00,1.2113
6394.00,1.2094
6393.00,1.2077
6392.00,1.2060
6391.00,1.2039
6390.00,1.2015
6389.00,1.1987
6388.00,1.1959
6387.00,1.1932
6386.00,1.1906
6385.00,1.1881
6384.00,1.1857
6383.00,1.1833
6382.00,1.1810
6381.00,1.1783
6380.00,1.1751
6379.00,1.1719
6378.00,1.1690
6377.00,1.1665
6376.00,1.1639
6375.00,1.1611
6374.00,1.1583
6373.00,1.1553
6372.00,1.1521
6371.00,1.1486
6370.00,1.1449
6369.00,1.1410
6368.00,1.1372
6367.00,1.1337
6366.00,1.1304
6365.00,1.1273
6364.00,1.1241
6363.00,1.1206
6362.00,1.1169
6361.00,1.1130
6360.00,1.1089
6359.00,1.1046
6358.00,1.1003
6357.00,1.0963
6356.00,1.0924
6355.00,1.0885
6354.00,1.0845
6353.00,1.0804
6352.00,1.0761
6351.00,1.0716
6350.00,1.0670
6349.00,1.0625
6348.00,1.0583
6347.00,1.0540
6346.00,1.0496
6345.00,1.0451
6344.00,1.0407
6343.00,1.0363
6342.00,1.0318
6341.00,1.0271
6340.00,1.0223
6339.00,1.0175
6338.00,1.0127
6337.00,1.0080
6336.00,1.0032
6335.00,0.9984
6334.00,0.9934
6333.00,0.9885
6332.00,0.9836
6331.00,0.9787
6330.00,0.9738
6329.00,0.9688
6328.00,0.9637
6327.00,0.9586
6326.00,0.9536
6325.00,0.9487
6324.00,0.9438
6323.00,0.9389
6322.00,0.9341
6321.00,0.9293
6320.00,0.9245
6319.00,0.9195
6318.00,0.9144
6317.00,0.9094
6316.00,0.9044
6315.00,0.8994
6314.00,0.8944
6313.00,0.8895
6312.00,0.8847
6311.00,0.8801
6310.00,0.8756
6309.00,0.8711
6308.00,0.8666
6307.00,0.8620
6306.00,0.8573
6305.00,0.8526
6304.00,0.8480
6303.00,0.8434
6302.00,0.8389
6301.00,0.8345
6300.00,0.8303
6299.00,0.8261
6298.00,0.8219
6297.00,0.8176
6296.00,0.8134
6295.00,0.8093
6294.00,0.8053
6293.00,0.8014
6292.00,0.7975
6291.00,0.7937
6290.00,0.7898
6289.00,0.7861
6288.00,0.7824
6287.00,0.7788
6286.00,0.7752
6285.00,0.7718
6284.00,0.7685
6283.00,0.7652
6282.00,0.7619
6281.00,0.7587
6280.00,0.7556
6279.00,0.7525
6278.00,0.7495
6277.00,0.7466
6276.00,0.7438
6275.00,0.7411
6274.00,0.7385
6273.00,0.7360
6272.00,0.7336
6271.00,0.7313
6270.00,0.7290
6269.00,0.7268
6268.00,0.7246
6267.00,0.7225
6266.00,0.7205
6265.00,0.7188
6264.00,0.7172
6263.00,0.7157
6262.00,0.7143
6261.00,0.7131
6260.00,0.7119
6259.00,0.7108
6258.00,0.7097
6257.00,0.7088
6256.00,0.7082
6255.00,0.7077
6254.00,0.7074
6253.00,0.7072
6252.00,0.7071
6251.00,0.7071
6250.00,0.7072
6249.00,0.7074
6248.00,0.7077
6247.00,0.7082
6246.00,0.7089
6245.00,0.7097
6244.00,0.7108
6243.00,0.7119
6242.00,0.7132
6241.00,0.7147
6240.00,0.7163
6239.00,0.7179
6238.00,0.7196
6237.00,0.7215
6236.00,0.7235
6235.00,0.7257
6234.00,0.7280
6233.00,0.7306
6232.00,0.7333
6231.00,0.7360
6230.00,0.7387
6229.00,0.7416
6228.00,0.7446
6227.00,0.7478
6226.00,0.7512
6225.00,0.7547
6224.00,0.7582
6223.00,0.7617
6222.00,0.7653
6221.00,0.7689
6220.00,0.7727
6219.00,0.7767
6218.00,0.7809
6217.00,0.7853
6216.00,0.7897
6215.00,0.7940
6214.00,0.7982
6213.00,0.8025
6212.00,0.8067
6211.00,0.8111
6210.00,0.8156
6209.00,0.8205
6208.00,0.8255
6207.00,0.8306
6206.00,0.8358
6205.00,0.8409
6204.00,0.8460
6203.00,0.8511
6202.00,0.8563
6201.00,0.8614
6200.00,0.8666
6199.00,0.8717
6198.00,0.8768
6197.00,0.8820
6196.00,0.8873
6195.00,0.8926
6194.00,0.8979
6193.00,0.9034
6192.00,0.9089
6191.00,0.9144
6190.00,0.9198
6189.00,0.9252
6188.00,0.9307
6187.00,0.9361
6186.00,0.9415
6185.00,0.9469
6184.00,0.9524
6183.00,0.9579
6182.00,0.9635
6181.00,0.9690
6180.00,0.9743
6179.00,0.9795
6178.00,0.9848
6177.00,0.9900
6176.00,0.9952
6175.00,1.0005
6174.00,1.0058
6173.00,1.0112
6172.00,1.0165
6171.00,1.0217
6170.00,1.0267
6169.00,1.0319
6168.00,1.0371
6167.00,1.0425
6166.00,1.0478
6165.00,1.0529
6164.00,1.0579
6163.00,1.0629
6162.00,1.0679
6161.00,1.0728
6160.00,1.0776
6159.00,1.0823
6158.00,1.0869
6157.00,1.0915
6156.00,1.0961
6155.00,1.1005
6154.00,1.1048
6153.00,1.1091
6152.00,1.1134
6151.00,1.1178
6150.00,1.1221
6149.00,1.1263
6148.00,1.1305
6147.00,1.1348
6146.00,1.1390
6145.00,1.1433
6144.00,1.1475
6143.00,1.1516
6142.00,1.1557
6141.00,1.1597
6140.00,1.1636
6139.00,1.1673
6138.00,1.1709
6137.00,1.1744
6136.00,1.1780
6135.00,1.1815
6134.00,1.1851
6133.00,1.1886
6132.00,1.1920
6131.00,1.1952
6130.00,1.1982
6129.00,1.2011
6128.00,1.2040
6127.00,1.2071
6126.00,1.2102
6125.00,1.2134
6124.00,1.2165
6123.00,1.2196
6122.00,1.2226
6121.00,1.2254
6120.00,1.2278
6119.00,1.2302
6118.00,1.2328
6117.00,1.2355
6116.00,1.2381
6115.00,1.2404
6114.00,1.2425
6113.00,1.2445
6112.00,1.2465
6111.00,1.2486
6110.00,1.2509
6109.00,1.2533
6108.00,1.2555
6107.00,1.2574
6106.00,1.2588
6105.00,1.2602
6104.00,1.2617
6103.00,1.2633
6102.00,1.2650
6101.00,1.2668
6100.00,1.2687
6099.00,1.2704
6098.00,1.2718
6097.00,1.2730
6096.00,1.2743
6095.00,1.2757
6094.00,1.2772
6093.00,1.2786
6092.00,1.2800
6091.00,1.2814
6090.00,1.2828
6089.00,1.2839
6088.00,1.2847
6087.00,1.2851
6086.00,1.2854
6085.00,1.2855
6084.00,1.2857
6083.00,1.2863
6082.00,1.2871
6081.00,1.2880
6080.00,1.2886
6079.00,1.2889
6078.00,1.2889
6077.00,1.2889
6076.00,1.2888
6075.00,1.2887
6074.00,1.2886
6073.00,1.2888
6072.00,1.2891
6071.00,1.2895
6070.00,1.2898
6069.00,1.2902
6068.00,1.2903
6067.00,1.2901
6066.00,1.2896
6065.00,1.2888
6064.00,1.2879
6063.00,1.2871
6062.00,1.2864
6061.00,1.2859
6060.00,1.2853
6059.00,1.2845
6058.00,1.2835
6057.00,1.2824
6056.00,1.2813
6055.00,1.2803
6054.00,1.2793
6053.00,1.2783
6052.00,1.2772
6051.00,1.2760
6050.00,1.2746
6049.00,1.2731
6048.00,1.2716
6047.00,1.2702
6046.00,1.2687
6045.00,1.2672
6044.00,1.2655
6043.00,1.2637
6042.00,1.2620
6041.00,1.2605
6040.00,1.2590
6039.00,1.2574
6038.00,1.2555
6037.00,1.2534
6036.00,1.2511
6035.00,1.2488
6034.00,1.2465
6033.00,1.2442
6032.00,1.2418
6031.00,1.2393
6030.00,1.2367
6029.00,1.2341
6028.00,1.2314
6027.00,1.2287
6026.00,1.2261
6025.00,1.2236
6024.00,1.2212
6023.00,1.2185
6022.00,1.2156
6021.00,1.2125
6020.00,1.2093
6019.00,1.2060
6018.00,1.2027
6017.00,1.1993
6016.00,1.1960
6015.00,1.1927
6014.00,1.1892
6013.00,1.1857
6012.00,1.1820
6011.00,1.1781
6010.00,1.1742
6009.00,1.1704
6008.00,1.1669
6007.00,1.1635
6006.00,1.1599
6005.00,1.1562
6004.00,1.1521
6003.00,1.1480
6002.00,1.1437
6001.00,1.1394
6000.00,1.1350
5999.00,1.1307
5998.00,1.1265
5997.00,1.1221
5996.00,1.1176
5995.00,1.1128
5994.00,1.1078
5993.00,1.1029
5992.00,1.0981
5991.00,1.0936
5990.00,1.0892
5989.00,1.0849
5988.00,1.0804
5987.00,1.0757
5986.00,1.0708
5985.00,1.0657
5984.00,1.0606
5983.00,1.0555
5982.00,1.0504
5981.00,1.0453
5980.00,1.0400
5979.00,1.0345
5978.00,1.0290
5977.00,1.0236
5976.00,1.0182
5975.00,1.0129
5974.00,1.0075
5973.00,1.0022
5972.00,0.9967
5971.00,0.9911
5970.00,0.9855
5969.00,0.9800
5968.00,0.9745
5967.00,0.9691
5966.00,0.9636
5965.00,0.9579
5964.00,0.9522
5963.00,0.9464
5962.00,0.9408
5961.00,0.9351
5960.00,0.9295
5959.00,0.9240
5958.00,0.9186
5957.00,0.9133
5956.00,0.9080
5955.00,0.9025
5954.00,0.8970
5953.00,0.8915
5952.00,0.8861
5951.00,0.8807
5950.00,0.8753
5949.00,0.8700
5948.00,0.8647
5947.00,0.8595
5946.00,0.8543
5945.00,0.8492
5944.00,0.8440
5943.00,0.8389
5942.00,0.8339
5941.00,0.8290
5940.00,0.8242
5939.00,0.8194
5938.00,0.8147
5937.00,0.8102
5936.00,0.8058
5935.00,0.8014
5934.00,0.7970
5933.00,0.7927
5932.00,0.7886
5931.00,0.7845
5930.00,0.7805
5929.00,0.7766
5928.00,0.7728
5927.00,0.7691
5926.00,0.7655
5925.00,0.7621
5924.00,0.7588
5923.00,0.7557
5922.00,0.7526
5921.00,0.7497
5920.00,0.7469
5919.00,0.7441
5918.00,0.7416
5917.00,0.7391
5916.00,0.7368
5915.00,0.7345
5914.00,0.7324
5913.00,0.7305
5912.00,0.7287
5911.00,0.7271
5910.00,0.7258
5909.00,0.7247
5908.00,0.7238
5907.00,0.7229
5906.00,0.7222
5905.00,0.7216
5904.00,0.7211
5903.00,0.7207
5902.00,0.7206
5901.00,0.7207
5900.00,0.7210
5899.00,0.7214
5898.00,0.7220
5897.00,0.7228
5896.00,0.7238
5895.00,0.7249
5894.00,0.7263
5893.00,0.7278
5892.00,0.7295
5891.00,0.7312
5890.00,0.7331
5889.00,0.7352
5888.00,0.7374
5887.00,0.7398
5886.00,0.7424
5885.00,0.7451
5884.00,0.7479
5883.00,0.7508
5882.00,0.7537
5881.00,0.7568
5880.00,0.7600
5879.00,0.7634
5878.00,0.7670
5877.00,0.7707
5876.00,0.7746
5875.00,0.7786
5874.00,0.7827
5873.00,0.7870
5872.00,0.7913
5871.00,0.7957
5870.00,0.8002
5869.00,0.8047
5868.00,0.8094
5867.00,0.8142
5866.00,0.8190
5865.00,0.8239
5864.00,0.8288
5863.00,0.8338
5862.00,0.8388
5861.00,0.8439
5860.00,0.8491
5859.00,0.8544
5858.00,0.8598
5857.00,0.8653
5856.00,0.8707
5855.00,0.8762
5854.00,0.8817
5853.00,0.8872
5852.00,0.8928
5851.00,0.8983
5850.00,0.9039
5849.00,0.9095
5848.00,0.9151
5847.00,0.9207
5846.00,0.9264
5845.00,0.9322
5844.00,0.9381
5843.00,0.9440
5842.00,0.9498
5841.00,0.9556
5840.00,0.9614
5839.00,0.9671
5838.00,0.9727
5837.00,0.9785
5836.00,0.9841
5835.00,0.9898
5834.00,0.9955
5833.00,1.0012
5832.00,1.0068
5831.00,1.0125
5830.00,1.0182
5829.00,1.0239
5828.00,1.0296
5827.00,1.0351
5826.00,1.0406
5825.00,1.0462
5824.00,1.0519
5823.00,1.0575
5822.00,1.0631
5821.00,1.0686
5820.00,1.0740
5819.00,1.0794
5818.00,1.0847
5817.00,1.0900
5816.00,1.0952
5815.00,1.1004
5814.00,1.1054
5813.00,1.1104
5812.00,1.1153
5811.00,1.1201
5810.00,1.1249
5809.00,1.1297
5808.00,1.1344
5807.00,1.1391
5806.00,1.1438
5805.00,1.1485
5804.00,1.1531
5803.00,1.1577
5802.00,1.1623
5801.00,1.1666
5800.00,1.1708
5799.00,1.1750
5798.00,1.1792
5797.00,1.1835
5796.00,1.1876
5795.00,1.1915
5794.00,1.1954
5793.00,1.1992
5792.00,1.2029
5791.00,1.2066
5790.00,1.2104
5789.00,1.2143
5788.00,1.2182
5787.00,1.2220
5786.00,1.2258
5785.00,1.2295
5784.00,1.2331
5783.00,1.2365
5782.00,1.2398
5781.00,1.2430
5780.00,1.2462
5779.00,1.2495
5778.00,1.2528
5777.00,1.2561
5776.00,1.2594
5775.00,1.2625
5774.00,1.2654
5773.00,1.2682
5772.00,1.2710
5771.00,1.2738
5770.00,1.2764
5769.00,1.2789
5768.00,1.2814
5767.00,1.2839
5766.00,1.2864
5765.00,1.2889
5764.00,1.2912
5763.00,1.2934
5762.00,1.2955
5761.00,1.2975
5760.00,1.2995
5759.00,1.3015
5758.00,1.3036
5757.00,1.3056
5756.00,1.3074
5755.00,1.3089
5754.00,1.3105
5753.00,1.3124
5752.00,1.3143
5751.00,1.3161
5750.00,1.3178
5749.00,1.3193
5748.00,1.3207
5747.00,1.3218
5746.00,1.3227
5745.00,1.3238
5744.00,1.3250
5743.00,1.3262
5742.00,1.3273
5741.00,1.3282
5740.00,1.3293
5739.00,1.3304
5738.00,1.3313
5737.00,1.3320
5736.00,1.3327
5735.00,1.3333
5734.00,1.3339
5733.00,1.3345
5732.00,1.3350
5731.00,1.3356
5730.00,1.3364
5729.00,1.3371
5728.00,1.3375
5727.00,1.3377
5726.00,1.3379
5725.00,1.3380
5724.00,1.3379
5723.00,1.3377
5722.00,1.3374
5721.00,1.3371
5720.00,1.3368
5719.00,1.3363
5718.00,1.3359
5717.00,1.3356
5716.00,1.3353
5715.00,1.3349
5714.00,1.3344
5713.00,1.3339
5712.00,1.3332
5711.00,1.3324
5710.00,1.3316
5709.00,1.3308
5708.00,1.3299
5707.00,1.3288
5706.00,1.3275
5705.00,1.3262
5704.00,1.3247
5703.00,1.3231
5702.00,1.3214
5701.00,1.3198
5700.00,1.3182
5699.00,1.3166
5698.00,1.3151
5697.00,1.3136
5696.00,1.3120
5695.00,1.3101
5694.00,1.3083
5693.00,1.3065
5692.00,1.3045
5691.00,1.3024
5690.00,1.3002
5689.00,1.2980
5688.00,1.2957
5687.00,1.2934
5686.00,1.2911
5685.00,1.2888
5684.00,1.2863
5683.00,1.2837
5682.00,1.2809
5681.00,1.2782
5680.00,1.2756
5679.00,1.2728
5678.00,1.2701
5677.00,1.2675
5676.00,1.2648
5675.00,1.2618
5674.00,1.2586
5673.00,1.2556
5672.00,1.2526
5671.00,1.2495
5670.00,1.2461
5669.00,1.2426
5668.00,1.2390
5667.00,1.2355
5666.00,1.2320
5665.00,1.2287
5664.00,1.2253
5663.00,1.2217
5662.00,1.2178
5661.00,1.2137
5660.00,1.2097
5659.00,1.2056
5658.00,1.2016
5657.00,1.1977
5656.00,1.1939
5655.00,1.1897
5654.00,1.1853
5653.00,1.1808
5652.00,1.1764
5651.00,1.1720
5650.00,1.1676
5649.00,1.1632
5648.00,1.1586
5647.00,1.1537
5646.00,1.1488
5645.00,1.1438
5644.00,1.1388
5643.00,1.1339
5642.00,1.1290
5641.00,1.1242
5640.00,1.1193
5639.00,1.1142
5638.00,1.1089
5637.00,1.1035
5636.00,1.0981
5635.00,1.0927
5634.00,1.0872
5633.00,1.0816
5632.00,1.0760
5631.00,1.0704
5630.00,1.0647
5629.00,1.0590
5628.00,1.0533
5627.00,1.0475
5626.00,1.0418
5625.00,1.0361
5624.00,1.0303
5623.00,1.0245
5622.00,1.0187
5621.00,1.0127
5620.00,1.0066
5619.00,1.0005
5618.00,0.9943
5617.00,0.9882
5616.00,0.9820
5615.00,0.9758
5614.00,0.9697
5613.00,0.9636
5612.00,0.9575
5611.00,0.9514
5610.00,0.9453
5609.00,0.9392
5608.00,0.9330
5607.00,0.9268
5606.00,0.9206
5605.00,0.9144
5604.00,0.9082
5603.00,0.9020
5602.00,0.8959
5601.00,0.8899
5600.00,0.8840
5599.00,0.8781
5598.00,0.8723
5597.00,0.8665
5596.00,0.8607
5595.00,0.8548
5594.00,0.8490
5593.00,0.8433
5592.00,0.8377
5591.00,0.8322
5590.00,0.8267
5589.00,0.8213
5588.00,0.8159
5587.00,0.8106
5586.00,0.8053
5585.00,0.8001
5584.00,0.7951
5583.00,0.7902
5582.00,0.7854
5581.00,0.7807
5580.00,0.7761
5579.00,0.7716
5578.00,0.7672
5577.00,0.7629
5576.00,0.7586
5575.00,0.7545
5574.00,0.7506
5573.00,0.7469
5572.00,0.7432
5571.00,0.7398
5570.00,0.7365
5569.00,0.7334
5568.00,0.7303
5567.00,0.7274
5566.00,0.7246
5565.00,0.7220
5564.00,0.7194
5563.00,0.7171
5562.00,0.7150
5561.00,0.7132
5560.00,0.7116
5559.00,0.7102
5558.00,0.7090
5557.00,0.7079
5556.00,0.7070
5555.00,0.7063
5554.00,0.7057
5553.00,0.7053
5552.00,0.7050
5551.00,0.7050
5550.00,0.7051
5549.00,0.7054
5548.00,0.7058
5547.00,0.7065
5546.00,0.7073
5545.00,0.7083
5544.00,0.7095
5543.00,0.7109
5542.00,0.7125
5541.00,0.7144
5540.00,0.7164
5539.00,0.7185
5538.00,0.7208
5537.00,0.7233
5536.00,0.7259
5535.00,0.7287
5534.00,0.7316
5533.00,0.7347
5532.00,0.7380
5531.00,0.7413
5530.00,0.7449
5529.00,0.7486
5528.00,0.7525
5527.00,0.7566
5526.00,0.7608
5525.00,0.7651
5524.00,0.7695
5523.00,0.7741
5522.00,0.7787
5521.00,0.7835
5520.00,0.7885
5519.00,0.7934
5518.00,0.7984
5517.00,0.8035
5516.00,0.8087
5515.00,0.8140
5514.00,0.8195
5513.00,0.8251
5512.00,0.8308
5511.00,0.8364
5510.00,0.8420
5509.00,0.8478
5508.00,0.8537
5507.00,0.8597
5506.00,0.8659
5505.00,0.8721
5504.00,0.8784
5503.00,0.8847
5502.00,0.8910
5501.00,0.8973
5500.00,0.9036
5499.00,0.9099
5498.00,0.9162
5497.00,0.9225
5496.00,0.9289
5495.00,0.9353
5494.00,0.9419
5493.00,0.9484
5492.00,0.9550
5491.00,0.9616
5490.00,0.9681
5489.00,0.9747
5488.00,0.9812
5487.00,0.9878
5486.00,0.9944
5485.00,1.0010
5484.00,1.0074
5483.00,1.0136
5482.00,1.0199
5481.00,1.0262
5480.00,1.0324
5479.00,1.0384
5478.00,1.0443
5477.00,1.0503
5476.00,1.0563
5475.00,1.0625
5474.00,1.0688
5473.00,1.0752
5472.00,1.0814
5471.00,1.0874
5470.00,1.0932
5469.00,1.0990
5468.00,1.1047
5467.00,1.1104
5466.00,1.1159
5465.00,1.1214
5464.00,1.1267
5463.00,1.1322
5462.00,1.1377
5461.00,1.1435
5460.00,1.1493
5459.00,1.1550
5458.00,1.1605
5457.00,1.1658
5456.00,1.1709
5455.00,1.1757
5454.00,1.1803
5453.00,1.1850
5452.00,1.1896
5451.00,1.1944
5450.00,1.1992
5449.00,1.2041
5448.00,1.2091
5447.00,1.2139
5446.00,1.2186
5445.00,1.2232
5444.00,1.2278
5443.00,1.2323
5442.00,1.2368
5441.00,1.2411
5440.00,1.2454
5439.00,1.2495
5438.00,1.2534
5437.00,1.2572
5436.00,1.2610
5435.00,1.2649
5434.00,1.2689
5433.00,1.2729
5432.00,1.2765
5431.00,1.2798
5430.00,1.2830
5429.00,1.2863
5428.00,1.2898
5427.00,1.2934
5426.00,1.2970
5425.00,1.3004
5424.00,1.3036
5423.00,1.3067
5422.00,1.3097
5421.00,1.3125
5420.00,1.3150
5419.00,1.3175
5418.00,1.3200
5417.00,1.3226
5416.00,1.3253
5415.00,1.3278
5414.00,1.3302
5413.00,1.3326
5412.00,1.3351
5411.00,1.3377
5410.00,1.3402
5409.00,1.3427
5408.00,1.3453
5407.00,1.3477
5406.00,1.3499
5405.00,1.3519
5404.00,1.3536
5403.00,1.3552
5402.00,1.3567
5401.00,1.3581
5400.00,1.3597
5399.00,1.3613
5398.00,1.3629
5397.00,1.3644
5396.00,1.3655
5395.00,1.3665
5394.00,1.3676
5393.00,1.3690
5392.00,1.3706
5391.00,1.3723
5390.00,1.3736
5389.00,1.3746
5388.00,1.3754
5387.00,1.3761
5386.00,1.3767
5385.00,1.3773
5384.00,1.3779
5383.00,1.3784
5382.00,1.3788
5381.00,1.3791
5380.00,1.3794
5379.00,1.3798
5378.00,1.3802
5377.00,1.3806
5376.00,1.3808
5375.00,1.3810
5374.00,1.3812
5373.00,1.3812
5372.00,1.3811
5371.00,1.3809
5370.00,1.3806
5369.00,1.3803
5368.00,1.3800
5367.00,1.3798
5366.00,1.3797
5365.00,1.3795
5364.00,1.3790
5363.00,1.3782
5362.00,1.3771
5361.00,1.3759
5360.00,1.3749
5359.00,1.3740
5358.00,1.3733
5357.00,1.3727
5356.00,1.3719
5355.00,1.3708
5354.00,1.3695
5353.00,1.3682
5352.00,1.3668
5351.00,1.3654
5350.00,1.3639
5349.00,1.3624
5348.00,1.3609
5347.00,1.3595
5346.00,1.3579
5345.00,1.3563
5344.00,1.3547
5343.00,1.3530
5342.00,1.3513
5341.00,1.3494
5340.00,1.3474
5339.00,1.3452
5338.00,1.3428
5337.00,1.3405
5336.00,1.3380
5335.00,1.3355
5334.00,1.3329
5333.00,1.3304
5332.00,1.3279
5331.00,1.3252
5330.00,1.3224
5329.00,1.3194
5328.00,1.3164
5327.00,1.3136
5326.00,1.3108
5325.00,1.3080
5324.00,1.3050
5323.00,1.3017
5322.00,1.2983
5321.00,1.2947
5320.00,1.2911
5319.00,1.2876
5318.00,1.2840
5317.00,1.2805
5316.00,1.2770
5315.00,1.2735
5314.00,1.2698
5313.00,1.2659
5312.00,1.2619
5311.00,1.2577
5310.00,1.2535
5309.00,1.2492
5308.00,1.2448
5307.00,1.2404
5306.00,1.2360
5305.00,1.2315
5304.00,1.2269
5303.00,1.2223
5302.00,1.2176
5301.00,1.2129
5300.00,1.2082
5299.00,1.2034
5298.00,1.1986
5297.00,1.1937
5296.00,1.1887
5295.00,1.1836
5294.00,1.1785
5293.00,1.1732
5292.00,1.1679
5291.00,1.1625
5290.00,1.1570
5289.00,1.1515
5288.00,1.1459
5287.00,1.1403
5286.00,1.1345
5285.00,1.1287
5284.00,1.1228
5283.00,1.1169
5282.00,1.1109
5281.00,1.1048
5280.00,1.0986
5279.00,1.0925
5278.00,1.0863
5277.00,1.0800
5276.00,1.0736
5275.00,1.0672
5274.00,1.0607
5273.00,1.0543
5272.00,1.0478
5271.00,1.0413
5270.00,1.0348
5269.00,1.0282
5268.00,1.0216
5267.00,1.0150
5266.00,1.0084
5265.00,1.0018
5264.00,0.9951
5263.00,0.9885
5262.00,0.9818
5261.00,0.9750
5260.00,0.9681
5259.00,0.9611
5258.00,0.9542
5257.00,0.9474
5256.00,0.9405
5255.00,0.9337
5254.00,0.9269
5253.00,0.9202
5252.00,0.9135
5251.00,0.9069
5250.00,0.9003
5249.00,0.8938
5248.00,0.8872
5247.00,0.8807
5246.00,0.8742
5245.00,0.8676
5244.00,0.8611
5243.00,0.8546
5242.00,0.8482
5241.00,0.8420
5240.00,0.8359
5239.00,0.8298
5238.00,0.8238
5237.00,0.8179
5236.00,0.8122
5235.00,0.8065
5234.00,0.8010
5233.00,0.7956
5232.00,0.7903
5231.00,0.7852
5230.00,0.7802
5229.00,0.7754
5228.00,0.7707
5227.00,0.7661
5226.00,0.7616
5225.00,0.7573
5224.00,0.7532
5223.00,0.7492
5222.00,0.7454
5221.00,0.7417
5220.00,0.7382
5219.00,0.7349
5218.00,0.7318
5217.00,0.7289
5216.00,0.7261
5215.00,0.7235
5214.00,0.7211
5213.00,0.7190
5212.00,0.7172
5211.00,0.7156
5210.00,0.7143
5209.00,0.7132
5208.00,0.7123
5207.00,0.7117
5206.00,0.7112
5205.00,0.7109
5204.00,0.7107
5203.00,0.7107
5202.00,0.7110
5201.00,0.7114
5200.00,0.7122
5199.00,0.7132
5198.00,0.7144
5197.00,0.7158
5196.00,0.7175
5195.00,0.7194
5194.00,0.7215
5193.00,0.7238
5192.00,0.7263
5191.00,0.7290
5190.00,0.7320
5189.00,0.7351
5188.00,0.7385
5187.00,0.7420
5186.00,0.7457
5185.00,0.7496
5184.00,0.7538
5183.00,0.7582
5182.00,0.7627
5181.00,0.7674
5180.00,0.7722
5179.00,0.7771
5178.00,0.7822
5177.00,0.7874
5176.00,0.7927
5175.00,0.7981
5174.00,0.8037
5173.00,0.8095
5172.00,0.8154
5171.00,0.8215
5170.00,0.8276
5169.00,0.8339
5168.00,0.8402
5167.00,0.8466
5166.00,0.8531
5165.00,0.8597
5164.00,0.8664
5163.00,0.8732
5162.00,0.8801
5161.00,0.8871
5160.00,0.8940
5159.00,0.9009
5158.00,0.9078
5157.00,0.9147
5156.00,0.9218
5155.00,0.9289
5154.00,0.9361
5153.00,0.9433
5152.00,0.9505
5151.00,0.9577
5150.00,0.9649
5149.00,0.9722
5148.00,0.9795
5147.00,0.9868
5146.00,0.9941
5145.00,1.0013
5144.00,1.0084
5143.00,1.0156
5142.00,1.0228
5141.00,1.0299
5140.00,1.0371
5139.00,1.0443
5138.00,1.0514
5137.00,1.0586
5136.00,1.0656
5135.00,1.0725
5134.00,1.0793
5133.00,1.0861
5132.00,1.0929
5131.00,1.0998
5130.00,1.1066
5129.00,1.1133
5128.00,1.1199
5127.00,1.1264
5126.00,1.1329
5125.00,1.1394
5124.00,1.1459
5123.00,1.1524
5122.00,1.1586
5121.00,1.1647
5120.00,1.1708
5119.00,1.1770
5118.00,1.1832
5117.00,1.1895
5116.00,1.1955
5115.00,1.2014
5114.00,1.2072
5113.00,1.2129
5112.00,1.2186
5111.00,1.2242
5110.00,1.2297
5109.00,1.2350
5108.00,1.2402
5107.00,1.2454
5106.00,1.2506
5105.00,1.2559
5104.00,1.2612
5103.00,1.2663
5102.00,1.2713
5101.00,1.2762
5100.00,1.2811
5099.00,1.2860
5098.00,1.2907
5097.00,1.2953
5096.00,1.2997
5095.00,1.3041
5094.00,1.3084
5093.00,1.3128
5092.00,1.3170
5091.00,1.3210
5090.00,1.3248
5089.00,1.3286
5088.00,1.3324
5087.00,1.3363
5086.00,1.3402
5085.00,1.3442
5084.00,1.3480
5083.00,1.3516
5082.00,1.3551
5081.00,1.3586
5080.00,1.3620
5079.00,1.3653
5078.00,1.3685
5077.00,1.3715
5076.00,1.3744
5075.00,1.3773
5074.00,1.3804
5073.00,1.3837
5072.00,1.3870
5071.00,1.3902
5070.00,1.3931
5069.00,1.3956
5068.00,1.3977
5067.00,1.3998
5066.00,1.4019
5065.00,1.4042
5064.00,1.4065
5063.00,1.4087
5062.00,1.4108
5061.00,1.4128
5060.00,1.4148
5059.00,1.4168
5058.00,1.4189
5057.00,1.4210
5056.00,1.4229
5055.00,1.4246
5054.00,1.4263
5053.00,1.4279
5052.00,1.4296
5051.00,1.4310
5050.00,1.4324
5049.00,1.4337
5048.00,1.4350
5047.00,1.4361
5046.00,1.4372
5045.00,1.4382
5044.00,1.4392
5043.00,1.4402
5042.00,1.4412
5041.00,1.4422
5040.00,1.4431
5039.00,1.4439
5038.00,1.4445
5037.00,1.4451
5036.00,1.4458
5035.00,1.4464
5034.00,1.4468
5033.00,1.4471
5032.00,1.4474
5031.00,1.4476
5030.00,1.4479
5029.00,1.4482
5028.00,1.4482
5027.00,1.4481
5026.00,1.4480
5025.00,1.4479
5024.00,1.4481
5023.00,1.4483
5022.00,1.4484
5021.00,1.4482
5020.00,1.4477
5019.00,1.4469
5018.00,1.4459
5017.00,1.4450
5016.00,1.4441
5015.00,1.4433
5014.00,1.4426
5013.00,1.4419
5012.00,1.4412
5011.00,1.4402
5010.00,1.4391
5009.00,1.4380
5008.00,1.4367
5007.00,1.4354
5006.00,1.4341
5005.00,1.4329
5004.00,1.4317
5003.00,1.4304
5002.00,1.4288
5001.00,1.4270
5000.00,1.4250
4999.00,1.4230
4998.00,1.4211
4997.00,1.4193
4996.00,1.4175
4995.00,1.4157
4994.00,1.4137
4993.00,1.4117
4992.00,1.4095
4991.00,1.4071
4990.00,1.4047
4989.00,1.4022
4988.00,1.3997
4987.00,1.3971
4986.00,1.3944
4985.00,1.3916
4984.00,1.3886
4983.00,1.3857
4982.00,1.3829
4981.00,1.3802
4980.00,1.3775
4979.00,1.3746
4978.00,1.3715
4977.00,1.3682
4976.00,1.3649
4975.00,1.3614
4974.00,1.3579
4973.00,1.3543
4972.00,1.3507
4971.00,1.3470
4970.00,1.3432
4969.00,1.3394
4968.00,1.3354
4967.00,1.3313
4966.00,1.3271
4965.00,1.3230
4964.00,1.3189
4963.00,1.3149
4962.00,1.3106
4961.00,1.3061
4960.00,1.3014
4959.00,1.2966
4958.00,1.2918
4957.00,1.2870
4956.00,1.2822
4955.00,1.2773
4954.00,1.2723
4953.00,1.2673
4952.00,1.2622
4951.00,1.2570
4950.00,1.2516
4949.00,1.2462
4948.00,1.2408
4947.00,1.2353
4946.00,1.2299
4945.00,1.2243
4944.00,1.2186
4943.00,1.2128
4942.00,1.2068
4941.00,1.2007
4940.00,1.1947
4939.00,1.1885
4938.00,1.1824
4937.00,1.1761
4936.00,1.1696
4935.00,1.1630
4934.00,1.1563
4933.00,1.1495
4932.00,1.1428
4931.00,1.1361
4930.00,1.1294
4929.00,1.1226
4928.00,1.1157
4927.00,1.1087
4926.00,1.1016
4925.00,1.0944
4924.00,1.0872
4923.00,1.0799
4922.00,1.0726
4921.00,1.0652
4920.00,1.0577
4919.00,1.0503
4918.00,1.0428
4917.00,1.0352
4916.00,1.0277
4915.00,1.0200
4914.00,1.0124
4913.00,1.0047
4912.00,0.9970
4911.00,0.9893
4910.00,0.9816
4909.00,0.9739
4908.00,0.9662
4907.00,0.9585
4906.00,0.9507
4905.00,0.9429
4904.00,0.9351
4903.00,0.9274
4902.00,0.9197
4901.00,0.9121
4900.00,0.9046
4899.00,0.8970
4898.00,0.8895
4897.00,0.8819
4896.00,0.8744
4895.00,0.8670
4894.00,0.8597
4893.00,0.8526
4892.00,0.8455
4891.00,0.8384
4890.00,0.8314
4889.00,0.8245
4888.00,0.8178
4887.00,0.8111
4886.00,0.8047
4885.00,0.7983
4884.00,0.7921
4883.00,0.7860
4882.00,0.7801
4881.00,0.7744
4880.00,0.7688
4879.00,0.7634
4878.00,0.7581
4877.00,0.7530
4876.00,0.7481
4875.00,0.7434
4874.00,0.7389
4873.00,0.7347
4872.00,0.7307
4871.00,0.7269
4870.00,0.7233
4869.00,0.7200
4868.00,0.7169
4867.00,0.7140
4866.00,0.7114
4865.00,0.7090
4864.00,0.7070
4863.00,0.7051
4862.00,0.7036
4861.00,0.7023
4860.00,0.7012
4859.00,0.7004
4858.00,0.6999
4857.00,0.6997
4856.00,0.6997
4855.00,0.7001
4854.00,0.7008
4853.00,0.7017
4852.00,0.7029
4851.00,0.7043
4850.00,0.7059
4849.00,0.7078
4848.00,0.7100
4847.00,0.7125
4846.00,0.7153
4845.00,0.7183
4844.00,0.7215
4843.00,0.7250
4842.00,0.7286
4841.00,0.7325
4840.00,0.7367
4839.00,0.7412
4838.00,0.7459
4837.00,0.7508
4836.00,0.7559
4835.00,0.7612
4834.00,0.7666
4833.00,0.7722
4832.00,0.7780
4831.00,0.7841
4830.00,0.7903
4829.00,0.7966
4828.00,0.8031
4827.00,0.8096
4826.00,0.8163
4825.00,0.8231
4824.00,0.8301
4823.00,0.8373
4822.00,0.8446
4821.00,0.8520
4820.00,0.8595
4819.00,0.8671
4818.00,0.8748
4817.00,0.8825
4816.00,0.8903
4815.00,0.8982
4814.00,0.9062
4813.00,0.9143
4812.00,0.9224
4811.00,0.9305
4810.00,0.9387
4809.00,0.9469
4808.00,0.9551
4807.00,0.9633
4806.00,0.9715
4805.00,0.9797
4804.00,0.9880
4803.00,0.9962
4802.00,1.0045
4801.00,1.0128
4800.00,1.0211
4799.00,1.0293
4798.00,1.0376
4797.00,1.0458
4796.00,1.0539
4795.00,1.0619
4794.00,1.0699
4793.00,1.0779
4792.00,1.0859
4791.00,1.0938
4790.00,1.1017
4789.00,1.1096
4788.00,1.1174
4787.00,1.1251
4786.00,1.1327
4785.00,1.1403
4784.00,1.1477
4783.00,1.1552
4782.00,1.1627
4781.00,1.1702
4780.00,1.1776
4779.00,1.1849
4778.00,1.1920
4777.00,1.1990
4776.00,1.2060
4775.00,1.2128
4774.00,1.2195
4773.00,1.2262
4772.00,1.2328
4771.00,1.2394
4770.00,1.2461
4769.00,1.2526
4768.00,1.2591
4767.00,1.2654
4766.00,1.2716
4765.00,1.2777
4764.00,1.2838
4763.00,1.2899
4762.00,1.2958
4761.00,1.3017
4760.00,1.3074
4759.00,1.3130
4758.00,1.3185
4757.00,1.3241
4756.00,1.3296
4755.00,1.3351
4754.00,1.3405
4753.00,1.3458
4752.00,1.3510
4751.00,1.3561
4750.00,1.3610
4749.00,1.3659
4748.00,1.3707
4747.00,1.3755
4746.00,1.3803
4745.00,1.3851
4744.00,1.3899
4743.00,1.3946
4742.00,1.3990
4741.00,1.4032
4740.00,1.4071
4739.00,1.4111
4738.00,1.4150
4737.00,1.4191
4736.00,1.4231
4735.00,1.4269
4734.00,1.4305
4733.00,1.4340
4732.00,1.4374
4731.00,1.4409
4730.00,1.4444
4729.00,1.4477
4728.00,1.4509
4727.00,1.4541
4726.00,1.4572
4725.00,1.4604
4724.00,1.4636
4723.00,1.4667
4722.00,1.4698
4721.00,1.4728
4720.00,1.4757
4719.00,1.4785
4718.00,1.4811
4717.00,1.4836
4716.00,1.4858
4715.00,1.4878
4714.00,1.4899
4713.00,1.4920
4712.00,1.4943
4711.00,1.4966
4710.00,1.4988
4709.00,1.5008
4708.00,1.5028
4707.00,1.5047
4706.00,1.5066
4705.00,1.5084
4704.00,1.5100
4703.00,1.5114
4702.00,1.5127
4701.00,1.5140
4700.00,1.5154
4699.00,1.5167
4698.00,1.5181
4697.00,1.5195
4696.00,1.5210
4695.00,1.5223
4694.00,1.5234
4693.00,1.5242
4692.00,1.5249
4691.00,1.5257
4690.00,1.5266
4689.00,1.5274
4688.00,1.5281
4687.00,1.5286
4686.00,1.5290
4685.00,1.5293
4684.00,1.5296
4683.00,1.5299
4682.00,1.5302
4681.00,1.5306
4680.00,1.5308
4679.00,1.5310
4678.00,1.5311
4677.00,1.5310
4676.00,1.5310
4675.00,1.5309
4674.00,1.5307
4673.00,1.5303
4672.00,1.5299
4671.00,1.5294
4670.00,1.5289
4669.00,1.5284
4668.00,1.5279
4667.00,1.5271
4666.00,1.5263
4665.00,1.5255
4664.00,1.5247
4663.00,1.5239
4662.00,1.5230
4661.00,1.5219
4660.00,1.5206
4659.00,1.5193
4658.00,1.5180
4657.00,1.5166
4656.00,1.5152
4655.00,1.5137
4654.00,1.5120
4653.00,1.5101
4652.00,1.5082
4651.00,1.5063
4650.00,1.5045
4649.00,1.5029
4648.00,1.5013
4647.00,1.4997
4646.00,1.4980
4645.00,1.4960
4644.00,1.4937
4643.00,1.4912
4642.00,1.4884
4641.00,1.4856
4640.00,1.4828
4639.00,1.4801
4638.00,1.4774
4637.00,1.4747
4636.00,1.4719
4635.00,1.4689
4634.00,1.4659
4633.00,1.4629
4632.00,1.4599
4631.00,1.4569
4630.00,1.4537
4629.00,1.4504
4628.00,1.4468
4627.00,1.4431
4626.00,1.4395
4625.00,1.4358
4624.00,1.4322
4623.00,1.4286
4622.00,1.4248
4621.00,1.4208
4620.00,1.4167
4619.00,1.4125
4618.00,1.4082
4617.00,1.4040
4616.00,1.3997
4615.00,1.3954
4614.00,1.3909
4613.00,1.3862
4612.00,1.3815
4611.00,1.3768
4610.00,1.3721
4609.00,1.3674
4608.00,1.3624
4607.00,1.3572
4606.00,1.3519
4605.00,1.3465
4604.00,1.3410
4603.00,1.3354
4602.00,1.3298
4601.00,1.3242
4600.00,1.3185
4599.00,1.3128
4598.00,1.3070
4597.00,1.3010
4596.00,1.2949
4595.00,1.2887
4594.00,1.2823
4593.00,1.2759
4592.00,1.2693
4591.00,1.2626
4590.00,1.2558
4589.00,1.2490
4588.00,1.2422
4587.00,1.2353
4586.00,1.2284
4585.00,1.2213
4584.00,1.2141
4583.00,1.2067
4582.00,1.1992
4581.00,1.1917
4580.00,1.1841
4579.00,1.1764
4578.00,1.1687
4577.00,1.1609
4576.00,1.1530
4575.00,1.1449
4574.00,1.1368
4573.00,1.1287
4572.00,1.1206
4571.00,1.1124
4570.00,1.1041
4569.00,1.0958
4568.00,1.0873
4567.00,1.0788
4566.00,1.0701
4565.00,1.0615
4564.00,1.0527
4563.00,1.0439
4562.00,1.0351
4561.00,1.0263
4560.00,1.0176
4559.00,1.0088
4558.00,1.0000
4557.00,0.9913
4556.00,0.9825
4555.00,0.9737
4554.00,0.9649
4553.00,0.9561
4552.00,0.9473
4551.00,0.9386
4550.00,0.9300
4549.00,0.9215
4548.00,0.9130
4547.00,0.9045
4546.00,0.8961
4545.00,0.8879
4544.00,0.8797
4543.00,0.8716
4542.00,0.8636
4541.00,0.8557
4540.00,0.8479
4539.00,0.8402
4538.00,0.8327
4537.00,0.8254
4536.00,0.8182
4535.00,0.8112
4534.00,0.8044
4533.00,0.7977
4532.00,0.7911
4531.00,0.7848
4530.00,0.7787
4529.00,0.7727
4528.00,0.7670
4527.00,0.7616
4526.00,0.7564
4525.00,0.7515
4524.00,0.7468
4523.00,0.7425
4522.00,0.7384
4521.00,0.7346
4520.00,0.7310
4519.00,0.7277
4518.00,0.7248
4517.00,0.7222
4516.00,0.7199
4515.00,0.7179
4514.00,0.7163
4513.00,0.7150
4512.00,0.7141
4511.00,0.7135
4510.00,0.7132
4509.00,0.7132
4508.00,0.7136
4507.00,0.7144
4506.00,0.7155
4505.00,0.7169
4504.00,0.7188
4503.00,0.7210
4502.00,0.7235
4501.00,0.7264
4500.00,0.7295
4499.00,0.7330
4498.00,0.7368
4497.00,0.7409
4496.00,0.7453
4495.00,0.7500
4494.00,0.7549
4493.00,0.7602
4492.00,0.7657
4491.00,0.7715
4490.00,0.7776
4489.00,0.7839
4488.00,0.7903
4487.00,0.7970
4486.00,0.8040
4485.00,0.8112
4484.00,0.8185
4483.00,0.8261
4482.00,0.8339
4481.00,0.8418
4480.00,0.8499
4479.00,0.8581
4478.00,0.8665
4477.00,0.8750
4476.00,0.8836
4475.00,0.8923
4474.00,0.9012
4473.00,0.9101
4472.00,0.9192
4471.00,0.9283
4470.00,0.9375
4469.00,0.9468
4468.00,0.9561
4467.00,0.9654
4466.00,0.9748
4465.00,0.9842
4464.00,0.9937
4463.00,1.0032
4462.00,1.0127
4461.00,1.0221
4460.00,1.0315
4459.00,1.0410
4458.00,1.0505
4457.00,1.0601
4456.00,1.0696
4455.00,1.0790
4454.00,1.0884
4453.00,1.0978
4452.00,1.1070
4451.00,1.1162
4450.00,1.1254
4449.00,1.1345
4448.00,1.1435
4447.00,1.1524
4446.00,1.1613
4445.00,1.1701
4444.00,1.1789
4443.00,1.1876
4442.00,1.1963
4441.00,1.2049
4440.00,1.2135
4439.00,1.2220
4438.00,1.2305
4437.00,1.2388
4436.00,1.2469
4435.00,1.2549
4434.00,1.2628
4433.00,1.2706
4432.00,1.2783
4431.00,1.2859
4430.00,1.2935
4429.00,1.3011
4428.00,1.3087
4427.00,1.3161
4426.00,1.3235
4425.00,1.3306
4424.00,1.3377
4423.00,1.3446
4422.00,1.3514
4421.00,1.3580
4420.00,1.3646
4419.00,1.3711
4418.00,1.3777
4417.00,1.3842
4416.00,1.3907
4415.00,1.3970
4414.00,1.4030
4413.00,1.4089
4412.00,1.4147
4411.00,1.4204
4410.00,1.4261
4409.00,1.4318
4408.00,1.4374
4407.00,1.4428
4406.00,1.4482
4405.00,1.4536
4404.00,1.4590
4403.00,1.4641
4402.00,1.4691
4401.00,1.4738
4400.00,1.4786
4399.00,1.4834
4398.00,1.4882
4397.00,1.4930
4396.00,1.4977
4395.00,1.5021
4394.00,1.5063
4393.00,1.5104
4392.00,1.5146
4391.00,1.5187
4390.00,1.5229
4389.00,1.5269
4388.00,1.5308
4387.00,1.5345
4386.00,1.5381
4385.00,1.5417
4384.00,1.5452
4383.00,1.5486
4382.00,1.5519
4381.00,1.5551
4380.00,1.5583
4379.00,1.5615
4378.00,1.5646
4377.00,1.5677
4376.00,1.5706
4375.00,1.5734
4374.00,1.5761
4373.00,1.5789
4372.00,1.5816
4371.00,1.5842
4370.00,1.5867
4369.00,1.5891
4368.00,1.5914
4367.00,1.5937
4366.00,1.5958
4365.00,1.5978
4364.00,1.5997
4363.00,1.6016
4362.00,1.6035
4361.00,1.6055
4360.00,1.6074
4359.00,1.6092
4358.00,1.6109
4357.00,1.6125
4356.00,1.6141
4355.00,1.6156
4354.00,1.6171
4353.00,1.6184
4352.00,1.6196
4351.00,1.6206
4350.00,1.6215
4349.00,1.6225
4348.00,1.6237
4347.00,1.6250
4346.00,1.6262
4345.00,1.6271
4344.00,1.6278
4343.00,1.6283
4342.00,1.6287
4341.00,1.6293
4340.00,1.6300
4339.00,1.6305
4338.00,1.6309
4337.00,1.6311
4336.00,1.6312
4335.00,1.6314
4334.00,1.6316
4333.00,1.6318
4332.00,1.6319
4331.00,1.6319
4330.00,1.6318
4329.00,1.6315
4328.00,1.6311
4327.00,1.6307
4326.00,1.6303
4325.00,1.6299
4324.00,1.6295
4323.00,1.6290
4322.00,1.6285
4321.00,1.6279
4320.00,1.6272
4319.00,1.6265
4318.00,1.6257
4317.00,1.6248
4316.00,1.6238
4315.00,1.6226
4314.00,1.6214
4313.00,1.6201
4312.00,1.6187
4311.00,1.6174
4310.00,1.6160
4309.00,1.6146
4308.00,1.6132
4307.00,1.6116
4306.00,1.6099
4305.00,1.6080
4304.00,1.6063
4303.00,1.6046
4302.00,1.6030
4301.00,1.6012
4300.00,1.5991
4299.00,1.5967
4298.00,1.5941
4297.00,1.5915
4296.00,1.5891
4295.00,1.5868
4294.00,1.5844
4293.00,1.5819
4292.00,1.5793
4291.00,1.5767
4290.00,1.5741
4289.00,1.5714
4288.00,1.5687
4287.00,1.5658
4286.00,1.5628
4285.00,1.5596
4284.00,1.5563
4283.00,1.5529
4282.00,1.5495
4281.00,1.5461
4280.00,1.5428
4279.00,1.5394
4278.00,1.5359
4277.00,1.5322
4276.00,1.5285
4275.00,1.5246
4274.00,1.5206
4273.00,1.5166
4272.00,1.5125
4271.00,1.5083
4270.00,1.5040
4269.00,1.4996
4268.00,1.4950
4267.00,1.4902
4266.00,1.4853
4265.00,1.4803
4264.00,1.4754
4263.00,1.4704
4262.00,1.4653
4261.00,1.4599
4260.00,1.4545
4259.00,1.4492
4258.00,1.4438
4257.00,1.4384
4256.00,1.4327
4255.00,1.4267
4254.00,1.4206
4253.00,1.4144
4252.00,1.4081
4251.00,1.4018
4250.00,1.3953
4249.00,1.3888
4248.00,1.3821
4247.00,1.3754
4246.00,1.3685
4245.00,1.3616
4244.00,1.3545
4243.00,1.3474
4242.00,1.3402
4241.00,1.3329
4240.00,1.3255
4239.00,1.3180
4238.00,1.3103
4237.00,1.3026
4236.00,1.2947
4235.00,1.2867
4234.00,1.2785
4233.00,1.2702
4232.00,1.2619
4231.00,1.2535
4230.00,1.2452
4229.00,1.2368
4228.00,1.2283
4227.00,1.2196
4226.00,1.2108
4225.00,1.2019
4224.00,1.1930
4223.00,1.1840
4222.00,1.1750
4221.00,1.1660
4220.00,1.1570
4219.00,1.1479
4218.00,1.1387
4217.00,1.1294
4216.00,1.1200
4215.00,1.1106
4214.00,1.1011
4213.00,1.0915
4212.00,1.0819
4211.00,1.0722
4210.00,1.0625
4209.00,1.0527
4208.00,1.0428
4207.00,1.0330
4206.00,1.0231
4205.00,1.0133
4204.00,1.0034
4203.00,0.9936
4202.00,0.9839
4201.00,0.9741
4200.00,0.9644
4199.00,0.9547
4198.00,0.9451
4197.00,0.9355
4196.00,0.9261
4195.00,0.9168
4194.00,0.9077
4193.00,0.8988
4192.00,0.8901
4191.00,0.8816
4190.00,0.8733
4189.00,0.8652
4188.00,0.8573
4187.00,0.8495
4186.00,0.8420
4185.00,0.8346
4184.00,0.8276
4183.00,0.8207
4182.00,0.8141
4181.00,0.8077
4180.00,0.8016
4179.00,0.7957
4178.00,0.7902
4177.00,0.7849
4176.00,0.7800
4175.00,0.7754
4174.00,0.7711
4173.00,0.7672
4172.00,0.7636
4171.00,0.7604
4170.00,0.7576
4169.00,0.7551
4168.00,0.7530
4167.00,0.7513
4166.00,0.7500
4165.00,0.7492
4164.00,0.7487
4163.00,0.7487
4162.00,0.7490
4161.00,0.7497
4160.00,0.7509
4159.00,0.7524
4158.00,0.7544
4157.00,0.7567
4156.00,0.7595
4155.00,0.7626
4154.00,0.7661
4153.00,0.7700
4152.00,0.7742
4151.00,0.7788
4150.00,0.7837
4149.00,0.7890
4148.00,0.7946
4147.00,0.8005
4146.00,0.8067
4145.00,0.8131
4144.00,0.8199
4143.00,0.8269
4142.00,0.8342
4141.00,0.8417
4140.00,0.8495
4139.00,0.8576
4138.00,0.8659
4137.00,0.8744
4136.00,0.8831
4135.00,0.8920
4134.00,0.9012
4133.00,0.9105
4132.00,0.9200
4131.00,0.9296
4130.00,0.9394
4129.00,0.9494
4128.00,0.9595
4127.00,0.9696
4126.00,0.9799
4125.00,0.9901
4124.00,1.0004
4123.00,1.0108
4122.00,1.0212
4121.00,1.0316
4120.00,1.0421
4119.00,1.0526
4118.00,1.0632
4117.00,1.0737
4116.00,1.0843
4115.00,1.0947
4114.00,1.1052
4113.00,1.1157
4112.00,1.1262
4111.00,1.1367
4110.00,1.1472
4109.00,1.1576
4108.00,1.1679
4107.00,1.1782
4106.00,1.1884
4105.00,1.1986
4104.00,1.2086
4103.00,1.2186
4102.00,1.2285
4101.00,1.2383
4100.00,1.2480
4099.00,1.2577
4098.00,1.2673
4097.00,1.2768
4096.00,1.2861
4095.00,1.2954
4094.00,1.3046
4093.00,1.3136
4092.00,1.3226
4091.00,1.3314
4090.00,1.3402
4089.00,1.3488
4088.00,1.3575
4087.00,1.3661
4086.00,1.3746
4085.00,1.3830
4084.00,1.3912
4083.00,1.3991
4082.00,1.4068
4081.00,1.4145
4080.00,1.4220
4079.00,1.4296
4078.00,1.4371
4077.00,1.4445
4076.00,1.4518
4075.00,1.4590
4074.00,1.4660
4073.00,1.4729
4072.00,1.4797
4071.00,1.4864
4070.00,1.4929
4069.00,1.4994
4068.00,1.5057
4067.00,1.5120
4066.00,1.5183
4065.00,1.5246
4064.00,1.5309
4063.00,1.5370
4062.00,1.5429
4061.00,1.5488
4060.00,1.5547
4059.00,1.5606
4058.00,1.5663
4057.00,1.5720
4056.00,1.5775
4055.00,1.5828
4054.00,1.5879
4053.00,1.5928
4052.00,1.5976
4051.00,1.6023
4050.00,1.6071
4049.00,1.6118
4048.00,1.6166
4047.00,1.6214
4046.00,1.6261
4045.00,1.6305
4044.00,1.6348
4043.00,1.6390
4042.00,1.6431
4041.00,1.6472
4040.00,1.6511
4039.00,1.6548
4038.00,1.6582
4037.00,1.6616
4036.00,1.6650
4035.00,1.6686
4034.00,1.6723
4033.00,1.6760
4032.00,1.6794
4031.00,1.6826
4030.00,1.6856
4029.00,1.6886
4028.00,1.6917
4027.00,1.6950
4026.00,1.6984
4025.00,1.7016
4024.00,1.7047
4023.00,1.7075
4022.00,1.7101
4021.00,1.7124
4020.00,1.7146
4019.00,1.7168
4018.00,1.7192
4017.00,1.7218
4016.00,1.7244
4015.00,1.7268
4014.00,1.7289
4013.00,1.7307
4012.00,1.7324
4011.00,1.7341
4010.00,1.7358
4009.00,1.7373
4008.00,1.7388
4007.00,1.7403
4006.00,1.7418
4005.00,1.7433
4004.00,1.7449
4003.00,1.7463
4002.00,1.7476
4001.00,1.7488
4000.00,1.7498
3999.00,1.7507
3998.00,1.7517
3997.00,1.7528
3996.00,1.7540
3995.00,1.7551
3994.00,1.7558
3993.00,1.7562
3992.00,1.7566
3991.00,1.7570
3990.00,1.7574
3989.00,1.7578
3988.00,1.7579
3987.00,1.7580
3986.00,1.7580
3985.00,1.7581
3984.00,1.7582
3983.00,1.7582
3982.00,1.7583
3981.00,1.7584
3980.00,1.7584
3979.00,1.7582
3978.00,1.7577
3977.00,1.7571
3976.00,1.7564
3975.00,1.7556
3974.00,1.7550
3973.00,1.7543
3972.00,1.7537
3971.00,1.7531
3970.00,1.7522
3969.00,1.7512
3968.00,1.7501
3967.00,1.7490
3966.00,1.7481
3965.00,1.7471
3964.00,1.7458
3963.00,1.7442
3962.00,1.7424
3961.00,1.7407
3960.00,1.7392
3959.00,1.7379
3958.00,1.7365
3957.00,1.7349
3956.00,1.7331
3955.00,1.7314
3954.00,1.7296
3953.00,1.7279
3952.00,1.7259
3951.00,1.7238
3950.00,1.7214
3949.00,1.7189
3948.00,1.7164
3947.00,1.7139
3946.00,1.7115
3945.00,1.7090
3944.00,1.7064
3943.00,1.7035
3942.00,1.7003
3941.00,1.6970
3940.00,1.6938
3939.00,1.6907
3938.00,1.6877
3937.00,1.6845
3936.00,1.6812
3935.00,1.6777
3934.00,1.6742
3933.00,1.6706
3932.00,1.6670
3931.00,1.6633
3930.00,1.6593
3929.00,1.6551
3928.00,1.6508
3927.00,1.6465
3926.00,1.6422
3925.00,1.6380
3924.00,1.6335
3923.00,1.6289
3922.00,1.6240
3921.00,1.6190
3920.00,1.6140
3919.00,1.6090
3918.00,1.6038
3917.00,1.5985
3916.00,1.5930
3915.00,1.5875
3914.00,1.5819
3913.00,1.5764
3912.00,1.5706
3911.00,1.5647
3910.00,1.5587
3909.00,1.5526
3908.00,1.5466
3907.00,1.5406
3906.00,1.5344
3905.00,1.5279
3904.00,1.5211
3903.00,1.5140
3902.00,1.5067
3901.00,1.4992
3900.00,1.4915
3899.00,1.4836
3898.00,1.4758
3897.00,1.4682
3896.00,1.4608
3895.00,1.4535
3894.00,1.4460
3893.00,1.4382
3892.00,1.4301
3891.00,1.4218
3890.00,1.4135
3889.00,1.4052
3888.00,1.3969
3887.00,1.3881
3886.00,1.3787
3885.00,1.3691
3884.00,1.3596
3883.00,1.3505
3882.00,1.3413
3881.00,1.3316
3880.00,1.3214
3879.00,1.3112
3878.00,1.3012
3877.00,1.2914
3876.00,1.2815
3875.00,1.2714
3874.00,1.2610
3873.00,1.2507
3872.00,1.2403
3871.00,1.2295
3870.00,1.2180
3869.00,1.2062
3868.00,1.1947
3867.00,1.1837
3866.00,1.1725
3865.00,1.1607
3864.00,1.1486
3863.00,1.1365
3862.00,1.1246
3861.00,1.1128
3860.00,1.1011
3859.00,1.0896
3858.00,1.0786
3857.00,1.0684
3856.00,1.0585
3855.00,1.0481
3854.00,1.0363
3853.00,1.0230
3852.00,1.0093
3851.00,0.9964
3850.00,0.9842
3849.00,0.9723
3848.00,0.9604
3847.00,0.9489
3846.00,0.9377
3845.00,0.9269
3844.00,0.9162
3843.00,0.9058
3842.00,0.8957
3841.00,0.8861
3840.00,0.8767
3839.00,0.8674
3838.00,0.8577
3837.00,0.8479
3836.00,0.8384
3835.00,0.8297
3834.00,0.8215
3833.00,0.8138
3832.00,0.8062
3831.00,0.7991
3830.00,0.7926
3829.00,0.7869
3828.00,0.7819
3827.00,0.7775
3826.00,0.7735
3825.00,0.7702
3824.00,0.7678
3823.00,0.7661
3822.00,0.7649
3821.00,0.7636
3820.00,0.7623
3819.00,0.7615
3818.00,0.7614
3817.00,0.7622
3816.00,0.7637
3815.00,0.7657
3814.00,0.7679
3813.00,0.7705
3812.00,0.7736
3811.00,0.7771
3810.00,0.7814
3809.00,0.7866
3808.00,0.7928
3807.00,0.7998
3806.00,0.8072
3805.00,0.8144
3804.00,0.8215
3803.00,0.8290
3802.00,0.8376
3801.00,0.8473
3800.00,0.8575
3799.00,0.8674
3798.00,0.8769
3797.00,0.8863
3796.00,0.8961
3795.00,0.9064
3794.00,0.9171
3793.00,0.9280
3792.00,0.9391
3791.00,0.9504
3790.00,0.9621
3789.00,0.9740
3788.00,0.9861
3787.00,0.9983
3786.00,1.0106
3785.00,1.0231
3784.00,1.0358
3783.00,1.0485
3782.00,1.0610
3781.00,1.0736
3780.00,1.0864
3779.00,1.0995
3778.00,1.1129
3777.00,1.1261
3776.00,1.1389
3775.00,1.1514
3774.00,1.1637
3773.00,1.1759
3772.00,1.1882
3771.00,1.2006
3770.00,1.2133
3769.00,1.2263
3768.00,1.2391
3767.00,1.2515
3766.00,1.2635
3765.00,1.2755
3764.00,1.2874
3763.00,1.2990
3762.00,1.3103
3761.00,1.3215
3760.00,1.3327
3759.00,1.3442
3758.00,1.3557
3757.00,1.3670
3756.00,1.3778
3755.00,1.3881
3754.00,1.3979
3753.00,1.4079
3752.00,1.4186
3751.00,1.4301
3750.00,1.4421
3749.00,1.4540
3748.00,1.4648
3747.00,1.4741
3746.00,1.4823
3745.00,1.4908
3744.00,1.5004
3743.00,1.5108
3742.00,1.5209
3741.00,1.5297
3740.00,1.5373
3739.00,1.5441
3738.00,1.5509
3737.00,1.5583
3736.00,1.5665
3735.00,1.5752
3734.00,1.5838
3733.00,1.5922
3732.00,1.6002
3731.00,1.6081
3730.00,1.6157
3729.00,1.6230
3728.00,1.6302
3727.00,1.6371
3726.00,1.6440
3725.00,1.6508
3724.00,1.6576
3723.00,1.6643
3722.00,1.6710
3721.00,1.6778
3720.00,1.6846
3719.00,1.6912
3718.00,1.6978
3717.00,1.7042
3716.00,1.7106
3715.00,1.7166
3714.00,1.7224
3713.00,1.7282
3712.00,1.7340
3711.00,1.7399
3710.00,1.7456
3709.00,1.7510
3708.00,1.7561
3707.00,1.7609
3706.00,1.7655
3705.00,1.7701
3704.00,1.7748
3703.00,1.7795
3702.00,1.7843
3701.00,1.7892
3700.00,1.7940
3699.00,1.7987
3698.00,1.8033
3697.00,1.8078
3696.00,1.8123
3695.00,1.8167
3694.00,1.8209
3693.00,1.8252
3692.00,1.8296
3691.00,1.8340
3690.00,1.8382
3689.00,1.8422
3688.00,1.8461
3687.00,1.8496
3686.00,1.8530
3685.00,1.8560
3684.00,1.8589
3683.00,1.8615
3682.00,1.8642
3681.00,1.8673
3680.00,1.8706
3679.00,1.8739
3678.00,1.8769
3677.00,1.8796
3676.00,1.8822
3675.00,1.8848
3674.00,1.8875
3673.00,1.8902
3672.00,1.8924
3671.00,1.8941
3670.00,1.8958
3669.00,1.8976
3668.00,1.8997
3667.00,1.9016
3666.00,1.9033
3665.00,1.9047
3664.00,1.9063
3663.00,1.9079
3662.00,1.9095
3661.00,1.9110
3660.00,1.9122
3659.00,1.9133
3658.00,1.9141
3657.00,1.9150
3656.00,1.9159
3655.00,1.9170
3654.00,1.9181
3653.00,1.9192
3652.00,1.9199
3651.00,1.9202
3650.00,1.9203
3649.00,1.9205
3648.00,1.9207
3647.00,1.9209
3646.00,1.9210
3645.00,1.9210
3644.00,1.9208
3643.00,1.9206
3642.00,1.9202
3641.00,1.9198
3640.00,1.9195
3639.00,1.9192
3638.00,1.9189
3637.00,1.9186
3636.00,1.9182
3635.00,1.9176
3634.00,1.9169
3633.00,1.9161
3632.00,1.9152
3631.00,1.9142
3630.00,1.9129
3629.00,1.9115
3628.00,1.9102
3627.00,1.9091
3626.00,1.9081
3625.00,1.9071
3624.00,1.9061
3623.00,1.9049
3622.00,1.9037
3621.00,1.9024
3620.00,1.9008
3619.00,1.8989
3618.00,1.8971
3617.00,1.8955
3616.00,1.8941
3615.00,1.8926
3614.00,1.8908
3613.00,1.8888
3612.00,1.8869
3611.00,1.8850
3610.00,1.8828
3609.00,1.8803
3608.00,1.8774
3607.00,1.8743
3606.00,1.8715
3605.00,1.8689
3604.00,1.8664
3603.00,1.8636
3602.00,1.8606
3601.00,1.8574
3600.00,1.8541
3599.00,1.8507
3598.00,1.8472
3597.00,1.8436
3596.00,1.8398
3595.00,1.8356
3594.00,1.8314
3593.00,1.8270
3592.00,1.8227
3591.00,1.8183
3590.00,1.8139
3589.00,1.8094
3588.00,1.8053
3587.00,1.8016
3586.00,1.7984
3585.00,1.7951
3584.00,1.7912
3583.00,1.7866
3582.00,1.7818
3581.00,1.7770
3580.00,1.7723
3579.00,1.7674
3578.00,1.7626
3577.00,1.7579
3576.00,1.7533
3575.00,1.7488
3574.00,1.7441
3573.00,1.7394
3572.00,1.7346
3571.00,1.7298
3570.00,1.7249
3569.00,1.7195
3568.00,1.7137
3567.00,1.7077
3566.00,1.7017
3565.00,1.6961
3564.00,1.6906
3563.00,1.6852
3562.00,1.6797
3561.00,1.6741
3560.00,1.6681
3559.00,1.6618
3558.00,1.6552
3557.00,1.6485
3556.00,1.6417
3555.00,1.6347
3554.00,1.6276
3553.00,1.6204
3552.00,1.6129
3551.00,1.6051
3550.00,1.5971
3549.00,1.5890
3548.00,1.5809
3547.00,1.5726
3546.00,1.5640
3545.00,1.5552
3544.00,1.5464
3543.00,1.5375
3542.00,1.5286
3541.00,1.5195
3540.00,1.5103
3539.00,1.5008
3538.00,1.4913
3537.00,1.4815
3536.00,1.4715
3535.00,1.4614
3534.00,1.4511
3533.00,1.4407
3532.00,1.4302
3531.00,1.4195
3530.00,1.4087
3529.00,1.3977
3528.00,1.3866
3527.00,1.3755
3526.00,1.3641
3525.00,1.3526
3524.00,1.3409
3523.00,1.3291
3522.00,1.3174
3521.00,1.3057
3520.00,1.2941
3519.00,1.2824
3518.00,1.2706
3517.00,1.2587
3516.00,1.2468
3515.00,1.2347
3514.00,1.2227
3513.00,1.2106
3512.00,1.1985
3511.00,1.1864
3510.00,1.1743
3509.00,1.1621
3508.00,1.1500
3507.00,1.1380
3506.00,1.1261
3505.00,1.1144
3504.00,1.1028
3503.00,1.0912
3502.00,1.0797
3501.00,1.0684
3500.00,1.0574
3499.00,1.0466
3498.00,1.0362
3497.00,1.0261
3496.00,1.0163
3495.00,1.0067
3494.00,0.9975
3493.00,0.9887
3492.00,0.9802
3491.00,0.9721
3490.00,0.9645
3489.00,0.9574
3488.00,0.9506
3487.00,0.9444
3486.00,0.9387
3485.00,0.9336
3484.00,0.9290
3483.00,0.9250
3482.00,0.9216
3481.00,0.9187
3480.00,0.9163
3479.00,0.9146
3478.00,0.9135
3477.00,0.9131
3476.00,0.9134
3475.00,0.9143
3474.00,0.9158
3473.00,0.9179
3472.00,0.9205
3471.00,0.9238
3470.00,0.9277
3469.00,0.9322
3468.00,0.9373
3467.00,0.9431
3466.00,0.9494
3465.00,0.9563
3464.00,0.9638
3463.00,0.9719
3462.00,0.9804
3461.00,0.9894
3460.00,0.9988
3459.00,1.0087
3458.00,1.0190
3457.00,1.0297
3456.00,1.0407
3455.00,1.0521
3454.00,1.0638
3453.00,1.0758
3452.00,1.0882
3451.00,1.1009
3450.00,1.1138
3449.00,1.1268
3448.00,1.1400
3447.00,1.1533
3446.00,1.1669
3445.00,1.1807
3444.00,1.1944
3443.00,1.2083
3442.00,1.2222
3441.00,1.2362
3440.00,1.2503
3439.00,1.2643
3438.00,1.2783
3437.00,1.2924
3436.00,1.3064
3435.00,1.3204
3434.00,1.3343
3433.00,1.3482
3432.00,1.3621
3431.00,1.3759
3430.00,1.3897
3429.00,1.4034
3428.00,1.4170
3427.00,1.4304
3426.00,1.4437
3425.00,1.4568
3424.00,1.4699
3423.00,1.4828
3422.00,1.4955
3421.00,1.5080
3420.00,1.5200
3419.00,1.5318
3418.00,1.5433
3417.00,1.5546
3416.00,1.5657
3415.00,1.5763
3414.00,1.5866
3413.00,1.5964
3412.00,1.6059
3411.00,1.6149
3410.00,1.6235
3409.00,1.6317
3408.00,1.6395
3407.00,1.6469
3406.00,1.6539
3405.00,1.6607
3404.00,1.6672
3403.00,1.6734
3402.00,1.6794
3401.00,1.6854
3400.00,1.6913
3399.00,1.6972
3398.00,1.7031
3397.00,1.7090
3396.00,1.7151
3395.00,1.7215
3394.00,1.7282
3393.00,1.7350
3392.00,1.7421
3391.00,1.7492
3390.00,1.7563
3389.00,1.7633
3388.00,1.7702
3387.00,1.7771
3386.00,1.7841
3385.00,1.7912
3384.00,1.7984
3383.00,1.8055
3382.00,1.8124
3381.00,1.8189
3380.00,1.8251
3379.00,1.8312
3378.00,1.8373
3377.00,1.8435
3376.00,1.8498
3375.00,1.8561
3374.00,1.8625
3373.00,1.8688
3372.00,1.8750
3371.00,1.8809
3370.00,1.8864
3369.00,1.8917
3368.00,1.8969
3367.00,1.9019
3366.00,1.9069
3365.00,1.9120
3364.00,1.9172
3363.00,1.9223
3362.00,1.9274
3361.00,1.9324
3360.00,1.9373
3359.00,1.9417
3358.00,1.9457
3357.00,1.9494
3356.00,1.9534
3355.00,1.9576
3354.00,1.9620
3353.00,1.9664
3352.00,1.9706
3351.00,1.9745
3350.00,1.9781
3349.00,1.9815
3348.00,1.9848
3347.00,1.9880
3346.00,1.9913
3345.00,1.9946
3344.00,1.9978
3343.00,2.0010
3342.00,2.0039
3341.00,2.0068
3340.00,2.0097
3339.00,2.0125
3338.00,2.0152
3337.00,2.0174
3336.00,2.0192
3335.00,2.0208
3334.00,2.0225
3333.00,2.0242
3332.00,2.0260
3331.00,2.0277
3330.00,2.0297
3329.00,2.0320
3328.00,2.0345
3327.00,2.0369
3326.00,2.0390
3325.00,2.0408
3324.00,2.0423
3323.00,2.0436
3322.00,2.0448
3321.00,2.0462
3320.00,2.0478
3319.00,2.0496
3318.00,2.0516
3317.00,2.0538
3316.00,2.0561
3315.00,2.0580
3314.00,2.0596
3313.00,2.0609
3312.00,2.0622
3311.00,2.0635
3310.00,2.0651
3309.00,2.0669
3308.00,2.0689
3307.00,2.0709
3306.00,2.0725
3305.00,2.0737
3304.00,2.0741
3303.00,2.0739
3302.00,2.0734
3301.00,2.0729
3300.00,2.0728
3299.00,2.0728
3298.00,2.0729
3297.00,2.0730
3296.00,2.0732
3295.00,2.0734
3294.00,2.0736
3293.00,2.0736
3292.00,2.0733
3291.00,2.0726
3290.00,2.0718
3289.00,2.0709
3288.00,2.0703
3287.00,2.0698
3286.00,2.0692
3285.00,2.0684
3284.00,2.0675
3283.00,2.0664
3282.00,2.0651
3281.00,2.0636
3280.00,2.0619
3279.00,2.0605
3278.00,2.0596
3277.00,2.0588
3276.00,2.0579
3275.00,2.0565
3274.00,2.0550
3273.00,2.0535
3272.00,2.0520
3271.00,2.0504
3270.00,2.0486
3269.00,2.0465
3268.00,2.0443
3267.00,2.0418
3266.00,2.0390
3265.00,2.0361
3264.00,2.0334
3263.00,2.0306
3262.00,2.0278
3261.00,2.0248
3260.00,2.0219
3259.00,2.0191
3258.00,2.0162
3257.00,2.0132
3256.00,2.0100
3255.00,2.0069
3254.00,2.0038
3253.00,2.0006
3252.00,1.9972
3251.00,1.9938
3250.00,1.9904
3249.00,1.9868
3248.00,1.9829
3247.00,1.9787
3246.00,1.9744
3245.00,1.9700
3244.00,1.9656
3243.00,1.9611
3242.00,1.9566
3241.00,1.9522
3240.00,1.9477
3239.00,1.9431
3238.00,1.9385
3237.00,1.9338
3236.00,1.9291
3235.00,1.9241
3234.00,1.9187
3233.00,1.9129
3232.00,1.9069
3231.00,1.9009
3230.00,1.8949
3229.00,1.8889
3228.00,1.8830
3227.00,1.8770
3226.00,1.8709
3225.00,1.8648
3224.00,1.8585
3223.00,1.8520
3222.00,1.8453
3221.00,1.8385
3220.00,1.8314
3219.00,1.8241
3218.00,1.8165
3217.00,1.8087
3216.00,1.8010
3215.00,1.7932
3214.00,1.7853
3213.00,1.7771
3212.00,1.7686
3211.00,1.7599
3210.00,1.7512
3209.00,1.7425
3208.00,1.7336
3207.00,1.7246
3206.00,1.7152
3205.00,1.7057
3204.00,1.6960
3203.00,1.6861
3202.00,1.6761
3201.00,1.6658
3200.00,1.6554
3199.00,1.6448
3198.00,1.6339
3197.00,1.6227
3196.00,1.6112
3195.00,1.5996
3194.00,1.5879
3193.00,1.5761
3192.00,1.5641
3191.00,1.5519
3190.00,1.5395
3189.00,1.5268
3188.00,1.5139
3187.00,1.5007
3186.00,1.4872
3185.00,1.4735
3184.00,1.4595
3183.00,1.4454
3182.00,1.4312
3181.00,1.4168
3180.00,1.4023
3179.00,1.3878
3178.00,1.3731
3177.00,1.3583
3176.00,1.3433
3175.00,1.3281
3174.00,1.3128
3173.00,1.2975
3172.00,1.2821
3171.00,1.2668
3170.00,1.2514
3169.00,1.2360
3168.00,1.2206
3167.00,1.2053
3166.00,1.1902
3165.00,1.1752
3164.00,1.1602
3163.00,1.1455
3162.00,1.1310
3161.00,1.1167
3160.00,1.1028
3159.00,1.0893
3158.00,1.0761
3157.00,1.0633
3156.00,1.0510
3155.00,1.0392
3154.00,1.0279
3153.00,1.0172
3152.00,1.0071
3151.00,0.9976
3150.00,0.9888
3149.00,0.9808
3148.00,0.9734
3147.00,0.9669
3146.00,0.9611
3145.00,0.9562
3144.00,0.9521
3143.00,0.9489
3142.00,0.9466
3141.00,0.9451
3140.00,0.9446
3139.00,0.9450
3138.00,0.9464
3137.00,0.9487
3136.00,0.9520
3135.00,0.9562
3134.00,0.9614
3133.00,0.9675
3132.00,0.9744
3131.00,0.9822
3130.00,0.9906
3129.00,0.9999
3128.00,1.0099
3127.00,1.0207
3126.00,1.0321
3125.00,1.0442
3124.00,1.0570
3123.00,1.0702
3122.00,1.0839
3121.00,1.0981
3120.00,1.1128
3119.00,1.1279
3118.00,1.1435
3117.00,1.1594
3116.00,1.1756
3115.00,1.1920
3114.00,1.2087
3113.00,1.2255
3112.00,1.2425
3111.00,1.2596
3110.00,1.2768
3109.00,1.2940
3108.00,1.3113
3107.00,1.3286
3106.00,1.3460
3105.00,1.3632
3104.00,1.3805
3103.00,1.3976
3102.00,1.4145
3101.00,1.4314
3100.00,1.4481
3099.00,1.4647
3098.00,1.4811
3097.00,1.4974
3096.00,1.5136
3095.00,1.5298
3094.00,1.5457
3093.00,1.5613
3092.00,1.5766
3091.00,1.5917
3090.00,1.6066
3089.00,1.6213
3088.00,1.6358
3087.00,1.6501
3086.00,1.6641
3085.00,1.6780
3084.00,1.6915
3083.00,1.7048
3082.00,1.7180
3081.00,1.7310
3080.00,1.7438
3079.00,1.7565
3078.00,1.7689
3077.00,1.7812
3076.00,1.7932
3075.00,1.8050
3074.00,1.8163
3073.00,1.8273
3072.00,1.8384
3071.00,1.8496
3070.00,1.8607
3069.00,1.8714
3068.00,1.8815
3067.00,1.8912
3066.00,1.9008
3065.00,1.9104
3064.00,1.9200
3063.00,1.9294
3062.00,1.9384
3061.00,1.9471
3060.00,1.9557
3059.00,1.9643
3058.00,1.9730
3057.00,1.9816
3056.00,1.9902
3055.00,1.9986
3054.00,2.0067
3053.00,2.0145
3052.00,2.0220
3051.00,2.0292
3050.00,2.0363
3049.00,2.0434
3048.00,2.0505
3047.00,2.0577
3046.00,2.0649
3045.00,2.0720
3044.00,2.0790
3043.00,2.0858
3042.00,2.0924
3041.00,2.0985
3040.00,2.1043
3039.00,2.1099
3038.00,2.1155
3037.00,2.1214
3036.00,2.1274
3035.00,2.1331
3034.00,2.1383
3033.00,2.1432
3032.00,2.1480
3031.00,2.1530
3030.00,2.1578
3029.00,2.1626
3028.00,2.1674
3027.00,2.1721
3026.00,2.1768
3025.00,2.1810
3024.00,2.1851
3023.00,2.1892
3022.00,2.1934
3021.00,2.1975
3020.00,2.2010
3019.00,2.2040
3018.00,2.2069
3017.00,2.2101
3016.00,2.2135
3015.00,2.2170
3014.00,2.2203
3013.00,2.2232
3012.00,2.2257
3011.00,2.2278
3010.00,2.2298
3009.00,2.2319
3008.00,2.2341
3007.00,2.2361
3006.00,2.2375
3005.00,2.2382
3004.00,2.2385
3003.00,2.2390
3002.00,2.2399
3001.00,2.2410
3000.00,2.2418
2999.00,2.2423
2998.00,2.2425
2997.00,2.2427
2996.00,2.2426
2995.00,2.2423
2994.00,2.2416
2993.00,2.2405
2992.00,2.2390
2991.00,2.2370
2990.00,2.2345
2989.00,2.2315
2988.00,2.2283
2987.00,2.2250
2986.00,2.2217
2985.00,2.2182
2984.00,2.2141
2983.00,2.2098
2982.00,2.2056
2981.00,2.2020
2980.00,2.1987
2979.00,2.1957
2978.00,2.1929
2977.00,2.1910
2976.00,2.1904
2975.00,2.1917
2974.00,2.1956
2973.00,2.2024
2972.00,2.2126
2971.00,2.2267
2970.00,2.2446
2969.00,2.2666
2968.00,2.2926
2967.00,2.3227
2966.00,2.3568
2965.00,2.3943
2964.00,2.4346
2963.00,2.4767
2962.00,2.5198
2961.00,2.5629
2960.00,2.6048
2959.00,2.6449
2958.00,2.6827
2957.00,2.7175
2956.00,2.7483
2955.00,2.7755
2954.00,2.8007
2953.00,2.8262
2952.00,2.8531
2951.00,2.8819
2950.00,2.9125
2949.00,2.9447
2948.00,2.9783
2947.00,3.0131
2946.00,3.0484
2945.00,3.0824
2944.00,3.1127
2943.00,3.1386
2942.00,3.1632
2941.00,3.1895
2940.00,3.2166
2939.00,3.2389
2938.00,3.2501
2937.00,3.2486
2936.00,3.2375
2935.00,3.2220
2934.00,3.2052
2933.00,3.1863
2932.00,3.1622
2931.00,3.1307
2930.00,3.0926
2929.00,3.0507
2928.00,3.0079
2927.00,2.9654
2926.00,2.9230
2925.00,2.8804
2924.00,2.8383
2923.00,2.7978
2922.00,2.7598
2921.00,2.7242
2920.00,2.6903
2919.00,2.6584
2918.00,2.6297
2917.00,2.6050
2916.00,2.5843
2915.00,2.5665
2914.00,2.5506
2913.00,2.5366
2912.00,2.5243
2911.00,2.5140
2910.00,2.5054
2909.00,2.4980
2908.00,2.4916
2907.00,2.4863
2906.00,2.4820
2905.00,2.4781
2904.00,2.4739
2903.00,2.4692
2902.00,2.4644
2901.00,2.4599
2900.00,2.4558
2899.00,2.4516
2898.00,2.4470
2897.00,2.4420
2896.00,2.4370
2895.00,2.4324
2894.00,2.4283
2893.00,2.4246
2892.00,2.4208
2891.00,2.4165
2890.00,2.4118
2889.00,2.4070
2888.00,2.4025
2887.00,2.3986
2886.00,2.3951
2885.00,2.3918
2884.00,2.3889
2883.00,2.3865
2882.00,2.3846
2881.00,2.3832
2880.00,2.3824
2879.00,2.3828
2878.00,2.3852
2877.00,2.3898
2876.00,2.3969
2875.00,2.4064
2874.00,2.4188
2873.00,2.4346
2872.00,2.4538
2871.00,2.4767
2870.00,2.5030
2869.00,2.5324
2868.00,2.5636
2867.00,2.5956
2866.00,2.6267
2865.00,2.6547
2864.00,2.6770
2863.00,2.6918
2862.00,2.6988
2861.00,2.6984
2860.00,2.6909
2859.00,2.6764
2858.00,2.6558
2857.00,2.6313
2856.00,2.6048
2855.00,2.5780
2854.00,2.5520
2853.00,2.5268
2852.00,2.5022
2851.00,2.4782
2850.00,2.4554
2849.00,2.4343
2848.00,2.4153
2847.00,2.3984
2846.00,2.3837
2845.00,2.3709
2844.00,2.3593
2843.00,2.3480
2842.00,2.3368
2841.00,2.3259
2840.00,2.3157
2839.00,2.3060
2838.00,2.2965
2837.00,2.2870
2836.00,2.2774
2835.00,2.2679
2834.00,2.2586
2833.00,2.2499
2832.00,2.2418
2831.00,2.2340
2830.00,2.2262
2829.00,2.2182
2828.00,2.2103
2827.00,2.2028
2826.00,2.1954
2825.00,2.1879
2824.00,2.1801
2823.00,2.1719
2822.00,2.1630
2821.00,2.1535
2820.00,2.1433
2819.00,2.1326
2818.00,2.1214
2817.00,2.1099
2816.00,2.0981
2815.00,2.0859
2814.00,2.0733
2813.00,2.0603
2812.00,2.0470
2811.00,2.0335
2810.00,2.0201
2809.00,2.0066
2808.00,1.9930
2807.00,1.9791
2806.00,1.9646
2805.00,1.9497
2804.00,1.9346
2803.00,1.9195
2802.00,1.9046
2801.00,1.8899
2800.00,1.8755
2799.00,1.8613
2798.00,1.8471
2797.00,1.8326
2796.00,1.8179
2795.00,1.8027
2794.00,1.7870
2793.00,1.7706
2792.00,1.7534
2791.00,1.7354
2790.00,1.7167
2789.00,1.6974
2788.00,1.6775
2787.00,1.6571
2786.00,1.6363
2785.00,1.6152
2784.00,1.5937
2783.00,1.5719
2782.00,1.5500
2781.00,1.5281
2780.00,1.5062
2779.00,1.4843
2778.00,1.4626
2777.00,1.4409
2776.00,1.4192
2775.00,1.3975
2774.00,1.3756
2773.00,1.3537
2772.00,1.3320
2771.00,1.3105
2770.00,1.2895
2769.00,1.2689
2768.00,1.2490
2767.00,1.2299
2766.00,1.2115
2765.00,1.1941
2764.00,1.1776
2763.00,1.1619
2762.00,1.1469
2761.00,1.1326
2760.00,1.1188
2759.00,1.1056
2758.00,1.0931
2757.00,1.0813
2756.00,1.0705
2755.00,1.0610
2754.00,1.0528
2753.00,1.0464
2752.00,1.0418
2751.00,1.0391
2750.00,1.0384
2749.00,1.0395
2748.00,1.0425
2747.00,1.0472
2746.00,1.0537
2745.00,1.0617
2744.00,1.0713
2743.00,1.0824
2742.00,1.0947
2741.00,1.1082
2740.00,1.1229
2739.00,1.1387
2738.00,1.1554
2737.00,1.1730
2736.00,1.1912
2735.00,1.2100
2734.00,1.2292
2733.00,1.2489
2732.00,1.2688
2731.00,1.2891
2730.00,1.3096
2729.00,1.3304
2728.00,1.3514
2727.00,1.3725
2726.00,1.3938
2725.00,1.4151
2724.00,1.4366
2723.00,1.4580
2722.00,1.4794
2721.00,1.5008
2720.00,1.5221
2719.00,1.5432
2718.00,1.5640
2717.00,1.5844
2716.00,1.6044
2715.00,1.6240
2714.00,1.6433
2713.00,1.6622
2712.00,1.6808
2711.00,1.6991
2710.00,1.7170
2709.00,1.7346
2708.00,1.7519
2707.00,1.7689
2706.00,1.7857
2705.00,1.8022
2704.00,1.8184
2703.00,1.8342
2702.00,1.8497
2701.00,1.8649
2700.00,1.8798
2699.00,1.8943
2698.00,1.9086
2697.00,1.9227
2696.00,1.9366
2695.00,1.9503
2694.00,1.9637
2693.00,1.9764
2692.00,1.9887
2691.00,2.0006
2690.00,2.0125
2689.00,2.0246
2688.00,2.0368
2687.00,2.0489
2686.00,2.0608
2685.00,2.0727
2684.00,2.0845
2683.00,2.0961
2682.00,2.1072
2681.00,2.1176
2680.00,2.1272
2679.00,2.1362
2678.00,2.1450
2677.00,2.1535
2676.00,2.1617
2675.00,2.1693
2674.00,2.1766
2673.00,2.1835
2672.00,2.1900
2671.00,2.1960
2670.00,2.2017
2669.00,2.2074
2668.00,2.2130
2667.00,2.2184
2666.00,2.2238
2665.00,2.2294
2664.00,2.2354
2663.00,2.2419
2662.00,2.2487
2661.00,2.2557
2660.00,2.2626
2659.00,2.2693
2658.00,2.2759
2657.00,2.2826
2656.00,2.2896
2655.00,2.2962
2654.00,2.3022
2653.00,2.3075
2652.00,2.3127
2651.00,2.3184
2650.00,2.3245
2649.00,2.3304
2648.00,2.3353
2647.00,2.3395
2646.00,2.3438
2645.00,2.3490
2644.00,2.3550
2643.00,2.3610
2642.00,2.3661
2641.00,2.3700
2640.00,2.3733
2639.00,2.3767
2638.00,2.3809
2637.00,2.3858
2636.00,2.3907
2635.00,2.3951
2634.00,2.3992
2633.00,2.4032
2632.00,2.4074
2631.00,2.4116
2630.00,2.4154
2629.00,2.4187
2628.00,2.4218
2627.00,2.4249
2626.00,2.4283
2625.00,2.4320
2624.00,2.4357
2623.00,2.4392
2622.00,2.4426
2621.00,2.4460
2620.00,2.4495
2619.00,2.4527
2618.00,2.4556
2617.00,2.4579
2616.00,2.4599
2615.00,2.4620
2614.00,2.4641
2613.00,2.4664
2612.00,2.4687
2611.00,2.4711
2610.00,2.4731
2609.00,2.4743
2608.00,2.4744
2607.00,2.4744
2606.00,2.4754
2605.00,2.4778
2604.00,2.4808
2603.00,2.4836
2602.00,2.4859
2601.00,2.4878
2600.00,2.4891
2599.00,2.4901
2598.00,2.4907
2597.00,2.4911
2596.00,2.4914
2595.00,2.4918
2594.00,2.4927
2593.00,2.4943
2592.00,2.4960
2591.00,2.4973
2590.00,2.4981
2589.00,2.4986
2588.00,2.4991
2587.00,2.4993
2586.00,2.4995
2585.00,2.4997
2584.00,2.5002
2583.00,2.5011
2582.00,2.5022
2581.00,2.5029
2580.00,2.5027
2579.00,2.5014
2578.00,2.5002
2577.00,2.4999
2576.00,2.5001
2575.00,2.5001
2574.00,2.4992
2573.00,2.4978
2572.00,2.4965
2571.00,2.4957
2570.00,2.4950
2569.00,2.4943
2568.00,2.4933
2567.00,2.4916
2566.00,2.4890
2565.00,2.4858
2564.00,2.4829
2563.00,2.4811
2562.00,2.4803
2561.00,2.4794
2560.00,2.4778
2559.00,2.4755
2558.00,2.4735
2557.00,2.4718
2556.00,2.4702
2555.00,2.4683
2554.00,2.4666
2553.00,2.4650
2552.00,2.4631
2551.00,2.4605
2550.00,2.4573
2549.00,2.4541
2548.00,2.4509
2547.00,2.4480
2546.00,2.4454
2545.00,2.4431
2544.00,2.4407
2543.00,2.4379
2542.00,2.4347
2541.00,2.4314
2540.00,2.4282
2539.00,2.4250
2538.00,2.4219
2537.00,2.4188
2536.00,2.4155
2535.00,2.4116
2534.00,2.4071
2533.00,2.4024
2532.00,2.3983
2531.00,2.3946
2530.00,2.3909
2529.00,2.3867
2528.00,2.3820
2527.00,2.3769
2526.00,2.3719
2525.00,2.3667
2524.00,2.3612
2523.00,2.3555
2522.00,2.3501
2521.00,2.3454
2520.00,2.3410
2519.00,2.3361
2518.00,2.3304
2517.00,2.3237
2516.00,2.3167
2515.00,2.3098
2514.00,2.3032
2513.00,2.2968
2512.00,2.2904
2511.00,2.2839
2510.00,2.2773
2509.00,2.2703
2508.00,2.2628
2507.00,2.2549
2506.00,2.2471
2505.00,2.2396
2504.00,2.2322
2503.00,2.2246
2502.00,2.2167
2501.00,2.2086
2500.00,2.2002
2499.00,2.1915
2498.00,2.1823
2497.00,2.1729
2496.00,2.1635
2495.00,2.1543
2494.00,2.1450
2493.00,2.1352
2492.00,2.1247
2491.00,2.1139
2490.00,2.1030
2489.00,2.0923
2488.00,2.0815
2487.00,2.0703
2486.00,2.0590
2485.00,2.0475
2484.00,2.0357
2483.00,2.0235
2482.00,2.0110
2481.00,1.9982
2480.00,1.9851
2479.00,1.9718
2478.00,1.9580
2477.00,1.9441
2476.00,1.9298
2475.00,1.9155
2474.00,1.9009
2473.00,1.8862
2472.00,1.8711
2471.00,1.8556
2470.00,1.8396
2469.00,1.8235
2468.00,1.8074
2467.00,1.7913
2466.00,1.7748
2465.00,1.7580
2464.00,1.7407
2463.00,1.7229
2462.00,1.7046
2461.00,1.6858
2460.00,1.6665
2459.00,1.6468
2458.00,1.6267
2457.00,1.6064
2456.00,1.5859
2455.00,1.5652
2454.00,1.5442
2453.00,1.5232
2452.00,1.5020
2451.00,1.4809
2450.00,1.4597
2449.00,1.4387
2448.00,1.4177
2447.00,1.3967
2446.00,1.3759
2445.00,1.3553
2444.00,1.3350
2443.00,1.3151
2442.00,1.2956
2441.00,1.2767
2440.00,1.2584
2439.00,1.2410
2438.00,1.2243
2437.00,1.2085
2436.00,1.1939
2435.00,1.1806
2434.00,1.1686
2433.00,1.1581
2432.00,1.1493
2431.00,1.1421
2430.00,1.1365
2429.00,1.1325
2428.00,1.1299
2427.00,1.1288
2426.00,1.1290
2425.00,1.1305
2424.00,1.1333
2423.00,1.1375
2422.00,1.1430
2421.00,1.1497
2420.00,1.1577
2419.00,1.1668
2418.00,1.1770
2417.00,1.1884
2416.00,1.2009
2415.00,1.2147
2414.00,1.2295
2413.00,1.2454
2412.00,1.2623
2411.00,1.2801
2410.00,1.2987
2409.00,1.3180
2408.00,1.3381
2407.00,1.3587
2406.00,1.3798
2405.00,1.4014
2404.00,1.4234
2403.00,1.4458
2402.00,1.4685
2401.00,1.4914
2400.00,1.5144
2399.00,1.5374
2398.00,1.5604
2397.00,1.5832
2396.00,1.6059
2395.00,1.6283
2394.00,1.6506
2393.00,1.6727
2392.00,1.6945
2391.00,1.7160
2390.00,1.7370
2389.00,1.7573
2388.00,1.7770
2387.00,1.7961
2386.00,1.8147
2385.00,1.8325
2384.00,1.8493
2383.00,1.8652
2382.00,1.8800
2381.00,1.8940
2380.00,1.9074
2379.00,1.9202
2378.00,1.9329
2377.00,1.9459
2376.00,1.9595
2375.00,1.9736
2374.00,1.9880
2373.00,2.0022
2372.00,2.0162
2371.00,2.0301
2370.00,2.0441
2369.00,2.0582
2368.00,2.0721
2367.00,2.0852
2366.00,2.0976
2365.00,2.1096
2364.00,2.1217
2363.00,2.1339
2362.00,2.1463
2361.00,2.1588
2360.00,2.1713
2359.00,2.1837
2358.00,2.1953
2357.00,2.2059
2356.00,2.2158
2355.00,2.2257
2354.00,2.2364
2353.00,2.2477
2352.00,2.2591
2351.00,2.2697
2350.00,2.2794
2349.00,2.2889
2348.00,2.2987
2347.00,2.3087
2346.00,2.3180
2345.00,2.3268
2344.00,2.3361
2343.00,2.3466
2342.00,2.3579
2341.00,2.3687
2340.00,2.3782
2339.00,2.3864
2338.00,2.3939
2337.00,2.4010
2336.00,2.4078
2335.00,2.4143
2334.00,2.4205
2333.00,2.4263
2332.00,2.4322
2331.00,2.4382
2330.00,2.4444
2329.00,2.4505
2328.00,2.4567
2327.00,2.4630
2326.00,2.4689
2325.00,2.4739
2324.00,2.4787
2323.00,2.4846
2322.00,2.4921
2321.00,2.5003
2320.00,2.5079
2319.00,2.5150
2318.00,2.5220
2317.00,2.5288
2316.00,2.5346
2315.00,2.5390
2314.00,2.5432
2313.00,2.5481
2312.00,2.5540
2311.00,2.5605
2310.00,2.5669
2309.00,2.5727
2308.00,2.5780
2307.00,2.5835
2306.00,2.5897
2305.00,2.5964
2304.00,2.6026
2303.00,2.6077
2302.00,2.6123
2301.00,2.6169
2300.00,2.6220
2299.00,2.6272
2298.00,2.6323
2297.00,2.6374
2296.00,2.6424
2295.00,2.6470
2294.00,2.6509
2293.00,2.6541
2292.00,2.6568
2291.00,2.6595
2290.00,2.6625
2289.00,2.6655
2288.00,2.6684
2287.00,2.6714
2286.00,2.6746
2285.00,2.6776
2284.00,2.6799
2283.00,2.6816
2282.00,2.6835
2281.00,2.6860
2280.00,2.6888
2279.00,2.6914
2278.00,2.6940
2277.00,2.6973
2276.00,2.7013
2275.00,2.7051
2274.00,2.7076
2273.00,2.7080
2272.00,2.7070
2271.00,2.7065
2270.00,2.7083
2269.00,2.7124
2268.00,2.7173
2267.00,2.7211
2266.00,2.7233
2265.00,2.7244
2264.00,2.7246
2263.00,2.7238
2262.00,2.7224
2261.00,2.7213
2260.00,2.7211
2259.00,2.7216
2258.00,2.7225
2257.00,2.7233
2256.00,2.7240
2255.00,2.7254
2254.00,2.7278
2253.00,2.7308
2252.00,2.7326
2251.00,2.7322
2250.00,2.7301
2249.00,2.7283
2248.00,2.7281
2247.00,2.7292
2246.00,2.7303
2245.00,2.7308
2244.00,2.7311
2243.00,2.7314
2242.00,2.7322
2241.00,2.7330
2240.00,2.7334
2239.00,2.7330
2238.00,2.7319
2237.00,2.7312
2236.00,2.7316
2235.00,2.7328
2234.00,2.7333
2233.00,2.7322
2232.00,2.7295
2231.00,2.7261
2230.00,2.7228
2229.00,2.7199
2228.00,2.7180
2227.00,2.7169
2226.00,2.7162
2225.00,2.7152
2224.00,2.7142
2223.00,2.7132
2222.00,2.7120
2221.00,2.7099
2220.00,2.7068
2219.00,2.7031
2218.00,2.6994
2217.00,2.6957
2216.00,2.6924
2215.00,2.6901
2214.00,2.6892
2213.00,2.6890
2212.00,2.6879
2211.00,2.6854
2210.00,2.6818
2209.00,2.6781
2208.00,2.6748
2207.00,2.6716
2206.00,2.6680
2205.00,2.6639
2204.00,2.6599
2203.00,2.6569
2202.00,2.6554
2201.00,2.6549
2200.00,2.6538
2199.00,2.6509
2198.00,2.6461
2197.00,2.6404
2196.00,2.6349
2195.00,2.6304
2194.00,2.6265
2193.00,2.6223
2192.00,2.6174
2191.00,2.6118
2190.00,2.6064
2189.00,2.6018
2188.00,2.5979
2187.00,2.5939
2186.00,2.5888
2185.00,2.5825
2184.00,2.5755
2183.00,2.5688
2182.00,2.5630
2181.00,2.5579
2180.00,2.5529
2179.00,2.5477
2178.00,2.5420
2177.00,2.5357
2176.00,2.5292
2175.00,2.5231
2174.00,2.5176
2173.00,2.5119
2172.00,2.5055
2171.00,2.4985
2170.00,2.4917
2169.00,2.4855
2168.00,2.4797
2167.00,2.4733
2166.00,2.4657
2165.00,2.4571
2164.00,2.4479
2163.00,2.4390
2162.00,2.4304
2161.00,2.4218
2160.00,2.4125
2159.00,2.4029
2158.00,2.3931
2157.00,2.3832
2156.00,2.3727
2155.00,2.3615
2154.00,2.3501
2153.00,2.3390
2152.00,2.3281
2151.00,2.3172
2150.00,2.3061
2149.00,2.2947
2148.00,2.2829
2147.00,2.2705
2146.00,2.2578
2145.00,2.2449
2144.00,2.2319
2143.00,2.2186
2142.00,2.2049
2141.00,2.1909
2140.00,2.1767
2139.00,2.1623
2138.00,2.1478
2137.00,2.1332
2136.00,2.1184
2135.00,2.1033
2134.00,2.0879
2133.00,2.0721
2132.00,2.0559
2131.00,2.0392
2130.00,2.0219
2129.00,2.0040
2128.00,1.9857
2127.00,1.9671
2126.00,1.9480
2125.00,1.9282
2124.00,1.9078
2123.00,1.8867
2122.00,1.8651
2121.00,1.8432
2120.00,1.8210
2119.00,1.7984
2118.00,1.7754
2117.00,1.7521
2116.00,1.7286
2115.00,1.7047
2114.00,1.6806
2113.00,1.6562
2112.00,1.6317
2111.00,1.6072
2110.00,1.5827
2109.00,1.5586
2108.00,1.5348
2107.00,1.5116
2106.00,1.4891
2105.00,1.4674
2104.00,1.4466
2103.00,1.4267
2102.00,1.4079
2101.00,1.3904
2100.00,1.3743
2099.00,1.3595
2098.00,1.3461
2097.00,1.3342
2096.00,1.3236
2095.00,1.3145
2094.00,1.3068
2093.00,1.3006
2092.00,1.2960
2091.00,1.2930
2090.00,1.2916
2089.00,1.2918
2088.00,1.2938
2087.00,1.2976
2086.00,1.3032
2085.00,1.3107
2084.00,1.3202
2083.00,1.3317
2082.00,1.3453
2081.00,1.3609
2080.00,1.3783
2079.00,1.3974
2078.00,1.4180
2077.00,1.4400
2076.00,1.4634
2075.00,1.4880
2074.00,1.5136
2073.00,1.5400
2072.00,1.5670
2071.00,1.5942
2070.00,1.6215
2069.00,1.6485
2068.00,1.6751
2067.00,1.7014
2066.00,1.7270
2065.00,1.7519
2064.00,1.7758
2063.00,1.7987
2062.00,1.8208
2061.00,1.8420
2060.00,1.8625
2059.00,1.8824
2058.00,1.9022
2057.00,1.9222
2056.00,1.9424
2055.00,1.9626
2054.00,1.9826
2053.00,2.0025
2052.00,2.0224
2051.00,2.0425
2050.00,2.0627
2049.00,2.0828
2048.00,2.1027
2047.00,2.1224
2046.00,2.1415
2045.00,2.1601
2044.00,2.1780
2043.00,2.1954
2042.00,2.2124
2041.00,2.2292
2040.00,2.2459
2039.00,2.2622
2038.00,2.2779
2037.00,2.2932
2036.00,2.3085
2035.00,2.3241
2034.00,2.3399
2033.00,2.3552
2032.00,2.3696
2031.00,2.3832
2030.00,2.3960
2029.00,2.4084
2028.00,2.4209
2027.00,2.4335
2026.00,2.4464
2025.00,2.4588
2024.00,2.4705
2023.00,2.4812
2022.00,2.4913
2021.00,2.5012
2020.00,2.5113
2019.00,2.5221
2018.00,2.5336
2017.00,2.5453
2016.00,2.5567
2015.00,2.5676
2014.00,2.5781
2013.00,2.5881
2012.00,2.5976
2011.00,2.6070
2010.00,2.6166
2009.00,2.6261
2008.00,2.6348
2007.00,2.6422
2006.00,2.6490
2005.00,2.6563
2004.00,2.6644
2003.00,2.6727
2002.00,2.6808
2001.00,2.6890
2000.00,2.6978
1999.00,2.7071
1998.00,2.7159
1997.00,2.7230
1996.00,2.7288
1995.00,2.7340
1994.00,2.7399
1993.00,2.7468
1992.00,2.7546
1991.00,2.7629
1990.00,2.7710
1989.00,2.7786
1988.00,2.7854
1987.00,2.7913
1986.00,2.7962
1985.00,2.8000
1984.00,2.8037
1983.00,2.8084
1982.00,2.8145
1981.00,2.8212
1980.00,2.8274
1979.00,2.8325
1978.00,2.8365
1977.00,2.8397
1976.00,2.8429
1975.00,2.8472
1974.00,2.8526
1973.00,2.8576
1972.00,2.8619
1971.00,2.8669
1970.00,2.8738
1969.00,2.8813
1968.00,2.8868
1967.00,2.8889
1966.00,2.8894
1965.00,2.8908
1964.00,2.8942
1963.00,2.8983
1962.00,2.9017
1961.00,2.9044
1960.00,2.9075
1959.00,2.9117
1958.00,2.9154
1957.00,2.9171
1956.00,2.9178
1955.00,2.9203
1954.00,2.9255
1953.00,2.9308
1952.00,2.9339
1951.00,2.9353
1950.00,2.9373
1949.00,2.9415
1948.00,2.9467
1947.00,2.9511
1946.00,2.9534
1945.00,2.9535
1944.00,2.9526
1943.00,2.9519
1942.00,2.9521
1941.00,2.9530
1940.00,2.9544
1939.00,2.9565
1938.00,2.9596
1937.00,2.9632
1936.00,2.9667
1935.00,2.9698
1934.00,2.9719
1933.00,2.9731
1932.00,2.9743
1931.00,2.9763
1930.00,2.9782
1929.00,2.9786
1928.00,2.9781
1927.00,2.9789
1926.00,2.9818
1925.00,2.9843
1924.00,2.9842
1923.00,2.9820
1922.00,2.9807
1921.00,2.9824
1920.00,2.9863
1919.00,2.9897
1918.00,2.9904
1917.00,2.9886
1916.00,2.9861
1915.00,2.9847
1914.00,2.9843
1913.00,2.9833
1912.00,2.9816
1911.00,2.9799
1910.00,2.9784
1909.00,2.9771
1908.00,2.9766
1907.00,2.9778
1906.00,2.9794
1905.00,2.9790
1904.00,2.9765
1903.00,2.9747
1902.00,2.9754
1901.00,2.9777
1900.00,2.9792
1899.00,2.9795
1898.00,2.9791
1897.00,2.9773
1896.00,2.9734
1895.00,2.9681
1894.00,2.9630
1893.00,2.9593
1892.00,2.9575
1891.00,2.9576
1890.00,2.9581
1889.00,2.9568
1888.00,2.9533
1887.00,2.9497
1886.00,2.9476
1885.00,2.9467
1884.00,2.9452
1883.00,2.9426
1882.00,2.9386
1881.00,2.9331
1880.00,2.9261
1879.00,2.9185
1878.00,2.9115
1877.00,2.9055
1876.00,2.9010
1875.00,2.8981
1874.00,2.8960
1873.00,2.8933
1872.00,2.8903
1871.00,2.8887
1870.00,2.8885
1869.00,2.8877
1868.00,2.8844
1867.00,2.8793
1866.00,2.8735
1865.00,2.8671
1864.00,2.8601
1863.00,2.8538
1862.00,2.8492
1861.00,2.8447
1860.00,2.8384
1859.00,2.8301
1858.00,2.8211
1857.00,2.8121
1856.00,2.8035
1855.00,2.7957
1854.00,2.7886
1853.00,2.7813
1852.00,2.7728
1851.00,2.7635
1850.00,2.7545
1849.00,2.7456
1848.00,2.7368
1847.00,2.7288
1846.00,2.7218
1845.00,2.7139
1844.00,2.7029
1843.00,2.6891
1842.00,2.6752
1841.00,2.6632
1840.00,2.6530
1839.00,2.6431
1838.00,2.6323
1837.00,2.6201
1836.00,2.6070
1835.00,2.5937
1834.00,2.5806
1833.00,2.5680
1832.00,2.5554
1831.00,2.5422
1830.00,2.5279
1829.00,2.5118
1828.00,2.4952
1827.00,2.4791
1826.00,2.4631
1825.00,2.4450
1824.00,2.4246
1823.00,2.4038
1822.00,2.3840
1821.00,2.3647
1820.00,2.3449
1819.00,2.3248
1818.00,2.3046
1817.00,2.2839
1816.00,2.2627
1815.00,2.2415
1814.00,2.2214
1813.00,2.2025
1812.00,2.1850
1811.00,2.1687
1810.00,2.1534
1809.00,2.1389
1808.00,2.1252
1807.00,2.1115
1806.00,2.0965
1805.00,2.0790
1804.00,2.0583
1803.00,2.0342
1802.00,2.0059
1801.00,1.9735
1800.00,1.9373
1799.00,1.8988
1798.00,1.8589
1797.00,1.8188
1796.00,1.7796
1795.00,1.7428
1794.00,1.7086
1793.00,1.6766
1792.00,1.6472
1791.00,1.6220
1790.00,1.6040
1789.00,1.5947
1788.00,1.5938
1787.00,1.6003
1786.00,1.6135
1785.00,1.6338
1784.00,1.6611
1783.00,1.6947
1782.00,1.7341
1781.00,1.7788
1780.00,1.8274
1779.00,1.8782
1778.00,1.9303
1777.00,1.9837
1776.00,2.0378
1775.00,2.0918
1774.00,2.1458
1773.00,2.2004
1772.00,2.2543
1771.00,2.3046
1770.00,2.3494
1769.00,2.3891
1768.00,2.4232
1767.00,2.4507
1766.00,2.4728
1765.00,2.4940
1764.00,2.5170
1763.00,2.5418
1762.00,2.5674
1761.00,2.5943
1760.00,2.6229
1759.00,2.6532
1758.00,2.6852
1757.00,2.7190
1756.00,2.7534
1755.00,2.7861
1754.00,2.8165
1753.00,2.8458
1752.00,2.8740
1751.00,2.9002
1750.00,2.9250
1749.00,2.9498
1748.00,2.9749
1747.00,2.9994
1746.00,3.0251
1745.00,3.0547
1744.00,3.0853
1743.00,3.1110
1742.00,3.1302
1741.00,3.1476
1740.00,3.1679
1739.00,3.1911
1738.00,3.2163
1737.00,3.2441
1736.00,3.2714
1735.00,3.2910
1734.00,3.3024
1733.00,3.3139
1732.00,3.3328
1731.00,3.3605
1730.00,3.3969
1729.00,3.4427
1728.00,3.4964
1727.00,3.5558
1726.00,3.6305
1725.00,3.7427
1724.00,3.9168
1723.00,4.1612
1722.00,4.4823
1721.00,4.9266
1720.00,4.8375
1719.00,4.5383
1718.00,4.4584
1717.00,4.4606
1716.00,4.4880
1715.00,4.4831
1714.00,4.4728
1713.00,4.5357
1712.00,4.6826
1711.00,4.8274
1710.00,4.8139
1709.00,4.7207
1708.00,4.6305
1707.00,4.5379
1706.00,4.4500
1705.00,4.3735
1704.00,4.2892
1703.00,4.1748
1702.00,4.0351
1701.00,3.8839
1700.00,3.7355
1699.00,3.6095
1698.00,3.5163
1697.00,3.4479
1696.00,3.3852
1695.00,3.3182
1694.00,3.2558
1693.00,3.2096
1692.00,3.1763
1691.00,3.1429
1690.00,3.1003
1689.00,3.0499
1688.00,2.9982
1687.00,2.9493
1686.00,2.9003
1685.00,2.8450
1684.00,2.7831
1683.00,2.7225
1682.00,2.6730
1681.00,2.6353
1680.00,2.6012
1679.00,2.5669
1678.00,2.5346
1677.00,2.5051
1676.00,2.4743
1675.00,2.4377
1674.00,2.3965
1673.00,2.3557
1672.00,2.3173
1671.00,2.2781
1670.00,2.2335
1669.00,2.1828
1668.00,2.1293
1667.00,2.0784
1666.00,2.0337
1665.00,1.9962
1664.00,1.9660
1663.00,1.9437
1662.00,1.9315
1661.00,1.9313
1660.00,1.9434
1659.00,1.9662
1658.00,1.9974
1657.00,2.0342
1656.00,2.0748
1655.00,2.1190
1654.00,2.1665
1653.00,2.2157
1652.00,2.2600
1651.00,2.2965
1650.00,2.3316
1649.00,2.3696
1648.00,2.4075
1647.00,2.4415
1646.00,2.4704
1645.00,2.4955
1644.00,2.5188
1643.00,2.5416
1642.00,2.5653
1641.00,2.5901
1640.00,2.6144
1639.00,2.6379
1638.00,2.6615
1637.00,2.6854
1636.00,2.7074
1635.00,2.7248
1634.00,2.7379
1633.00,2.7496
1632.00,2.7616
1631.00,2.7734
1630.00,2.7845
1629.00,2.7955
1628.00,2.8066
1627.00,2.8176
1626.00,2.8298
1625.00,2.8444
1624.00,2.8601
1623.00,2.8746
1622.00,2.8882
1621.00,2.9033
1620.00,2.9215
1619.00,2.9412
1618.00,2.9588
1617.00,2.9718
1616.00,2.9805
1615.00,2.9878
1614.00,2.9969
1613.00,3.0074
1612.00,3.0153
1611.00,3.0194
1610.00,3.0233
1609.00,3.0312
1608.00,3.0429
1607.00,3.0549
1606.00,3.0649
1605.00,3.0728
1604.00,3.0787
1603.00,3.0838
1602.00,3.0903
1601.00,3.0984
1600.00,3.1058
1599.00,3.1110
1598.00,3.1158
1597.00,3.1227
1596.00,3.1316
1595.00,3.1402
1594.00,3.1485
1593.00,3.1573
1592.00,3.1649
1591.00,3.1693
1590.00,3.1721
1589.00,3.1777
1588.00,3.1871
1587.00,3.1962
1586.00,3.2026
1585.00,3.2082
1584.00,3.2140
1583.00,3.2179
1582.00,3.2183
1581.00,3.2164
1580.00,3.2156
1579.00,3.2182
1578.00,3.2238
1577.00,3.2297
1576.00,3.2327
1575.00,3.2326
1574.00,3.2345
1573.00,3.2422
1572.00,3.2519
1571.00,3.2571
1570.00,3.2568
1569.00,3.2571
1568.00,3.2617
1567.00,3.2677
1566.00,3.2697
1565.00,3.2663
1564.00,3.2614
1563.00,3.2604
1562.00,3.2657
1561.00,3.2746
1560.00,3.2817
1559.00,3.2836
1558.00,3.2802
1557.00,3.2768
1556.00,3.2778
1555.00,3.2786
1554.00,3.2759
1553.00,3.2723
1552.00,3.2727
1551.00,3.2800
1550.00,3.2912
1549.00,3.3005
1548.00,3.3034
1547.00,3.3002
1546.00,3.2958
1545.00,3.2949
1544.00,3.2974
1543.00,3.2993
1542.00,3.2988
1541.00,3.2985
1540.00,3.3013
1539.00,3.3042
1538.00,3.3036
1537.00,3.3012
1536.00,3.2997
1535.00,3.2990
1534.00,3.2987
1533.00,3.2989
1532.00,3.2989
1531.00,3.2974
1530.00,3.2944
1529.00,3.2929
1528.00,3.2954
1527.00,3.2995
1526.00,3.2994
1525.00,3.2925
1524.00,3.2828
1523.00,3.2762
1522.00,3.2745
1521.00,3.2762
1520.00,3.2792
1519.00,3.2836
1518.00,3.2891
1517.00,3.2921
1516.00,3.2900
1515.00,3.2853
1514.00,3.2827
1513.00,3.2825
1512.00,3.2811
1511.00,3.2771
1510.00,3.2729
1509.00,3.2693
1508.00,3.2620
1507.00,3.2462
1506.00,3.2253
1505.00,3.2108
1504.00,3.2087
1503.00,3.2152
1502.00,3.2234
1501.00,3.2273
1500.00,3.2240
1499.00,3.2152
1498.00,3.2039
1497.00,3.1923
1496.00,3.1812
1495.00,3.1714
1494.00,3.1639
1493.00,3.1589
1492.00,3.1551
1491.00,3.1523
1490.00,3.1506
1489.00,3.1481
1488.00,3.1418
1487.00,3.1319
1486.00,3.1221
1485.00,3.1164
1484.00,3.1135
1483.00,3.1089
1482.00,3.1004
1481.00,3.0895
1480.00,3.0796
1479.00,3.0724
1478.00,3.0671
1477.00,3.0611
1476.00,3.0519
1475.00,3.0385
1474.00,3.0218
1473.00,3.0040
1472.00,2.9869
1471.00,2.9723
1470.00,2.9606
1469.00,2.9504
1468.00,2.9409
1467.00,2.9333
1466.00,2.9303
1465.00,2.9328
1464.00,2.9375
1463.00,2.9395
1462.00,2.9365
1461.00,2.9295
1460.00,2.9206
1459.00,2.9116
1458.00,2.9055
1457.00,2.9078
1456.00,2.9259
1455.00,2.9649
1454.00,3.0263
1453.00,3.1079
1452.00,3.2036
1451.00,3.3021
1450.00,3.3873
1449.00,3.4418
1448.00,3.4524
1447.00,3.4221
1446.00,3.3711
1445.00,3.3162
1444.00,3.2609
1443.00,3.2049
1442.00,3.1509
1441.00,3.1023
1440.00,3.0602
1439.00,3.0246
1438.00,2.9966
1437.00,2.9783
1436.00,2.9717
1435.00,2.9764
1434.00,2.9912
1433.00,3.0140
1432.00,3.0413
1431.00,3.0693
1430.00,3.0949
1429.00,3.1157
1428.00,3.1298
1427.00,3.1373
1426.00,3.1428
1425.00,3.1511
1424.00,3.1618
1423.00,3.1707
1422.00,3.1751
1421.00,3.1747
1420.00,3.1678
1419.00,3.1530
1418.00,3.1324
1417.00,3.1096
1416.00,3.0850
1415.00,3.0569
1414.00,3.0259
1413.00,2.9940
1412.00,2.9607
1411.00,2.9246
1410.00,2.8859
1409.00,2.8472
1408.00,2.8101
1407.00,2.7746
1406.00,2.7400
1405.00,2.7052
1404.00,2.6696
1403.00,2.6341
1402.00,2.6002
1401.00,2.5672
1400.00,2.5323
1399.00,2.4947
1398.00,2.4567
1397.00,2.4202
1396.00,2.3839
1395.00,2.3448
1394.00,2.3025
1393.00,2.2592
1392.00,2.2175
1391.00,2.1788
1390.00,2.1432
1389.00,2.1103
1388.00,2.0792
1387.00,2.0500
1386.00,2.0242
1385.00,2.0037
1384.00,1.9890
1383.00,1.9794
1382.00,1.9745
1381.00,1.9741
1380.00,1.9785
1379.00,1.9877
1378.00,2.0015
1377.00,2.0201
1376.00,2.0433
1375.00,2.0710
1374.00,2.1028
1373.00,2.1381
1372.00,2.1762
1371.00,2.2167
1370.00,2.2591
1369.00,2.3029
1368.00,2.3477
1367.00,2.3934
1366.00,2.4393
1365.00,2.4845
1364.00,2.5281
1363.00,2.5699
1362.00,2.6101
1361.00,2.6502
1360.00,2.6914
1359.00,2.7333
1358.00,2.7748
1357.00,2.8162
1356.00,2.8595
1355.00,2.9066
1354.00,2.9573
1353.00,3.0111
1352.00,3.0676
1351.00,3.1254
1350.00,3.1783
1349.00,3.2175
1348.00,3.2358
1347.00,3.2319
1346.00,3.2113
1345.00,3.1848
1344.00,3.1646
1343.00,3.1595
1342.00,3.1716
1341.00,3.1956
1340.00,3.2175
1339.00,3.2181
1338.00,3.1855
1337.00,3.1272
1336.00,3.0630
1335.00,3.0089
1334.00,2.9723
1333.00,2.9550
1332.00,2.9554
1331.00,2.9703
1330.00,2.9954
1329.00,3.0257
1328.00,3.0580
1327.00,3.0920
1326.00,3.1281
1325.00,3.1643
1324.00,3.1978
1323.00,3.2287
1322.00,3.2611
1321.00,3.2991
1320.00,3.3418
1319.00,3.3852
1318.00,3.4282
1317.00,3.4722
1316.00,3.5152
1315.00,3.5490
1314.00,3.5667
1313.00,3.5673
1312.00,3.5489
1311.00,3.5071
1310.00,3.4424
1309.00,3.3633
1308.00,3.2803
1307.00,3.2025
1306.00,3.1382
1305.00,3.0927
1304.00,3.0660
1303.00,3.0532
1302.00,3.0483
1301.00,3.0489
1300.00,3.0558
1299.00,3.0698
1298.00,3.0894
1297.00,3.1125
1296.00,3.1380
1295.00,3.1651
1294.00,3.1915
1293.00,3.2146
1292.00,3.2327
1291.00,3.2472
1290.00,3.2623
1289.00,3.2813
1288.00,3.3037
1287.00,3.3263
1286.00,3.3473
1285.00,3.3689
1284.00,3.3924
1283.00,3.4153
1282.00,3.4340
1281.00,3.4465
1280.00,3.4519
1279.00,3.4522
1278.00,3.4530
1277.00,3.4606
1276.00,3.4753
1275.00,3.4898
1274.00,3.4958
1273.00,3.4947
1272.00,3.4942
1271.00,3.4993
1270.00,3.5099
1269.00,3.5235
1268.00,3.5373
1267.00,3.5481
1266.00,3.5581
1265.00,3.5727
1264.00,3.5920
1263.00,3.6064
1262.00,3.6068
1261.00,3.5962
1260.00,3.5867
1259.00,3.5860
1258.00,3.5928
1257.00,3.6031
1256.00,3.6136
1255.00,3.6215
1254.00,3.6252
1253.00,3.6271
1252.00,3.6317
1251.00,3.6400
1250.00,3.6460
1249.00,3.6446
1248.00,3.6406
1247.00,3.6425
1246.00,3.6555
1245.00,3.6762
1244.00,3.6930
1243.00,3.7008
1242.00,3.7085
1241.00,3.7210
1240.00,3.7315
1239.00,3.7323
1238.00,3.7273
1237.00,3.7307
1236.00,3.7497
1235.00,3.7742
1234.00,3.7874
1233.00,3.7869
1232.00,3.7859
1231.00,3.7887
1230.00,3.7837
1229.00,3.7674
1228.00,3.7551
1227.00,3.7599
1226.00,3.7852
1225.00,3.8282
1224.00,3.8829
1223.00,3.9354
1222.00,3.9602
1221.00,3.9399
1220.00,3.8850
1219.00,3.8251
1218.00,3.7827
1217.00,3.7532
1216.00,3.7185
1215.00,3.6734
1214.00,3.6311
1213.00,3.6084
1212.00,3.6144
1211.00,3.6463
1210.00,3.6889
1209.00,3.7229
1208.00,3.7416
1207.00,3.7535
1206.00,3.7626
1205.00,3.7627
1204.00,3.7533
1203.00,3.7443
1202.00,3.7399
1201.00,3.7309
1200.00,3.7081
1199.00,3.6773
1198.00,3.6556
1197.00,3.6545
1196.00,3.6705
1195.00,3.6877
1194.00,3.6915
1193.00,3.6859
1192.00,3.6914
1191.00,3.7231
1190.00,3.7729
1189.00,3.8070
1188.00,3.8002
1187.00,3.7623
1186.00,3.7283
1185.00,3.7224
1184.00,3.7351
1183.00,3.7387
1182.00,3.7204
1181.00,3.6964
1180.00,3.6910
1179.00,3.7155
1178.00,3.7618
1177.00,3.8023
1176.00,3.8043
1175.00,3.7657
1174.00,3.7157
1173.00,3.6877
1172.00,3.7004
1171.00,3.7490
1170.00,3.7961
1169.00,3.7932
1168.00,3.7466
1167.00,3.7088
1166.00,3.7101
1165.00,3.7415
1164.00,3.7679
1163.00,3.7591
1162.00,3.7292
1161.00,3.7152
1160.00,3.7228
1159.00,3.7293
1158.00,3.7202
1157.00,3.7074
1156.00,3.7085
1155.00,3.7255
1154.00,3.7448
1153.00,3.7465
1152.00,3.7210
1151.00,3.6799
1150.00,3.6472
1149.00,3.6406
1148.00,3.6607
1147.00,3.6897
1146.00,3.7020
1145.00,3.6831
1144.00,3.6411
1143.00,3.5975
1142.00,3.5676
1141.00,3.5573
1140.00,3.5682
1139.00,3.5965
1138.00,3.6273
1137.00,3.6427
1136.00,3.6426
1135.00,3.6412
1134.00,3.6478
1133.00,3.6613
1132.00,3.6714
1131.00,3.6678
1130.00,3.6485
1129.00,3.6171
1128.00,3.5797
1127.00,3.5468
1126.00,3.5289
1125.00,3.5330
1124.00,3.5605
1123.00,3.6103
1122.00,3.6843
1121.00,3.7896
1120.00,3.9257
1119.00,4.0572
1118.00,4.1013
1117.00,4.0237
1116.00,3.9141
1115.00,3.8516
1114.00,3.8627
1113.00,3.9365
1112.00,3.9982
1111.00,3.9502
1110.00,3.8601
1109.00,3.8249
1108.00,3.8601
1107.00,3.9214
1106.00,3.9292
1105.00,3.8665
1104.00,3.8018
1103.00,3.7690
1102.00,3.7451
1101.00,3.7015
1100.00,3.6476
1099.00,3.6131
1098.00,3.6147
1097.00,3.6494
1096.00,3.7004
1095.00,3.7474
1094.00,3.7776
1093.00,3.7887
1092.00,3.7773
1091.00,3.7375
1090.00,3.6783
1089.00,3.6272
1088.00,3.6100
1087.00,3.6286
1086.00,3.6560
1085.00,3.6528
1084.00,3.6108
1083.00,3.5625
1082.00,3.5399
1081.00,3.5525
1080.00,3.5827
1079.00,3.5984
1078.00,3.5891
1077.00,3.5649
1076.00,3.5357
1075.00,3.5083
1074.00,3.4886
1073.00,3.4794
1072.00,3.4777
1071.00,3.4748
1070.00,3.4638
1069.00,3.4440
1068.00,3.4219
1067.00,3.4060
1066.00,3.3989
1065.00,3.3941
1064.00,3.3823
1063.00,3.3611
1062.00,3.3373
1061.00,3.3218
1060.00,3.3238
1059.00,3.3463
1058.00,3.3844
1057.00,3.4254
1056.00,3.4551
1055.00,3.4654
1054.00,3.4579
1053.00,3.4424
1052.00,3.4291
1051.00,3.4207
1050.00,3.4119
1049.00,3.3959
1048.00,3.3723
1047.00,3.3462
1046.00,3.3210
1045.00,3.2946
1044.00,3.2620
1043.00,3.2211
1042.00,3.1760
1041.00,3.1336
1040.00,3.0988
1039.00,3.0725
1038.00,3.0507
1037.00,3.0280
1036.00,3.0017
1035.00,2.9740
1034.00,2.9492
1033.00,2.9305
1032.00,2.9184
1031.00,2.9115
1030.00,2.9093
1029.00,2.9137
1028.00,2.9291
1027.00,2.9584
1026.00,2.9985
1025.00,3.0412
1024.00,3.0793
1023.00,3.1145
1022.00,3.1564
1021.00,3.2148
1020.00,3.2921
1019.00,3.3769
1018.00,3.4374
1017.00,3.4361
1016.00,3.3722
1015.00,3.2840
1014.00,3.2051
1013.00,3.1483
1012.00,3.1141
1011.00,3.0996
1010.00,3.1020
1009.00,3.1168
1008.00,3.1373
1007.00,3.1568
1006.00,3.1734
1005.00,3.1919
1004.00,3.2186
1003.00,3.2584
1002.00,3.3131
1001.00,3.3799
1000.00,3.4492
999.00,3.5041
998.00,3.5365
997.00,3.5627
996.00,3.6000
995.00,3.6443
994.00,3.6738
993.00,3.6764
992.00,3.6706
991.00,3.6755
990.00,3.6892
989.00,3.7028
988.00,3.7188
987.00,3.7476
986.00,3.7956
985.00,3.8632
984.00,3.9371
983.00,3.9805
982.00,3.9681
981.00,3.9283
980.00,3.8989
979.00,3.8866
978.00,3.8769
977.00,3.8701
976.00,3.8920
975.00,3.9626
974.00,4.0663
973.00,4.1424
972.00,4.1724
971.00,4.2135
970.00,4.2603
969.00,4.2997
968.00,4.3650
967.00,4.3680
966.00,4.2976
965.00,4.2248
964.00,4.1419
963.00,4.1257
962.00,4.2710
961.00,4.7335
960.00,5.0955
959.00,4.8252
958.00,5.0652
957.00,4.7067
956.00,4.5037
955.00,4.4665
954.00,4.5918
953.00,4.6177
952.00,4.2860
951.00,4.1407
950.00,4.1333
949.00,4.1746
948.00,4.2124
947.00,4.3118
946.00,4.5509
945.00,4.9786
944.00,5.0899
943.00,4.8231
942.00,4.7632
941.00,4.8012
940.00,4.6775
939.00,4.4557
938.00,4.3125
937.00,4.2409
936.00,4.2035
935.00,4.2011
934.00,4.2878
933.00,4.5646
932.00,4.9246
931.00,4.7974
930.00,4.9263
929.00,4.9634
928.00,4.6687
927.00,4.3754
926.00,4.3255
925.00,4.5942
924.00,4.8723
923.00,4.4177
922.00,4.2385
921.00,4.1514
920.00,4.1376
919.00,4.2197
918.00,4.4304
917.00,4.9262
916.00,5.0726
915.00,4.3722
914.00,4.0877
913.00,4.0244
912.00,4.1344
911.00,4.4164
910.00,4.9775
909.00,5.0771
908.00,4.5860
907.00,4.4585
906.00,4.4566
905.00,4.5489
904.00,4.7895
903.00,4.6911
902.00,4.4533
901.00,4.3860
900.00,4.4341
899.00,4.5359
898.00,4.5844
897.00,4.5019
896.00,4.3958
895.00,4.3778
894.00,4.5380
893.00,4.9899
892.00,4.7424
891.00,4.4860
890.00,4.5103
889.00,4.7617
888.00,4.6610
887.00,4.5566
886.00,4.6199
885.00,4.4298
884.00,4.2526
883.00,4.2861
882.00,4.6905
881.00,4.9674
880.00,4.6291
879.00,4.9175
878.00,4.5317
877.00,4.2222
876.00,4.1259
875.00,4.1468
874.00,4.3234
873.00,4.7221
872.00,4.4294
871.00,4.1929
870.00,4.1368
869.00,4.1840
868.00,4.2944
867.00,4.3665
866.00,4.3506
865.00,4.3277
864.00,4.4185
863.00,4.5936
862.00,4.4364
861.00,4.3529
860.00,4.4715
859.00,4.4440
858.00,4.2208
857.00,4.0788
856.00,3.9910
855.00,3.9267
854.00,3.8839
853.00,3.8769
852.00,3.9229
851.00,4.0311
850.00,4.2075
849.00,4.4179
848.00,4.5692
847.00,4.6170
846.00,4.6799
845.00,4.9349
844.00,4.8621
843.00,4.4253
842.00,4.1361
841.00,3.9963
840.00,3.9765
839.00,4.0338
838.00,4.1395
837.00,4.3198
836.00,4.6003
835.00,4.9709
834.00,4.9642
833.00,4.5015
832.00,4.2637
831.00,4.2208
830.00,4.3270
829.00,4.3358
828.00,4.2078
827.00,4.1108
826.00,4.0328
825.00,3.9826
824.00,3.9673
823.00,3.9970
822.00,4.0818
821.00,4.2032
820.00,4.3354
819.00,4.4182
818.00,4.4553
817.00,4.5825
816.00,4.8437
815.00,4.8594
814.00,4.4239
813.00,4.1572
812.00,4.0063
811.00,3.9161
810.00,3.8759
809.00,3.8807
808.00,3.9181
807.00,3.9477
806.00,3.9438
805.00,3.9599
804.00,4.0562
803.00,4.2474
802.00,4.3842
801.00,4.3243
800.00,4.2326
799.00,4.1234
798.00,4.0658
797.00,4.1387
796.00,4.3744
795.00,4.7226
794.00,4.7070
793.00,4.3521
792.00,4.1166
791.00,4.0340
790.00,4.0837
789.00,4.3177
788.00,4.6946
787.00,4.4946
786.00,4.4831
785.00,4.8449
784.00,4.9590
783.00,4.5926
782.00,4.3489
781.00,4.1921
780.00,4.1176
779.00,4.1372
778.00,4.2757
777.00,4.5269
776.00,4.5300
775.00,4.3130
774.00,4.1561
773.00,4.0733
772.00,4.0815
771.00,4.1981
770.00,4.3883
769.00,4.4577
768.00,4.3157
767.00,4.1676
766.00,4.0787
765.00,4.0133
764.00,3.9504
763.00,3.9143
762.00,3.9359
761.00,4.0112
760.00,4.0998
759.00,4.1758
758.00,4.2196
757.00,4.1976
756.00,4.1481
755.00,4.1304
754.00,4.0972
753.00,4.0309
752.00,3.9843
751.00,4.0226
750.00,4.1140
749.00,4.3588
748.00,4.7598
747.00,4.1607
746.00,3.9118
745.00,3.8428
744.00,3.8800
743.00,4.0305
742.00,4.2239
741.00,4.3830
740.00,4.4173
739.00,4.3428
738.00,4.2480
737.00,4.2759
736.00,4.4322
735.00,4.7610
734.00,5.2372
733.00,4.7959
732.00,4.7089
731.00,4.4950
730.00,4.1483
729.00,3.9680
728.00,3.9288
727.00,4.0192
726.00,4.2471
725.00,4.3902
724.00,4.2074
723.00,4.0911
722.00,4.1187
721.00,4.2076
720.00,4.1599
719.00,4.0592
718.00,4.0244
717.00,4.0503
716.00,4.1321
715.00,4.2883
714.00,4.4422
713.00,4.2780
712.00,4.0753
711.00,3.9702
710.00,3.9317
709.00,3.9564
708.00,4.0357
707.00,4.1275
706.00,4.1467
705.00,4.0817
704.00,4.0222
703.00,4.0253
702.00,4.0983
701.00,4.2361
700.00,4.4219
699.00,4.5801
698.00,4.5952
697.00,4.6828
696.00,4.7826
695.00,4.5113
694.00,4.3835
693.00,4.3627
692.00,4.2845
691.00,4.2262
690.00,4.2957
689.00,4.6136
688.00,4.6023
687.00,4.1662
686.00,3.9765
685.00,3.9484
684.00,4.0544
683.00,4.2892
682.00,4.4993
681.00,4.5840
680.00,4.5750
679.00,4.4600
678.00,4.4336
677.00,4.4174
676.00,4.2801
675.00,4.1657
674.00,4.0957
673.00,4.0403
672.00,4.0328
671.00,4.1201
670.00,4.2303
669.00,4.1973
668.00,4.1664
667.00,4.1941
666.00,4.1684
665.00,4.1088
664.00,4.0907
663.00,4.1472
662.00,4.2919
661.00,4.3275
660.00,4.0804
659.00,3.8931
658.00,3.8297
657.00,3.9021
656.00,4.1740
655.00,4.2483
654.00,3.9607
653.00,3.8204
652.00,3.7720
651.00,3.7893
650.00,3.8955
649.00,4.1116
648.00,4.2000
647.00,3.9700
646.00,3.8392
645.00,3.8448
644.00,3.9611
643.00,4.1541
642.00,4.2204
641.00,4.1501
640.00,4.1111
639.00,4.0749
638.00,4.0611
637.00,4.1193
636.00,4.1569
635.00,4.0373
634.00,3.8532
633.00,3.7227
632.00,3.6457
631.00,3.5946
630.00,3.5760
629.00,3.6066
628.00,3.6965
627.00,3.8119
626.00,3.9145
625.00,4.0134
624.00,4.2473
623.00,4.8372
622.00,4.4877
621.00,4.1139
620.00,4.0016
619.00,4.0158
618.00,4.1611
617.00,4.3728
616.00,4.2573
615.00,3.9428
614.00,3.7253
613.00,3.6111
612.00,3.5948
611.00,3.6659
610.00,3.7850
609.00,3.8842
608.00,3.9655
607.00,4.0654
606.00,4.1947
605.00,4.2420
604.00,4.0978
603.00,4.0053
602.00,4.0559
601.00,4.1079
600.00,4.0347
599.00,4.0118
598.00,4.1159
597.00,4.2739
596.00,4.2665
595.00,4.0854
594.00,3.9534
593.00,3.9154
592.00,3.9272
591.00,3.9131
590.00,3.9090
589.00,3.9760
588.00,4.0058
587.00,3.9237
586.00,3.8266
585.00,3.7646
584.00,3.7626
583.00,3.8141
582.00,3.8720
581.00,3.8978
580.00,3.8896
579.00,3.8501
578.00,3.7958
577.00,3.7559
576.00,3.7509
575.00,3.7993
574.00,3.8838
573.00,3.9342
572.00,3.9263
571.00,3.8955
570.00,3.8768
569.00,3.9033
568.00,3.9390
567.00,3.9297
566.00,3.9169
565.00,3.9223
564.00,3.9096
563.00,3.8657
562.00,3.8524
561.00,3.9268
560.00,4.1052
559.00,4.2722
558.00,4.3346
557.00,4.6824
556.00,4.6150
555.00,4.1065
554.00,3.9882
553.00,4.0862
552.00,4.3515
551.00,4.6295
550.00,4.2631
549.00,3.9168
548.00,3.7346
547.00,3.7117
546.00,3.8119
545.00,4.1186
544.00,4.6666
543.00,4.1666
542.00,3.9236
541.00,3.8295
540.00,3.8256
539.00,3.9152
538.00,3.7739
537.00,3.5491
536.00,3.4297
535.00,3.4070
534.00,3.4480
533.00,3.5281
532.00,3.6290
531.00,3.7637
530.00,3.8961
529.00,3.8134
528.00,3.6508
527.00,3.5731
526.00,3.5450
525.00,3.5206
524.00,3.4991
523.00,3.5169
522.00,3.5955
521.00,3.7265
520.00,3.8342
519.00,3.7817
518.00,3.6784
517.00,3.6445
516.00,3.6401
515.00,3.5891
514.00,3.5008
513.00,3.4493
512.00,3.4626
511.00,3.5219
510.00,3.5984
509.00,3.7145
508.00,3.8292
507.00,3.7421
506.00,3.6016
505.00,3.5337
504.00,3.4744
503.00,3.3887
502.00,3.3200
501.00,3.3001
500.00,3.3210
499.00,3.3621
498.00,3.3962
497.00,3.4600
496.00,3.5948
495.00,3.8970
494.00,4.3681
493.00,4.2213
492.00,4.0935
491.00,3.8547
490.00,3.6754
489.00,3.6543
488.00,3.5710
487.00,3.3776
486.00,3.2435
485.00,3.2052
484.00,3.2785
483.00,3.4585
482.00,3.7753
481.00,4.1667
480.00,3.6977
479.00,3.4232
478.00,3.3706
477.00,3.4429
476.00,3.5766
475.00,3.6381
474.00,3.7862
473.00,3.6687
472.00,3.2722
471.00,3.0772
470.00,3.0382
469.00,3.1128
468.00,3.2865
467.00,3.4103
466.00,3.3823
465.00,3.3745
464.00,3.5301
463.00,3.7416
462.00,3.8422
461.00,3.8861
460.00,3.5133
459.00,3.3018
458.00,3.2648
457.00,3.2767
456.00,3.3213
455.00,3.3380
454.00,3.2716
453.00,3.2133
452.00,3.2358
451.00,3.3530
450.00,3.5214
449.00,3.5728
448.00,3.6094
447.00,3.6862
446.00,3.6422
445.00,3.4654
444.00,3.2753
443.00,3.1964
442.00,3.2202
441.00,3.2346
440.00,3.1424
439.00,3.0207
438.00,2.9563
437.00,2.9447
436.00,2.9433
435.00,2.9253
434.00,2.9067
433.00,2.8997
432.00,2.9107
431.00,2.9559
430.00,3.0949
429.00,3.4218
428.00,3.5371
427.00,3.3122
426.00,3.2213
425.00,3.1181
424.00,2.9889
423.00,2.8942
422.00,2.8601
421.00,2.9049
420.00,3.0159
419.00,3.1242
418.00,3.1549
417.00,3.3537
416.00,3.7141
415.00,3.4918
414.00,3.4468
413.00,3.4814
412.00,3.3956
411.00,3.3602
410.00,3.3666
409.00,3.1880
408.00,2.9718
407.00,2.8641
406.00,2.8279
405.00,2.8003
404.00,2.7238
403.00,2.6561
402.00,2.6739
401.00,2.7856
400.00,2.9650
