Created as New Dataset,Sample 176 By Administrator Date Friday, November 26 2021
cm-1,A
7000.00,0.8277
6999.00,0.8318
6998.00,0.8360
6997.00,0.8403
6996.00,0.8446
6995.00,0.8489
6994.00,0.8531
6993.00,0.8573
6992.00,0.8616
6991.00,0.8660
6990.00,0.8706
6989.00,0.8753
6988.00,0.8799
6987.00,0.8845
6986.00,0.8890
6985.00,0.8933
6984.00,0.8975
6983.00,0.9017
6982.00,0.9060
6981.00,0.9105
6980.00,0.9151
6979.00,0.9197
6978.00,0.9243
6977.00,0.9290
6976.00,0.9335
6975.00,0.9378
6974.00,0.9420
6973.00,0.9462
6972.00,0.9505
6971.00,0.9549
6970.00,0.9595
6969.00,0.9641
6968.00,0.9685
6967.00,0.9727
6966.00,0.9768
6965.00,0.9810
6964.00,0.9850
6963.00,0.9889
6962.00,0.9929
6961.00,0.9973
6960.00,1.0018
6959.00,1.0062
6958.00,1.0103
6957.00,1.0144
6956.00,1.0184
6955.00,1.0225
6954.00,1.0263
6953.00,1.0301
6952.00,1.0341
6951.00,1.0385
6950.00,1.0430
6949.00,1.0474
6948.00,1.0513
6947.00,1.0549
6946.00,1.0587
6945.00,1.0627
6944.00,1.0666
6943.00,1.0701
6942.00,1.0734
6941.00,1.0769
6940.00,1.0805
6939.00,1.0841
6938.00,1.0875
6937.00,1.0909
6936.00,1.0944
6935.00,1.0980
6934.00,1.1018
6933.00,1.1056
6932.00,1.1093
6931.00,1.1126
6930.00,1.1158
6929.00,1.1189
6928.00,1.1221
6927.00,1.1252
6926.00,1.1283
6925.00,1.1314
6924.00,1.1342
6923.00,1.1368
6922.00,1.1392
6921.00,1.1417
6920.00,1.1444
6919.00,1.1473
6918.00,1.1504
6917.00,1.1536
6916.00,1.1568
6915.00,1.1596
6914.00,1.1619
6913.00,1.1638
6912.00,1.1657
6911.00,1.1676
6910.00,1.1696
6909.00,1.1715
6908.00,1.1737
6907.00,1.1760
6906.00,1.1784
6905.00,1.1807
6904.00,1.1828
6903.00,1.1847
6902.00,1.1866
6901.00,1.1887
6900.00,1.1907
6899.00,1.1922
6898.00,1.1934
6897.00,1.1944
6896.00,1.1958
6895.00,1.1976
6894.00,1.1996
6893.00,1.2018
6892.00,1.2040
6891.00,1.2061
6890.00,1.2080
6889.00,1.2093
6888.00,1.2100
6887.00,1.2104
6886.00,1.2110
6885.00,1.2120
6884.00,1.2130
6883.00,1.2138
6882.00,1.2144
6881.00,1.2150
6880.00,1.2158
6879.00,1.2165
6878.00,1.2170
6877.00,1.2172
6876.00,1.2175
6875.00,1.2182
6874.00,1.2192
6873.00,1.2198
6872.00,1.2198
6871.00,1.2196
6870.00,1.2197
6869.00,1.2202
6868.00,1.2206
6867.00,1.2206
6866.00,1.2203
6865.00,1.2203
6864.00,1.2203
6863.00,1.2202
6862.00,1.2200
6861.00,1.2201
6860.00,1.2204
6859.00,1.2207
6858.00,1.2206
6857.00,1.2203
6856.00,1.2196
6855.00,1.2187
6854.00,1.2177
6853.00,1.2168
6852.00,1.2160
6851.00,1.2152
6850.00,1.2143
6849.00,1.2136
6848.00,1.2129
6847.00,1.2122
6846.00,1.2115
6845.00,1.2107
6844.00,1.2098
6843.00,1.2091
6842.00,1.2084
6841.00,1.2078
6840.00,1.2069
6839.00,1.2054
6838.00,1.2035
6837.00,1.2015
6836.00,1.1997
6835.00,1.1981
6834.00,1.1965
6833.00,1.1948
6832.00,1.1932
6831.00,1.1918
6830.00,1.1906
6829.00,1.1894
6828.00,1.1877
6827.00,1.1855
6826.00,1.1831
6825.00,1.1807
6824.00,1.1784
6823.00,1.1762
6822.00,1.1739
6821.00,1.1718
6820.00,1.1698
6819.00,1.1675
6818.00,1.1650
6817.00,1.1623
6816.00,1.1592
6815.00,1.1559
6814.00,1.1525
6813.00,1.1494
6812.00,1.1468
6811.00,1.1446
6810.00,1.1424
6809.00,1.1399
6808.00,1.1372
6807.00,1.1341
6806.00,1.1310
6805.00,1.1280
6804.00,1.1250
6803.00,1.1219
6802.00,1.1185
6801.00,1.1151
6800.00,1.1119
6799.00,1.1089
6798.00,1.1058
6797.00,1.1024
6796.00,1.0987
6795.00,1.0949
6794.00,1.0910
6793.00,1.0869
6792.00,1.0827
6791.00,1.0786
6790.00,1.0749
6789.00,1.0713
6788.00,1.0676
6787.00,1.0637
6786.00,1.0597
6785.00,1.0558
6784.00,1.0519
6783.00,1.0477
6782.00,1.0435
6781.00,1.0392
6780.00,1.0349
6779.00,1.0306
6778.00,1.0262
6777.00,1.0218
6776.00,1.0174
6775.00,1.0130
6774.00,1.0086
6773.00,1.0042
6772.00,0.9996
6771.00,0.9947
6770.00,0.9899
6769.00,0.9854
6768.00,0.9814
6767.00,0.9773
6766.00,0.9730
6765.00,0.9685
6764.00,0.9637
6763.00,0.9588
6762.00,0.9536
6761.00,0.9483
6760.00,0.9430
6759.00,0.9380
6758.00,0.9332
6757.00,0.9284
6756.00,0.9235
6755.00,0.9186
6754.00,0.9138
6753.00,0.9091
6752.00,0.9043
6751.00,0.8994
6750.00,0.8943
6749.00,0.8893
6748.00,0.8844
6747.00,0.8796
6746.00,0.8748
6745.00,0.8702
6744.00,0.8657
6743.00,0.8612
6742.00,0.8567
6741.00,0.8521
6740.00,0.8475
6739.00,0.8429
6738.00,0.8384
6737.00,0.8340
6736.00,0.8296
6735.00,0.8252
6734.00,0.8207
6733.00,0.8161
6732.00,0.8116
6731.00,0.8073
6730.00,0.8032
6729.00,0.7993
6728.00,0.7956
6727.00,0.7921
6726.00,0.7887
6725.00,0.7853
6724.00,0.7817
6723.00,0.7780
6722.00,0.7743
6721.00,0.7708
6720.00,0.7675
6719.00,0.7643
6718.00,0.7612
6717.00,0.7583
6716.00,0.7556
6715.00,0.7529
6714.00,0.7501
6713.00,0.7475
6712.00,0.7450
6711.00,0.7426
6710.00,0.7404
6709.00,0.7385
6708.00,0.7367
6707.00,0.7350
6706.00,0.7336
6705.00,0.7322
6704.00,0.7309
6703.00,0.7296
6702.00,0.7285
6701.00,0.7276
6700.00,0.7268
6699.00,0.7263
6698.00,0.7258
6697.00,0.7256
6696.00,0.7253
6695.00,0.7251
6694.00,0.7249
6693.00,0.7250
6692.00,0.7253
6691.00,0.7258
6690.00,0.7264
6689.00,0.7273
6688.00,0.7282
6687.00,0.7292
6686.00,0.7304
6685.00,0.7317
6684.00,0.7331
6683.00,0.7347
6682.00,0.7364
6681.00,0.7382
6680.00,0.7400
6679.00,0.7419
6678.00,0.7438
6677.00,0.7459
6676.00,0.7481
6675.00,0.7505
6674.00,0.7531
6673.00,0.7558
6672.00,0.7585
6671.00,0.7612
6670.00,0.7639
6669.00,0.7669
6668.00,0.7702
6667.00,0.7736
6666.00,0.7769
6665.00,0.7802
6664.00,0.7837
6663.00,0.7873
6662.00,0.7910
6661.00,0.7948
6660.00,0.7985
6659.00,0.8022
6658.00,0.8060
6657.00,0.8099
6656.00,0.8138
6655.00,0.8178
6654.00,0.8219
6653.00,0.8261
6652.00,0.8305
6651.00,0.8350
6650.00,0.8395
6649.00,0.8439
6648.00,0.8481
6647.00,0.8524
6646.00,0.8569
6645.00,0.8613
6644.00,0.8658
6643.00,0.8701
6642.00,0.8745
6641.00,0.8790
6640.00,0.8837
6639.00,0.8884
6638.00,0.8932
6637.00,0.8980
6636.00,0.9028
6635.00,0.9075
6634.00,0.9123
6633.00,0.9170
6632.00,0.9216
6631.00,0.9263
6630.00,0.9311
6629.00,0.9358
6628.00,0.9406
6627.00,0.9454
6626.00,0.9502
6625.00,0.9550
6624.00,0.9598
6623.00,0.9645
6622.00,0.9692
6621.00,0.9738
6620.00,0.9782
6619.00,0.9826
6618.00,0.9871
6617.00,0.9918
6616.00,0.9965
6615.00,1.0010
6614.00,1.0055
6613.00,1.0101
6612.00,1.0147
6611.00,1.0193
6610.00,1.0238
6609.00,1.0282
6608.00,1.0326
6607.00,1.0370
6606.00,1.0414
6605.00,1.0455
6604.00,1.0493
6603.00,1.0530
6602.00,1.0569
6601.00,1.0611
6600.00,1.0652
6599.00,1.0694
6598.00,1.0738
6597.00,1.0781
6596.00,1.0823
6595.00,1.0861
6594.00,1.0898
6593.00,1.0935
6592.00,1.0973
6591.00,1.1012
6590.00,1.1052
6589.00,1.1092
6588.00,1.1130
6587.00,1.1164
6586.00,1.1196
6585.00,1.1228
6584.00,1.1261
6583.00,1.1294
6582.00,1.1329
6581.00,1.1366
6580.00,1.1401
6579.00,1.1433
6578.00,1.1461
6577.00,1.1487
6576.00,1.1513
6575.00,1.1540
6574.00,1.1569
6573.00,1.1601
6572.00,1.1634
6571.00,1.1668
6570.00,1.1702
6569.00,1.1732
6568.00,1.1757
6567.00,1.1779
6566.00,1.1801
6565.00,1.1824
6564.00,1.1846
6563.00,1.1867
6562.00,1.1889
6561.00,1.1914
6560.00,1.1939
6559.00,1.1961
6558.00,1.1981
6557.00,1.2000
6556.00,1.2021
6555.00,1.2042
6554.00,1.2064
6553.00,1.2084
6552.00,1.2101
6551.00,1.2115
6550.00,1.2130
6549.00,1.2147
6548.00,1.2163
6547.00,1.2178
6546.00,1.2194
6545.00,1.2211
6544.00,1.2228
6543.00,1.2244
6542.00,1.2258
6541.00,1.2271
6540.00,1.2284
6539.00,1.2296
6538.00,1.2308
6537.00,1.2321
6536.00,1.2330
6535.00,1.2338
6534.00,1.2345
6533.00,1.2352
6532.00,1.2358
6531.00,1.2362
6530.00,1.2365
6529.00,1.2368
6528.00,1.2370
6527.00,1.2372
6526.00,1.2375
6525.00,1.2382
6524.00,1.2390
6523.00,1.2396
6522.00,1.2399
6521.00,1.2402
6520.00,1.2404
6519.00,1.2404
6518.00,1.2401
6517.00,1.2397
6516.00,1.2393
6515.00,1.2391
6514.00,1.2391
6513.00,1.2390
6512.00,1.2387
6511.00,1.2383
6510.00,1.2379
6509.00,1.2375
6508.00,1.2369
6507.00,1.2361
6506.00,1.2353
6505.00,1.2344
6504.00,1.2336
6503.00,1.2327
6502.00,1.2318
6501.00,1.2308
6500.00,1.2297
6499.00,1.2287
6498.00,1.2278
6497.00,1.2267
6496.00,1.2255
6495.00,1.2242
6494.00,1.2230
6493.00,1.2219
6492.00,1.2208
6491.00,1.2195
6490.00,1.2181
6489.00,1.2169
6488.00,1.2156
6487.00,1.2140
6486.00,1.2121
6485.00,1.2101
6484.00,1.2081
6483.00,1.2058
6482.00,1.2035
6481.00,1.2014
6480.00,1.1995
6479.00,1.1977
6478.00,1.1957
6477.00,1.1935
6476.00,1.1912
6475.00,1.1888
6474.00,1.1865
6473.00,1.1840
6472.00,1.1812
6471.00,1.1784
6470.00,1.1759
6469.00,1.1734
6468.00,1.1707
6467.00,1.1675
6466.00,1.1644
6465.00,1.1614
6464.00,1.1584
6463.00,1.1553
6462.00,1.1521
6461.00,1.1491
6460.00,1.1462
6459.00,1.1433
6458.00,1.1402
6457.00,1.1370
6456.00,1.1337
6455.00,1.1302
6454.00,1.1268
6453.00,1.1233
6452.00,1.1196
6451.00,1.1158
6450.00,1.1121
6449.00,1.1085
6448.00,1.1046
6447.00,1.1006
6446.00,1.0965
6445.00,1.0928
6444.00,1.0891
6443.00,1.0853
6442.00,1.0813
6441.00,1.0771
6440.00,1.0730
6439.00,1.0688
6438.00,1.0647
6437.00,1.0606
6436.00,1.0564
6435.00,1.0520
6434.00,1.0476
6433.00,1.0433
6432.00,1.0391
6431.00,1.0347
6430.00,1.0303
6429.00,1.0258
6428.00,1.0210
6427.00,1.0160
6426.00,1.0108
6425.00,1.0056
6424.00,1.0004
6423.00,0.9953
6422.00,0.9904
6421.00,0.9857
6420.00,0.9811
6419.00,0.9762
6418.00,0.9712
6417.00,0.9661
6416.00,0.9611
6415.00,0.9559
6414.00,0.9507
6413.00,0.9456
6412.00,0.9404
6411.00,0.9352
6410.00,0.9300
6409.00,0.9248
6408.00,0.9197
6407.00,0.9146
6406.00,0.9095
6405.00,0.9045
6404.00,0.8993
6403.00,0.8939
6402.00,0.8885
6401.00,0.8833
6400.00,0.8783
6399.00,0.8734
6398.00,0.8686
6397.00,0.8637
6396.00,0.8588
6395.00,0.8539
6394.00,0.8489
6393.00,0.8440
6392.00,0.8390
6391.00,0.8340
6390.00,0.8292
6389.00,0.8247
6388.00,0.8202
6387.00,0.8156
6386.00,0.8109
6385.00,0.8063
6384.00,0.8017
6383.00,0.7973
6382.00,0.7928
6381.00,0.7885
6380.00,0.7842
6379.00,0.7800
6378.00,0.7758
6377.00,0.7719
6376.00,0.7681
6375.00,0.7643
6374.00,0.7606
6373.00,0.7571
6372.00,0.7536
6371.00,0.7502
6370.00,0.7467
6369.00,0.7434
6368.00,0.7402
6367.00,0.7371
6366.00,0.7342
6365.00,0.7314
6364.00,0.7288
6363.00,0.7262
6362.00,0.7237
6361.00,0.7213
6360.00,0.7190
6359.00,0.7168
6358.00,0.7146
6357.00,0.7126
6356.00,0.7106
6355.00,0.7089
6354.00,0.7072
6353.00,0.7058
6352.00,0.7045
6351.00,0.7033
6350.00,0.7022
6349.00,0.7013
6348.00,0.7005
6347.00,0.6998
6346.00,0.6992
6345.00,0.6988
6344.00,0.6985
6343.00,0.6983
6342.00,0.6981
6341.00,0.6981
6340.00,0.6983
6339.00,0.6986
6338.00,0.6992
6337.00,0.6999
6336.00,0.7008
6335.00,0.7018
6334.00,0.7029
6333.00,0.7042
6332.00,0.7055
6331.00,0.7070
6330.00,0.7087
6329.00,0.7104
6328.00,0.7122
6327.00,0.7141
6326.00,0.7162
6325.00,0.7186
6324.00,0.7211
6323.00,0.7237
6322.00,0.7264
6321.00,0.7292
6320.00,0.7320
6319.00,0.7348
6318.00,0.7377
6317.00,0.7408
6316.00,0.7443
6315.00,0.7478
6314.00,0.7516
6313.00,0.7554
6312.00,0.7592
6311.00,0.7629
6310.00,0.7666
6309.00,0.7704
6308.00,0.7743
6307.00,0.7783
6306.00,0.7823
6305.00,0.7864
6304.00,0.7907
6303.00,0.7952
6302.00,0.7998
6301.00,0.8045
6300.00,0.8092
6299.00,0.8139
6298.00,0.8186
6297.00,0.8233
6296.00,0.8280
6295.00,0.8327
6294.00,0.8375
6293.00,0.8424
6292.00,0.8475
6291.00,0.8525
6290.00,0.8576
6289.00,0.8627
6288.00,0.8678
6287.00,0.8727
6286.00,0.8777
6285.00,0.8826
6284.00,0.8876
6283.00,0.8927
6282.00,0.8979
6281.00,0.9032
6280.00,0.9087
6279.00,0.9139
6278.00,0.9190
6277.00,0.9239
6276.00,0.9290
6275.00,0.9341
6274.00,0.9394
6273.00,0.9447
6272.00,0.9501
6271.00,0.9554
6270.00,0.9606
6269.00,0.9657
6268.00,0.9707
6267.00,0.9756
6266.00,0.9806
6265.00,0.9856
6264.00,0.9906
6263.00,0.9956
6262.00,1.0005
6261.00,1.0056
6260.00,1.0106
6259.00,1.0157
6258.00,1.0207
6257.00,1.0258
6256.00,1.0308
6255.00,1.0356
6254.00,1.0404
6253.00,1.0453
6252.00,1.0503
6251.00,1.0551
6250.00,1.0597
6249.00,1.0643
6248.00,1.0688
6247.00,1.0733
6246.00,1.0778
6245.00,1.0822
6244.00,1.0868
6243.00,1.0913
6242.00,1.0958
6241.00,1.1001
6240.00,1.1041
6239.00,1.1081
6238.00,1.1123
6237.00,1.1166
6236.00,1.1209
6235.00,1.1250
6234.00,1.1292
6233.00,1.1333
6232.00,1.1373
6231.00,1.1410
6230.00,1.1446
6229.00,1.1484
6228.00,1.1523
6227.00,1.1560
6226.00,1.1595
6225.00,1.1628
6224.00,1.1662
6223.00,1.1696
6222.00,1.1730
6221.00,1.1764
6220.00,1.1800
6219.00,1.1837
6218.00,1.1874
6217.00,1.1912
6216.00,1.1946
6215.00,1.1977
6214.00,1.2005
6213.00,1.2032
6212.00,1.2059
6211.00,1.2084
6210.00,1.2111
6209.00,1.2139
6208.00,1.2169
6207.00,1.2196
6206.00,1.2219
6205.00,1.2239
6204.00,1.2258
6203.00,1.2278
6202.00,1.2300
6201.00,1.2324
6200.00,1.2350
6199.00,1.2378
6198.00,1.2404
6197.00,1.2426
6196.00,1.2445
6195.00,1.2463
6194.00,1.2482
6193.00,1.2502
6192.00,1.2522
6191.00,1.2541
6190.00,1.2559
6189.00,1.2576
6188.00,1.2593
6187.00,1.2609
6186.00,1.2624
6185.00,1.2638
6184.00,1.2652
6183.00,1.2665
6182.00,1.2677
6181.00,1.2688
6180.00,1.2697
6179.00,1.2705
6178.00,1.2712
6177.00,1.2721
6176.00,1.2732
6175.00,1.2743
6174.00,1.2755
6173.00,1.2765
6172.00,1.2774
6171.00,1.2780
6170.00,1.2784
6169.00,1.2786
6168.00,1.2787
6167.00,1.2791
6166.00,1.2798
6165.00,1.2806
6164.00,1.2815
6163.00,1.2821
6162.00,1.2825
6161.00,1.2827
6160.00,1.2826
6159.00,1.2823
6158.00,1.2819
6157.00,1.2815
6156.00,1.2812
6155.00,1.2813
6154.00,1.2815
6153.00,1.2817
6152.00,1.2816
6151.00,1.2814
6150.00,1.2812
6149.00,1.2810
6148.00,1.2807
6147.00,1.2800
6146.00,1.2791
6145.00,1.2781
6144.00,1.2770
6143.00,1.2758
6142.00,1.2748
6141.00,1.2742
6140.00,1.2739
6139.00,1.2733
6138.00,1.2723
6137.00,1.2708
6136.00,1.2692
6135.00,1.2676
6134.00,1.2661
6133.00,1.2645
6132.00,1.2630
6131.00,1.2616
6130.00,1.2604
6129.00,1.2592
6128.00,1.2576
6127.00,1.2559
6126.00,1.2542
6125.00,1.2525
6124.00,1.2505
6123.00,1.2482
6122.00,1.2458
6121.00,1.2436
6120.00,1.2414
6119.00,1.2393
6118.00,1.2372
6117.00,1.2353
6116.00,1.2333
6115.00,1.2312
6114.00,1.2290
6113.00,1.2266
6112.00,1.2240
6111.00,1.2211
6110.00,1.2180
6109.00,1.2150
6108.00,1.2123
6107.00,1.2098
6106.00,1.2074
6105.00,1.2049
6104.00,1.2022
6103.00,1.1993
6102.00,1.1962
6101.00,1.1929
6100.00,1.1894
6099.00,1.1858
6098.00,1.1823
6097.00,1.1789
6096.00,1.1753
6095.00,1.1716
6094.00,1.1679
6093.00,1.1643
6092.00,1.1608
6091.00,1.1572
6090.00,1.1534
6089.00,1.1496
6088.00,1.1457
6087.00,1.1418
6086.00,1.1377
6085.00,1.1336
6084.00,1.1293
6083.00,1.1251
6082.00,1.1208
6081.00,1.1165
6080.00,1.1119
6079.00,1.1072
6078.00,1.1027
6077.00,1.0984
6076.00,1.0942
6075.00,1.0900
6074.00,1.0856
6073.00,1.0812
6072.00,1.0766
6071.00,1.0717
6070.00,1.0667
6069.00,1.0617
6068.00,1.0566
6067.00,1.0515
6066.00,1.0464
6065.00,1.0414
6064.00,1.0361
6063.00,1.0306
6062.00,1.0252
6061.00,1.0199
6060.00,1.0146
6059.00,1.0093
6058.00,1.0039
6057.00,0.9985
6056.00,0.9931
6055.00,0.9876
6054.00,0.9821
6053.00,0.9765
6052.00,0.9710
6051.00,0.9655
6050.00,0.9599
6049.00,0.9543
6048.00,0.9488
6047.00,0.9431
6046.00,0.9375
6045.00,0.9319
6044.00,0.9263
6043.00,0.9206
6042.00,0.9150
6041.00,0.9094
6040.00,0.9038
6039.00,0.8982
6038.00,0.8926
6037.00,0.8870
6036.00,0.8814
6035.00,0.8757
6034.00,0.8700
6033.00,0.8644
6032.00,0.8588
6031.00,0.8533
6030.00,0.8478
6029.00,0.8424
6028.00,0.8371
6027.00,0.8319
6026.00,0.8268
6025.00,0.8218
6024.00,0.8167
6023.00,0.8116
6022.00,0.8066
6021.00,0.8017
6020.00,0.7968
6019.00,0.7919
6018.00,0.7872
6017.00,0.7827
6016.00,0.7783
6015.00,0.7739
6014.00,0.7697
6013.00,0.7657
6012.00,0.7618
6011.00,0.7579
6010.00,0.7541
6009.00,0.7505
6008.00,0.7470
6007.00,0.7435
6006.00,0.7402
6005.00,0.7371
6004.00,0.7342
6003.00,0.7314
6002.00,0.7288
6001.00,0.7263
6000.00,0.7240
5999.00,0.7217
5998.00,0.7197
5997.00,0.7178
5996.00,0.7161
5995.00,0.7146
5994.00,0.7132
5993.00,0.7122
5992.00,0.7113
5991.00,0.7105
5990.00,0.7099
5989.00,0.7094
5988.00,0.7091
5987.00,0.7090
5986.00,0.7091
5985.00,0.7095
5984.00,0.7101
5983.00,0.7107
5982.00,0.7114
5981.00,0.7123
5980.00,0.7132
5979.00,0.7143
5978.00,0.7156
5977.00,0.7172
5976.00,0.7189
5975.00,0.7208
5974.00,0.7228
5973.00,0.7250
5972.00,0.7273
5971.00,0.7296
5970.00,0.7321
5969.00,0.7349
5968.00,0.7379
5967.00,0.7410
5966.00,0.7443
5965.00,0.7477
5964.00,0.7511
5963.00,0.7545
5962.00,0.7580
5961.00,0.7617
5960.00,0.7656
5959.00,0.7697
5958.00,0.7739
5957.00,0.7783
5956.00,0.7826
5955.00,0.7870
5954.00,0.7914
5953.00,0.7959
5952.00,0.8006
5951.00,0.8054
5950.00,0.8101
5949.00,0.8149
5948.00,0.8198
5947.00,0.8247
5946.00,0.8297
5945.00,0.8349
5944.00,0.8402
5943.00,0.8457
5942.00,0.8512
5941.00,0.8568
5940.00,0.8623
5939.00,0.8678
5938.00,0.8733
5937.00,0.8788
5936.00,0.8844
5935.00,0.8901
5934.00,0.8958
5933.00,0.9015
5932.00,0.9071
5931.00,0.9127
5930.00,0.9183
5929.00,0.9240
5928.00,0.9299
5927.00,0.9358
5926.00,0.9416
5925.00,0.9474
5924.00,0.9531
5923.00,0.9587
5922.00,0.9643
5921.00,0.9698
5920.00,0.9754
5919.00,0.9809
5918.00,0.9863
5917.00,0.9918
5916.00,0.9974
5915.00,1.0030
5914.00,1.0087
5913.00,1.0144
5912.00,1.0201
5911.00,1.0256
5910.00,1.0310
5909.00,1.0363
5908.00,1.0415
5907.00,1.0467
5906.00,1.0520
5905.00,1.0573
5904.00,1.0627
5903.00,1.0681
5902.00,1.0735
5901.00,1.0789
5900.00,1.0842
5899.00,1.0892
5898.00,1.0941
5897.00,1.0991
5896.00,1.1042
5895.00,1.1095
5894.00,1.1146
5893.00,1.1197
5892.00,1.1245
5891.00,1.1291
5890.00,1.1335
5889.00,1.1378
5888.00,1.1423
5887.00,1.1469
5886.00,1.1517
5885.00,1.1564
5884.00,1.1609
5883.00,1.1651
5882.00,1.1692
5881.00,1.1730
5880.00,1.1768
5879.00,1.1807
5878.00,1.1849
5877.00,1.1894
5876.00,1.1939
5875.00,1.1982
5874.00,1.2023
5873.00,1.2063
5872.00,1.2100
5871.00,1.2135
5870.00,1.2170
5869.00,1.2206
5868.00,1.2241
5867.00,1.2276
5866.00,1.2309
5865.00,1.2343
5864.00,1.2377
5863.00,1.2408
5862.00,1.2438
5861.00,1.2466
5860.00,1.2494
5859.00,1.2522
5858.00,1.2551
5857.00,1.2580
5856.00,1.2609
5855.00,1.2638
5854.00,1.2666
5853.00,1.2692
5852.00,1.2716
5851.00,1.2742
5850.00,1.2769
5849.00,1.2798
5848.00,1.2824
5847.00,1.2846
5846.00,1.2865
5845.00,1.2884
5844.00,1.2904
5843.00,1.2924
5842.00,1.2944
5841.00,1.2963
5840.00,1.2982
5839.00,1.2999
5838.00,1.3013
5837.00,1.3027
5836.00,1.3042
5835.00,1.3058
5834.00,1.3076
5833.00,1.3093
5832.00,1.3107
5831.00,1.3120
5830.00,1.3133
5829.00,1.3145
5828.00,1.3156
5827.00,1.3166
5826.00,1.3175
5825.00,1.3186
5824.00,1.3197
5823.00,1.3209
5822.00,1.3220
5821.00,1.3230
5820.00,1.3239
5819.00,1.3245
5818.00,1.3251
5817.00,1.3256
5816.00,1.3261
5815.00,1.3265
5814.00,1.3267
5813.00,1.3269
5812.00,1.3272
5811.00,1.3274
5810.00,1.3278
5809.00,1.3283
5808.00,1.3287
5807.00,1.3288
5806.00,1.3286
5805.00,1.3284
5804.00,1.3282
5803.00,1.3281
5802.00,1.3279
5801.00,1.3276
5800.00,1.3272
5799.00,1.3265
5798.00,1.3256
5797.00,1.3246
5796.00,1.3238
5795.00,1.3234
5794.00,1.3232
5793.00,1.3230
5792.00,1.3225
5791.00,1.3217
5790.00,1.3208
5789.00,1.3198
5788.00,1.3186
5787.00,1.3174
5786.00,1.3162
5785.00,1.3153
5784.00,1.3144
5783.00,1.3134
5782.00,1.3120
5781.00,1.3106
5780.00,1.3091
5779.00,1.3075
5778.00,1.3058
5777.00,1.3040
5776.00,1.3020
5775.00,1.2998
5774.00,1.2977
5773.00,1.2956
5772.00,1.2936
5771.00,1.2915
5770.00,1.2895
5769.00,1.2876
5768.00,1.2856
5767.00,1.2836
5766.00,1.2816
5765.00,1.2797
5764.00,1.2776
5763.00,1.2753
5762.00,1.2728
5761.00,1.2703
5760.00,1.2678
5759.00,1.2652
5758.00,1.2625
5757.00,1.2598
5756.00,1.2571
5755.00,1.2543
5754.00,1.2514
5753.00,1.2485
5752.00,1.2457
5751.00,1.2428
5750.00,1.2398
5749.00,1.2366
5748.00,1.2334
5747.00,1.2302
5746.00,1.2270
5745.00,1.2238
5744.00,1.2206
5743.00,1.2174
5742.00,1.2143
5741.00,1.2111
5740.00,1.2078
5739.00,1.2044
5738.00,1.2008
5737.00,1.1971
5736.00,1.1933
5735.00,1.1893
5734.00,1.1852
5733.00,1.1810
5732.00,1.1767
5731.00,1.1725
5730.00,1.1682
5729.00,1.1638
5728.00,1.1593
5727.00,1.1548
5726.00,1.1503
5725.00,1.1456
5724.00,1.1409
5723.00,1.1362
5722.00,1.1316
5721.00,1.1270
5720.00,1.1222
5719.00,1.1172
5718.00,1.1122
5717.00,1.1070
5716.00,1.1017
5715.00,1.0963
5714.00,1.0910
5713.00,1.0859
5712.00,1.0807
5711.00,1.0754
5710.00,1.0698
5709.00,1.0641
5708.00,1.0583
5707.00,1.0524
5706.00,1.0466
5705.00,1.0408
5704.00,1.0350
5703.00,1.0291
5702.00,1.0231
5701.00,1.0171
5700.00,1.0112
5699.00,1.0052
5698.00,0.9992
5697.00,0.9932
5696.00,0.9871
5695.00,0.9809
5694.00,0.9747
5693.00,0.9685
5692.00,0.9624
5691.00,0.9561
5690.00,0.9498
5689.00,0.9435
5688.00,0.9373
5687.00,0.9310
5686.00,0.9249
5685.00,0.9188
5684.00,0.9127
5683.00,0.9066
5682.00,0.9004
5681.00,0.8941
5680.00,0.8878
5679.00,0.8815
5678.00,0.8751
5677.00,0.8689
5676.00,0.8629
5675.00,0.8569
5674.00,0.8510
5673.00,0.8452
5672.00,0.8393
5671.00,0.8335
5670.00,0.8277
5669.00,0.8219
5668.00,0.8162
5667.00,0.8106
5666.00,0.8051
5665.00,0.7998
5664.00,0.7946
5663.00,0.7894
5662.00,0.7844
5661.00,0.7794
5660.00,0.7745
5659.00,0.7697
5658.00,0.7651
5657.00,0.7608
5656.00,0.7566
5655.00,0.7525
5654.00,0.7485
5653.00,0.7446
5652.00,0.7408
5651.00,0.7371
5650.00,0.7337
5649.00,0.7305
5648.00,0.7275
5647.00,0.7247
5646.00,0.7220
5645.00,0.7195
5644.00,0.7170
5643.00,0.7147
5642.00,0.7126
5641.00,0.7108
5640.00,0.7092
5639.00,0.7078
5638.00,0.7066
5637.00,0.7056
5636.00,0.7048
5635.00,0.7041
5634.00,0.7036
5633.00,0.7033
5632.00,0.7031
5631.00,0.7031
5630.00,0.7034
5629.00,0.7038
5628.00,0.7044
5627.00,0.7053
5626.00,0.7064
5625.00,0.7077
5624.00,0.7091
5623.00,0.7106
5622.00,0.7122
5621.00,0.7141
5620.00,0.7161
5619.00,0.7183
5618.00,0.7208
5617.00,0.7236
5616.00,0.7264
5615.00,0.7293
5614.00,0.7323
5613.00,0.7354
5612.00,0.7386
5611.00,0.7419
5610.00,0.7454
5609.00,0.7491
5608.00,0.7529
5607.00,0.7569
5606.00,0.7609
5605.00,0.7651
5604.00,0.7694
5603.00,0.7739
5602.00,0.7784
5601.00,0.7830
5600.00,0.7876
5599.00,0.7922
5598.00,0.7969
5597.00,0.8017
5596.00,0.8065
5595.00,0.8114
5594.00,0.8164
5593.00,0.8215
5592.00,0.8268
5591.00,0.8321
5590.00,0.8375
5589.00,0.8429
5588.00,0.8483
5587.00,0.8537
5586.00,0.8591
5585.00,0.8646
5584.00,0.8702
5583.00,0.8757
5582.00,0.8813
5581.00,0.8870
5580.00,0.8926
5579.00,0.8983
5578.00,0.9040
5577.00,0.9098
5576.00,0.9156
5575.00,0.9214
5574.00,0.9272
5573.00,0.9330
5572.00,0.9389
5571.00,0.9448
5570.00,0.9508
5569.00,0.9567
5568.00,0.9626
5567.00,0.9685
5566.00,0.9744
5565.00,0.9803
5564.00,0.9862
5563.00,0.9922
5562.00,0.9982
5561.00,1.0043
5560.00,1.0102
5559.00,1.0161
5558.00,1.0221
5557.00,1.0281
5556.00,1.0342
5555.00,1.0401
5554.00,1.0460
5553.00,1.0519
5552.00,1.0576
5551.00,1.0633
5550.00,1.0688
5549.00,1.0743
5548.00,1.0798
5547.00,1.0852
5546.00,1.0906
5545.00,1.0962
5544.00,1.1017
5543.00,1.1072
5542.00,1.1127
5541.00,1.1181
5540.00,1.1234
5539.00,1.1287
5538.00,1.1339
5537.00,1.1392
5536.00,1.1443
5535.00,1.1493
5534.00,1.1542
5533.00,1.1590
5532.00,1.1638
5531.00,1.1685
5530.00,1.1732
5529.00,1.1779
5528.00,1.1825
5527.00,1.1870
5526.00,1.1915
5525.00,1.1958
5524.00,1.2001
5523.00,1.2043
5522.00,1.2085
5521.00,1.2127
5520.00,1.2169
5519.00,1.2211
5518.00,1.2254
5517.00,1.2298
5516.00,1.2341
5515.00,1.2382
5514.00,1.2421
5513.00,1.2459
5512.00,1.2496
5511.00,1.2531
5510.00,1.2566
5509.00,1.2600
5508.00,1.2635
5507.00,1.2670
5506.00,1.2704
5505.00,1.2738
5504.00,1.2771
5503.00,1.2804
5502.00,1.2836
5501.00,1.2866
5500.00,1.2896
5499.00,1.2927
5498.00,1.2957
5497.00,1.2989
5496.00,1.3019
5495.00,1.3049
5494.00,1.3077
5493.00,1.3103
5492.00,1.3129
5491.00,1.3153
5490.00,1.3178
5489.00,1.3202
5488.00,1.3226
5487.00,1.3250
5486.00,1.3273
5485.00,1.3296
5484.00,1.3319
5483.00,1.3341
5482.00,1.3362
5481.00,1.3381
5480.00,1.3399
5479.00,1.3415
5478.00,1.3430
5477.00,1.3447
5476.00,1.3464
5475.00,1.3482
5474.00,1.3498
5473.00,1.3514
5472.00,1.3528
5471.00,1.3541
5470.00,1.3556
5469.00,1.3572
5468.00,1.3586
5467.00,1.3597
5466.00,1.3605
5465.00,1.3612
5464.00,1.3619
5463.00,1.3626
5462.00,1.3634
5461.00,1.3642
5460.00,1.3649
5459.00,1.3654
5458.00,1.3659
5457.00,1.3665
5456.00,1.3671
5455.00,1.3675
5454.00,1.3676
5453.00,1.3677
5452.00,1.3677
5451.00,1.3677
5450.00,1.3679
5449.00,1.3680
5448.00,1.3681
5447.00,1.3680
5446.00,1.3677
5445.00,1.3675
5444.00,1.3674
5443.00,1.3673
5442.00,1.3672
5441.00,1.3669
5440.00,1.3666
5439.00,1.3662
5438.00,1.3657
5437.00,1.3650
5436.00,1.3642
5435.00,1.3633
5434.00,1.3624
5433.00,1.3616
5432.00,1.3607
5431.00,1.3597
5430.00,1.3585
5429.00,1.3572
5428.00,1.3559
5427.00,1.3546
5426.00,1.3532
5425.00,1.3519
5424.00,1.3505
5423.00,1.3490
5422.00,1.3474
5421.00,1.3457
5420.00,1.3441
5419.00,1.3424
5418.00,1.3407
5417.00,1.3390
5416.00,1.3372
5415.00,1.3353
5414.00,1.3333
5413.00,1.3312
5412.00,1.3290
5411.00,1.3267
5410.00,1.3243
5409.00,1.3219
5408.00,1.3195
5407.00,1.3171
5406.00,1.3145
5405.00,1.3118
5404.00,1.3090
5403.00,1.3062
5402.00,1.3033
5401.00,1.3004
5400.00,1.2975
5399.00,1.2946
5398.00,1.2916
5397.00,1.2886
5396.00,1.2855
5395.00,1.2822
5394.00,1.2788
5393.00,1.2753
5392.00,1.2720
5391.00,1.2685
5390.00,1.2650
5389.00,1.2613
5388.00,1.2573
5387.00,1.2533
5386.00,1.2491
5385.00,1.2451
5384.00,1.2413
5383.00,1.2375
5382.00,1.2337
5381.00,1.2297
5380.00,1.2253
5379.00,1.2208
5378.00,1.2161
5377.00,1.2114
5376.00,1.2068
5375.00,1.2021
5374.00,1.1975
5373.00,1.1928
5372.00,1.1880
5371.00,1.1830
5370.00,1.1781
5369.00,1.1732
5368.00,1.1683
5367.00,1.1633
5366.00,1.1581
5365.00,1.1527
5364.00,1.1472
5363.00,1.1416
5362.00,1.1361
5361.00,1.1306
5360.00,1.1252
5359.00,1.1197
5358.00,1.1141
5357.00,1.1083
5356.00,1.1024
5355.00,1.0964
5354.00,1.0904
5353.00,1.0844
5352.00,1.0784
5351.00,1.0724
5350.00,1.0661
5349.00,1.0597
5348.00,1.0533
5347.00,1.0468
5346.00,1.0403
5345.00,1.0337
5344.00,1.0272
5343.00,1.0207
5342.00,1.0143
5341.00,1.0079
5340.00,1.0013
5339.00,0.9945
5338.00,0.9877
5337.00,0.9810
5336.00,0.9742
5335.00,0.9673
5334.00,0.9604
5333.00,0.9535
5332.00,0.9466
5331.00,0.9397
5330.00,0.9329
5329.00,0.9261
5328.00,0.9192
5327.00,0.9124
5326.00,0.9056
5325.00,0.8988
5324.00,0.8921
5323.00,0.8853
5322.00,0.8785
5321.00,0.8718
5320.00,0.8651
5319.00,0.8584
5318.00,0.8518
5317.00,0.8453
5316.00,0.8388
5315.00,0.8323
5314.00,0.8261
5313.00,0.8199
5312.00,0.8139
5311.00,0.8079
5310.00,0.8019
5309.00,0.7961
5308.00,0.7903
5307.00,0.7846
5306.00,0.7791
5305.00,0.7738
5304.00,0.7686
5303.00,0.7636
5302.00,0.7587
5301.00,0.7540
5300.00,0.7494
5299.00,0.7449
5298.00,0.7407
5297.00,0.7367
5296.00,0.7328
5295.00,0.7292
5294.00,0.7258
5293.00,0.7226
5292.00,0.7196
5291.00,0.7168
5290.00,0.7143
5289.00,0.7119
5288.00,0.7098
5287.00,0.7078
5286.00,0.7061
5285.00,0.7046
5284.00,0.7034
5283.00,0.7024
5282.00,0.7016
5281.00,0.7012
5280.00,0.7009
5279.00,0.7009
5278.00,0.7012
5277.00,0.7016
5276.00,0.7023
5275.00,0.7031
5274.00,0.7042
5273.00,0.7056
5272.00,0.7072
5271.00,0.7091
5270.00,0.7111
5269.00,0.7133
5268.00,0.7158
5267.00,0.7184
5266.00,0.7213
5265.00,0.7245
5264.00,0.7278
5263.00,0.7314
5262.00,0.7351
5261.00,0.7389
5260.00,0.7429
5259.00,0.7469
5258.00,0.7511
5257.00,0.7555
5256.00,0.7601
5255.00,0.7647
5254.00,0.7696
5253.00,0.7747
5252.00,0.7799
5251.00,0.7852
5250.00,0.7906
5249.00,0.7962
5248.00,0.8019
5247.00,0.8077
5246.00,0.8134
5245.00,0.8192
5244.00,0.8251
5243.00,0.8311
5242.00,0.8373
5241.00,0.8436
5240.00,0.8498
5239.00,0.8561
5238.00,0.8624
5237.00,0.8688
5236.00,0.8753
5235.00,0.8817
5234.00,0.8881
5233.00,0.8947
5232.00,0.9014
5231.00,0.9081
5230.00,0.9148
5229.00,0.9215
5228.00,0.9283
5227.00,0.9351
5226.00,0.9420
5225.00,0.9490
5224.00,0.9559
5223.00,0.9628
5222.00,0.9696
5221.00,0.9763
5220.00,0.9832
5219.00,0.9900
5218.00,0.9969
5217.00,1.0037
5216.00,1.0104
5215.00,1.0171
5214.00,1.0238
5213.00,1.0304
5212.00,1.0371
5211.00,1.0436
5210.00,1.0502
5209.00,1.0568
5208.00,1.0635
5207.00,1.0702
5206.00,1.0770
5205.00,1.0837
5204.00,1.0903
5203.00,1.0967
5202.00,1.1030
5201.00,1.1094
5200.00,1.1158
5199.00,1.1221
5198.00,1.1282
5197.00,1.1343
5196.00,1.1403
5195.00,1.1464
5194.00,1.1524
5193.00,1.1584
5192.00,1.1643
5191.00,1.1701
5190.00,1.1757
5189.00,1.1813
5188.00,1.1868
5187.00,1.1922
5186.00,1.1976
5185.00,1.2030
5184.00,1.2085
5183.00,1.2140
5182.00,1.2196
5181.00,1.2251
5180.00,1.2305
5179.00,1.2356
5178.00,1.2404
5177.00,1.2452
5176.00,1.2501
5175.00,1.2549
5174.00,1.2598
5173.00,1.2648
5172.00,1.2696
5171.00,1.2741
5170.00,1.2785
5169.00,1.2827
5168.00,1.2870
5167.00,1.2912
5166.00,1.2953
5165.00,1.2994
5164.00,1.3035
5163.00,1.3076
5162.00,1.3117
5161.00,1.3158
5160.00,1.3197
5159.00,1.3236
5158.00,1.3273
5157.00,1.3309
5156.00,1.3345
5155.00,1.3380
5154.00,1.3413
5153.00,1.3446
5152.00,1.3479
5151.00,1.3512
5150.00,1.3545
5149.00,1.3577
5148.00,1.3608
5147.00,1.3638
5146.00,1.3668
5145.00,1.3698
5144.00,1.3727
5143.00,1.3754
5142.00,1.3779
5141.00,1.3803
5140.00,1.3826
5139.00,1.3849
5138.00,1.3874
5137.00,1.3899
5136.00,1.3925
5135.00,1.3950
5134.00,1.3973
5133.00,1.3995
5132.00,1.4016
5131.00,1.4036
5130.00,1.4055
5129.00,1.4074
5128.00,1.4092
5127.00,1.4107
5126.00,1.4121
5125.00,1.4134
5124.00,1.4148
5123.00,1.4163
5122.00,1.4179
5121.00,1.4196
5120.00,1.4213
5119.00,1.4229
5118.00,1.4243
5117.00,1.4254
5116.00,1.4262
5115.00,1.4269
5114.00,1.4275
5113.00,1.4281
5112.00,1.4290
5111.00,1.4300
5110.00,1.4311
5109.00,1.4321
5108.00,1.4328
5107.00,1.4334
5106.00,1.4338
5105.00,1.4341
5104.00,1.4344
5103.00,1.4345
5102.00,1.4346
5101.00,1.4347
5100.00,1.4348
5099.00,1.4349
5098.00,1.4350
5097.00,1.4351
5096.00,1.4350
5095.00,1.4348
5094.00,1.4345
5093.00,1.4343
5092.00,1.4341
5091.00,1.4338
5090.00,1.4337
5089.00,1.4334
5088.00,1.4330
5087.00,1.4323
5086.00,1.4315
5085.00,1.4306
5084.00,1.4297
5083.00,1.4287
5082.00,1.4278
5081.00,1.4269
5080.00,1.4259
5079.00,1.4248
5078.00,1.4236
5077.00,1.4224
5076.00,1.4213
5075.00,1.4200
5074.00,1.4187
5073.00,1.4173
5072.00,1.4159
5071.00,1.4143
5070.00,1.4125
5069.00,1.4106
5068.00,1.4085
5067.00,1.4064
5066.00,1.4043
5065.00,1.4023
5064.00,1.4004
5063.00,1.3983
5062.00,1.3961
5061.00,1.3940
5060.00,1.3918
5059.00,1.3895
5058.00,1.3871
5057.00,1.3847
5056.00,1.3823
5055.00,1.3798
5054.00,1.3773
5053.00,1.3747
5052.00,1.3719
5051.00,1.3689
5050.00,1.3658
5049.00,1.3627
5048.00,1.3597
5047.00,1.3567
5046.00,1.3535
5045.00,1.3503
5044.00,1.3469
5043.00,1.3435
5042.00,1.3400
5041.00,1.3365
5040.00,1.3329
5039.00,1.3292
5038.00,1.3254
5037.00,1.3217
5036.00,1.3178
5035.00,1.3139
5034.00,1.3099
5033.00,1.3057
5032.00,1.3015
5031.00,1.2971
5030.00,1.2928
5029.00,1.2885
5028.00,1.2843
5027.00,1.2799
5026.00,1.2754
5025.00,1.2706
5024.00,1.2657
5023.00,1.2607
5022.00,1.2556
5021.00,1.2506
5020.00,1.2455
5019.00,1.2403
5018.00,1.2351
5017.00,1.2299
5016.00,1.2246
5015.00,1.2192
5014.00,1.2137
5013.00,1.2080
5012.00,1.2022
5011.00,1.1964
5010.00,1.1905
5009.00,1.1847
5008.00,1.1788
5007.00,1.1727
5006.00,1.1665
5005.00,1.1602
5004.00,1.1538
5003.00,1.1474
5002.00,1.1410
5001.00,1.1346
5000.00,1.1282
4999.00,1.1216
4998.00,1.1149
4997.00,1.1082
4996.00,1.1013
4995.00,1.0944
4994.00,1.0875
4993.00,1.0805
4992.00,1.0734
4991.00,1.0663
4990.00,1.0590
4989.00,1.0516
4988.00,1.0443
4987.00,1.0369
4986.00,1.0295
4985.00,1.0220
4984.00,1.0145
4983.00,1.0069
4982.00,0.9992
4981.00,0.9915
4980.00,0.9838
4979.00,0.9761
4978.00,0.9684
4977.00,0.9606
4976.00,0.9528
4975.00,0.9450
4974.00,0.9372
4973.00,0.9294
4972.00,0.9216
4971.00,0.9138
4970.00,0.9061
4969.00,0.8983
4968.00,0.8906
4967.00,0.8829
4966.00,0.8752
4965.00,0.8675
4964.00,0.8599
4963.00,0.8524
4962.00,0.8450
4961.00,0.8376
4960.00,0.8303
4959.00,0.8231
4958.00,0.8160
4957.00,0.8090
4956.00,0.8021
4955.00,0.7953
4954.00,0.7887
4953.00,0.7822
4952.00,0.7758
4951.00,0.7695
4950.00,0.7635
4949.00,0.7577
4948.00,0.7521
4947.00,0.7466
4946.00,0.7413
4945.00,0.7362
4944.00,0.7314
4943.00,0.7268
4942.00,0.7224
4941.00,0.7183
4940.00,0.7144
4939.00,0.7107
4938.00,0.7074
4937.00,0.7043
4936.00,0.7015
4935.00,0.6989
4934.00,0.6966
4933.00,0.6946
4932.00,0.6930
4931.00,0.6915
4930.00,0.6904
4929.00,0.6896
4928.00,0.6890
4927.00,0.6888
4926.00,0.6888
4925.00,0.6892
4924.00,0.6898
4923.00,0.6906
4922.00,0.6918
4921.00,0.6932
4920.00,0.6950
4919.00,0.6970
4918.00,0.6994
4917.00,0.7020
4916.00,0.7048
4915.00,0.7078
4914.00,0.7110
4913.00,0.7146
4912.00,0.7183
4911.00,0.7223
4910.00,0.7265
4909.00,0.7310
4908.00,0.7356
4907.00,0.7404
4906.00,0.7454
4905.00,0.7506
4904.00,0.7560
4903.00,0.7615
4902.00,0.7671
4901.00,0.7729
4900.00,0.7789
4899.00,0.7850
4898.00,0.7912
4897.00,0.7977
4896.00,0.8042
4895.00,0.8109
4894.00,0.8175
4893.00,0.8243
4892.00,0.8311
4891.00,0.8381
4890.00,0.8452
4889.00,0.8525
4888.00,0.8597
4887.00,0.8670
4886.00,0.8744
4885.00,0.8818
4884.00,0.8893
4883.00,0.8968
4882.00,0.9043
4881.00,0.9118
4880.00,0.9195
4879.00,0.9271
4878.00,0.9348
4877.00,0.9425
4876.00,0.9502
4875.00,0.9579
4874.00,0.9656
4873.00,0.9735
4872.00,0.9814
4871.00,0.9892
4870.00,0.9970
4869.00,1.0048
4868.00,1.0124
4867.00,1.0200
4866.00,1.0276
4865.00,1.0352
4864.00,1.0429
4863.00,1.0506
4862.00,1.0582
4861.00,1.0658
4860.00,1.0734
4859.00,1.0810
4858.00,1.0885
4857.00,1.0960
4856.00,1.1034
4855.00,1.1107
4854.00,1.1179
4853.00,1.1251
4852.00,1.1323
4851.00,1.1394
4850.00,1.1465
4849.00,1.1536
4848.00,1.1607
4847.00,1.1676
4846.00,1.1745
4845.00,1.1813
4844.00,1.1880
4843.00,1.1946
4842.00,1.2012
4841.00,1.2078
4840.00,1.2144
4839.00,1.2208
4838.00,1.2271
4837.00,1.2334
4836.00,1.2397
4835.00,1.2459
4834.00,1.2519
4833.00,1.2578
4832.00,1.2636
4831.00,1.2693
4830.00,1.2750
4829.00,1.2809
4828.00,1.2867
4827.00,1.2924
4826.00,1.2979
4825.00,1.3033
4824.00,1.3086
4823.00,1.3138
4822.00,1.3190
4821.00,1.3243
4820.00,1.3295
4819.00,1.3346
4818.00,1.3396
4817.00,1.3444
4816.00,1.3491
4815.00,1.3538
4814.00,1.3585
4813.00,1.3633
4812.00,1.3679
4811.00,1.3724
4810.00,1.3767
4809.00,1.3809
4808.00,1.3850
4807.00,1.3890
4806.00,1.3929
4805.00,1.3969
4804.00,1.4008
4803.00,1.4047
4802.00,1.4084
4801.00,1.4121
4800.00,1.4158
4799.00,1.4193
4798.00,1.4227
4797.00,1.4261
4796.00,1.4294
4795.00,1.4327
4794.00,1.4359
4793.00,1.4390
4792.00,1.4421
4791.00,1.4449
4790.00,1.4476
4789.00,1.4503
4788.00,1.4529
4787.00,1.4556
4786.00,1.4583
4785.00,1.4610
4784.00,1.4636
4783.00,1.4661
4782.00,1.4685
4781.00,1.4709
4780.00,1.4732
4779.00,1.4755
4778.00,1.4778
4777.00,1.4800
4776.00,1.4820
4775.00,1.4839
4774.00,1.4857
4773.00,1.4877
4772.00,1.4896
4771.00,1.4914
4770.00,1.4931
4769.00,1.4947
4768.00,1.4962
4767.00,1.4975
4766.00,1.4988
4765.00,1.5000
4764.00,1.5012
4763.00,1.5024
4762.00,1.5036
4761.00,1.5048
4760.00,1.5060
4759.00,1.5070
4758.00,1.5078
4757.00,1.5085
4756.00,1.5090
4755.00,1.5095
4754.00,1.5101
4753.00,1.5109
4752.00,1.5118
4751.00,1.5126
4750.00,1.5132
4749.00,1.5135
4748.00,1.5136
4747.00,1.5136
4746.00,1.5136
4745.00,1.5138
4744.00,1.5140
4743.00,1.5141
4742.00,1.5140
4741.00,1.5138
4740.00,1.5135
4739.00,1.5130
4738.00,1.5125
4737.00,1.5119
4736.00,1.5113
4735.00,1.5107
4734.00,1.5103
4733.00,1.5098
4732.00,1.5094
4731.00,1.5088
4730.00,1.5081
4729.00,1.5073
4728.00,1.5065
4727.00,1.5056
4726.00,1.5047
4725.00,1.5036
4724.00,1.5025
4723.00,1.5011
4722.00,1.4996
4721.00,1.4980
4720.00,1.4962
4719.00,1.4945
4718.00,1.4927
4717.00,1.4911
4716.00,1.4894
4715.00,1.4877
4714.00,1.4859
4713.00,1.4840
4712.00,1.4819
4711.00,1.4798
4710.00,1.4776
4709.00,1.4755
4708.00,1.4734
4707.00,1.4712
4706.00,1.4690
4705.00,1.4667
4704.00,1.4643
4703.00,1.4617
4702.00,1.4589
4701.00,1.4560
4700.00,1.4531
4699.00,1.4501
4698.00,1.4472
4697.00,1.4443
4696.00,1.4415
4695.00,1.4385
4694.00,1.4354
4693.00,1.4321
4692.00,1.4286
4691.00,1.4250
4690.00,1.4214
4689.00,1.4179
4688.00,1.4145
4687.00,1.4109
4686.00,1.4072
4685.00,1.4033
4684.00,1.3994
4683.00,1.3955
4682.00,1.3917
4681.00,1.3878
4680.00,1.3838
4679.00,1.3795
4678.00,1.3752
4677.00,1.3707
4676.00,1.3662
4675.00,1.3616
4674.00,1.3569
4673.00,1.3522
4672.00,1.3473
4671.00,1.3424
4670.00,1.3374
4669.00,1.3325
4668.00,1.3275
4667.00,1.3225
4666.00,1.3173
4665.00,1.3120
4664.00,1.3064
4663.00,1.3007
4662.00,1.2949
4661.00,1.2891
4660.00,1.2832
4659.00,1.2772
4658.00,1.2711
4657.00,1.2648
4656.00,1.2585
4655.00,1.2521
4654.00,1.2457
4653.00,1.2392
4652.00,1.2326
4651.00,1.2258
4650.00,1.2189
4649.00,1.2119
4648.00,1.2049
4647.00,1.1978
4646.00,1.1905
4645.00,1.1831
4644.00,1.1757
4643.00,1.1681
4642.00,1.1606
4641.00,1.1531
4640.00,1.1455
4639.00,1.1377
4638.00,1.1298
4637.00,1.1219
4636.00,1.1139
4635.00,1.1059
4634.00,1.0979
4633.00,1.0897
4632.00,1.0815
4631.00,1.0731
4630.00,1.0647
4629.00,1.0563
4628.00,1.0478
4627.00,1.0392
4626.00,1.0306
4625.00,1.0220
4624.00,1.0133
4623.00,1.0047
4622.00,0.9960
4621.00,0.9874
4620.00,0.9786
4619.00,0.9698
4618.00,0.9610
4617.00,0.9522
4616.00,0.9434
4615.00,0.9346
4614.00,0.9259
4613.00,0.9173
4612.00,0.9087
4611.00,0.9000
4610.00,0.8914
4609.00,0.8828
4608.00,0.8744
4607.00,0.8660
4606.00,0.8577
4605.00,0.8496
4604.00,0.8415
4603.00,0.8335
4602.00,0.8256
4601.00,0.8178
4600.00,0.8103
4599.00,0.8028
4598.00,0.7955
4597.00,0.7885
4596.00,0.7816
4595.00,0.7748
4594.00,0.7684
4593.00,0.7621
4592.00,0.7562
4591.00,0.7505
4590.00,0.7451
4589.00,0.7399
4588.00,0.7350
4587.00,0.7303
4586.00,0.7260
4585.00,0.7220
4584.00,0.7184
4583.00,0.7152
4582.00,0.7123
4581.00,0.7098
4580.00,0.7076
4579.00,0.7057
4578.00,0.7041
4577.00,0.7029
4576.00,0.7020
4575.00,0.7015
4574.00,0.7014
4573.00,0.7018
4572.00,0.7024
4571.00,0.7035
4570.00,0.7048
4569.00,0.7066
4568.00,0.7087
4567.00,0.7111
4566.00,0.7138
4565.00,0.7169
4564.00,0.7202
4563.00,0.7238
4562.00,0.7277
4561.00,0.7320
4560.00,0.7365
4559.00,0.7413
4558.00,0.7464
4557.00,0.7517
4556.00,0.7574
4555.00,0.7632
4554.00,0.7693
4553.00,0.7756
4552.00,0.7821
4551.00,0.7887
4550.00,0.7955
4549.00,0.8026
4548.00,0.8097
4547.00,0.8170
4546.00,0.8245
4545.00,0.8322
4544.00,0.8399
4543.00,0.8477
4542.00,0.8557
4541.00,0.8637
4540.00,0.8718
4539.00,0.8800
4538.00,0.8884
4537.00,0.8968
4536.00,0.9053
4535.00,0.9139
4534.00,0.9224
4533.00,0.9310
4532.00,0.9397
4531.00,0.9483
4530.00,0.9571
4529.00,0.9659
4528.00,0.9748
4527.00,0.9837
4526.00,0.9925
4525.00,1.0014
4524.00,1.0102
4523.00,1.0191
4522.00,1.0280
4521.00,1.0368
4520.00,1.0456
4519.00,1.0543
4518.00,1.0630
4517.00,1.0718
4516.00,1.0807
4515.00,1.0895
4514.00,1.0983
4513.00,1.1069
4512.00,1.1155
4511.00,1.1240
4510.00,1.1325
4509.00,1.1410
4508.00,1.1495
4507.00,1.1580
4506.00,1.1664
4505.00,1.1747
4504.00,1.1829
4503.00,1.1910
4502.00,1.1991
4501.00,1.2071
4500.00,1.2150
4499.00,1.2228
4498.00,1.2304
4497.00,1.2380
4496.00,1.2456
4495.00,1.2532
4494.00,1.2608
4493.00,1.2682
4492.00,1.2755
4491.00,1.2825
4490.00,1.2896
4489.00,1.2967
4488.00,1.3037
4487.00,1.3107
4486.00,1.3175
4485.00,1.3241
4484.00,1.3307
4483.00,1.3371
4482.00,1.3436
4481.00,1.3499
4480.00,1.3562
4479.00,1.3624
4478.00,1.3685
4477.00,1.3745
4476.00,1.3805
4475.00,1.3864
4474.00,1.3922
4473.00,1.3981
4472.00,1.4037
4471.00,1.4092
4470.00,1.4146
4469.00,1.4200
4468.00,1.4252
4467.00,1.4304
4466.00,1.4354
4465.00,1.4404
4464.00,1.4453
4463.00,1.4502
4462.00,1.4550
4461.00,1.4596
4460.00,1.4641
4459.00,1.4685
4458.00,1.4730
4457.00,1.4776
4456.00,1.4822
4455.00,1.4866
4454.00,1.4907
4453.00,1.4945
4452.00,1.4981
4451.00,1.5018
4450.00,1.5054
4449.00,1.5092
4448.00,1.5131
4447.00,1.5169
4446.00,1.5207
4445.00,1.5243
4444.00,1.5279
4443.00,1.5313
4442.00,1.5345
4441.00,1.5375
4440.00,1.5405
4439.00,1.5435
4438.00,1.5465
4437.00,1.5495
4436.00,1.5525
4435.00,1.5555
4434.00,1.5583
4433.00,1.5611
4432.00,1.5637
4431.00,1.5662
4430.00,1.5685
4429.00,1.5707
4428.00,1.5728
4427.00,1.5749
4426.00,1.5769
4425.00,1.5789
4424.00,1.5809
4423.00,1.5828
4422.00,1.5847
4421.00,1.5866
4420.00,1.5884
4419.00,1.5901
4418.00,1.5918
4417.00,1.5936
4416.00,1.5953
4415.00,1.5968
4414.00,1.5982
4413.00,1.5994
4412.00,1.6006
4411.00,1.6018
4410.00,1.6030
4409.00,1.6043
4408.00,1.6055
4407.00,1.6065
4406.00,1.6073
4405.00,1.6079
4404.00,1.6085
4403.00,1.6092
4402.00,1.6099
4401.00,1.6105
4400.00,1.6110
4399.00,1.6114
4398.00,1.6116
4397.00,1.6118
4396.00,1.6121
4395.00,1.6123
4394.00,1.6124
4393.00,1.6126
4392.00,1.6127
4391.00,1.6127
4390.00,1.6127
4389.00,1.6126
4388.00,1.6124
4387.00,1.6121
4386.00,1.6118
4385.00,1.6114
4384.00,1.6108
4383.00,1.6101
4382.00,1.6094
4381.00,1.6088
4380.00,1.6084
4379.00,1.6081
4378.00,1.6076
4377.00,1.6068
4376.00,1.6057
4375.00,1.6044
4374.00,1.6030
4373.00,1.6017
4372.00,1.6005
4371.00,1.5994
4370.00,1.5983
4369.00,1.5970
4368.00,1.5956
4367.00,1.5942
4366.00,1.5927
4365.00,1.5913
4364.00,1.5897
4363.00,1.5879
4362.00,1.5859
4361.00,1.5837
4360.00,1.5814
4359.00,1.5791
4358.00,1.5768
4357.00,1.5747
4356.00,1.5726
4355.00,1.5705
4354.00,1.5683
4353.00,1.5658
4352.00,1.5632
4351.00,1.5604
4350.00,1.5575
4349.00,1.5548
4348.00,1.5520
4347.00,1.5492
4346.00,1.5463
4345.00,1.5433
4344.00,1.5400
4343.00,1.5366
4342.00,1.5330
4341.00,1.5295
4340.00,1.5261
4339.00,1.5226
4338.00,1.5190
4337.00,1.5153
4336.00,1.5115
4335.00,1.5076
4334.00,1.5036
4333.00,1.4996
4332.00,1.4955
4331.00,1.4913
4330.00,1.4869
4329.00,1.4825
4328.00,1.4778
4327.00,1.4730
4326.00,1.4680
4325.00,1.4629
4324.00,1.4578
4323.00,1.4528
4322.00,1.4478
4321.00,1.4429
4320.00,1.4380
4319.00,1.4330
4318.00,1.4278
4317.00,1.4224
4316.00,1.4168
4315.00,1.4111
4314.00,1.4054
4313.00,1.3997
4312.00,1.3939
4311.00,1.3881
4310.00,1.3820
4309.00,1.3758
4308.00,1.3696
4307.00,1.3633
4306.00,1.3570
4305.00,1.3506
4304.00,1.3440
4303.00,1.3373
4302.00,1.3305
4301.00,1.3235
4300.00,1.3164
4299.00,1.3090
4298.00,1.3016
4297.00,1.2942
4296.00,1.2868
4295.00,1.2794
4294.00,1.2720
4293.00,1.2645
4292.00,1.2569
4291.00,1.2493
4290.00,1.2416
4289.00,1.2337
4288.00,1.2257
4287.00,1.2177
4286.00,1.2096
4285.00,1.2016
4284.00,1.1934
4283.00,1.1851
4282.00,1.1767
4281.00,1.1682
4280.00,1.1596
4279.00,1.1510
4278.00,1.1423
4277.00,1.1334
4276.00,1.1244
4275.00,1.1153
4274.00,1.1061
4273.00,1.0968
4272.00,1.0874
4271.00,1.0780
4270.00,1.0684
4269.00,1.0589
4268.00,1.0493
4267.00,1.0396
4266.00,1.0299
4265.00,1.0201
4264.00,1.0103
4263.00,1.0004
4262.00,0.9906
4261.00,0.9806
4260.00,0.9707
4259.00,0.9607
4258.00,0.9506
4257.00,0.9407
4256.00,0.9307
4255.00,0.9208
4254.00,0.9110
4253.00,0.9013
4252.00,0.8916
4251.00,0.8821
4250.00,0.8727
4249.00,0.8635
4248.00,0.8545
4247.00,0.8455
4246.00,0.8368
4245.00,0.8283
4244.00,0.8201
4243.00,0.8121
4242.00,0.8044
4241.00,0.7970
4240.00,0.7899
4239.00,0.7830
4238.00,0.7766
4237.00,0.7706
4236.00,0.7650
4235.00,0.7598
4234.00,0.7550
4233.00,0.7506
4232.00,0.7467
4231.00,0.7432
4230.00,0.7402
4229.00,0.7376
4228.00,0.7355
4227.00,0.7339
4226.00,0.7327
4225.00,0.7320
4224.00,0.7317
4223.00,0.7317
4222.00,0.7322
4221.00,0.7331
4220.00,0.7345
4219.00,0.7362
4218.00,0.7382
4217.00,0.7407
4216.00,0.7434
4215.00,0.7465
4214.00,0.7500
4213.00,0.7537
4212.00,0.7577
4211.00,0.7621
4210.00,0.7668
4209.00,0.7719
4208.00,0.7773
4207.00,0.7830
4206.00,0.7890
4205.00,0.7953
4204.00,0.8018
4203.00,0.8086
4202.00,0.8157
4201.00,0.8230
4200.00,0.8306
4199.00,0.8385
4198.00,0.8466
4197.00,0.8548
4196.00,0.8633
4195.00,0.8719
4194.00,0.8808
4193.00,0.8898
4192.00,0.8989
4191.00,0.9082
4190.00,0.9176
4189.00,0.9271
4188.00,0.9366
4187.00,0.9462
4186.00,0.9559
4185.00,0.9657
4184.00,0.9755
4183.00,0.9854
4182.00,0.9952
4181.00,1.0050
4180.00,1.0148
4179.00,1.0246
4178.00,1.0345
4177.00,1.0444
4176.00,1.0544
4175.00,1.0644
4174.00,1.0744
4173.00,1.0844
4172.00,1.0943
4171.00,1.1041
4170.00,1.1139
4169.00,1.1237
4168.00,1.1335
4167.00,1.1433
4166.00,1.1530
4165.00,1.1627
4164.00,1.1723
4163.00,1.1818
4162.00,1.1914
4161.00,1.2010
4160.00,1.2105
4159.00,1.2199
4158.00,1.2292
4157.00,1.2383
4156.00,1.2474
4155.00,1.2565
4154.00,1.2656
4153.00,1.2746
4152.00,1.2835
4151.00,1.2922
4150.00,1.3008
4149.00,1.3093
4148.00,1.3176
4147.00,1.3259
4146.00,1.3341
4145.00,1.3423
4144.00,1.3504
4143.00,1.3584
4142.00,1.3663
4141.00,1.3741
4140.00,1.3820
4139.00,1.3897
4138.00,1.3973
4137.00,1.4047
4136.00,1.4120
4135.00,1.4192
4134.00,1.4263
4133.00,1.4333
4132.00,1.4401
4131.00,1.4469
4130.00,1.4537
4129.00,1.4605
4128.00,1.4673
4127.00,1.4738
4126.00,1.4801
4125.00,1.4862
4124.00,1.4922
4123.00,1.4982
4122.00,1.5042
4121.00,1.5102
4120.00,1.5161
4119.00,1.5218
4118.00,1.5275
4117.00,1.5331
4116.00,1.5387
4115.00,1.5441
4114.00,1.5494
4113.00,1.5545
4112.00,1.5596
4111.00,1.5647
4110.00,1.5698
4109.00,1.5748
4108.00,1.5796
4107.00,1.5842
4106.00,1.5888
4105.00,1.5935
4104.00,1.5981
4103.00,1.6026
4102.00,1.6069
4101.00,1.6110
4100.00,1.6150
4099.00,1.6189
4098.00,1.6227
4097.00,1.6265
4096.00,1.6304
4095.00,1.6342
4094.00,1.6379
4093.00,1.6416
4092.00,1.6452
4091.00,1.6486
4090.00,1.6518
4089.00,1.6549
4088.00,1.6581
4087.00,1.6614
4086.00,1.6647
4085.00,1.6680
4084.00,1.6709
4083.00,1.6737
4082.00,1.6763
4081.00,1.6791
4080.00,1.6818
4079.00,1.6845
4078.00,1.6872
4077.00,1.6898
4076.00,1.6924
4075.00,1.6950
4074.00,1.6974
4073.00,1.6995
4072.00,1.7014
4071.00,1.7032
4070.00,1.7051
4069.00,1.7069
4068.00,1.7087
4067.00,1.7105
4066.00,1.7125
4065.00,1.7145
4064.00,1.7165
4063.00,1.7183
4062.00,1.7197
4061.00,1.7210
4060.00,1.7222
4059.00,1.7235
4058.00,1.7249
4057.00,1.7261
4056.00,1.7272
4055.00,1.7281
4054.00,1.7289
4053.00,1.7298
4052.00,1.7307
4051.00,1.7316
4050.00,1.7326
4049.00,1.7334
4048.00,1.7340
4047.00,1.7344
4046.00,1.7347
4045.00,1.7350
4044.00,1.7354
4043.00,1.7358
4042.00,1.7360
4041.00,1.7360
4040.00,1.7361
4039.00,1.7362
4038.00,1.7363
4037.00,1.7362
4036.00,1.7360
4035.00,1.7356
4034.00,1.7352
4033.00,1.7349
4032.00,1.7347
4031.00,1.7344
4030.00,1.7340
4029.00,1.7335
4028.00,1.7330
4027.00,1.7324
4026.00,1.7315
4025.00,1.7302
4024.00,1.7288
4023.00,1.7274
4022.00,1.7262
4021.00,1.7254
4020.00,1.7247
4019.00,1.7238
4018.00,1.7226
4017.00,1.7211
4016.00,1.7195
4015.00,1.7179
4014.00,1.7163
4013.00,1.7147
4012.00,1.7131
4011.00,1.7114
4010.00,1.7095
4009.00,1.7075
4008.00,1.7053
4007.00,1.7030
4006.00,1.7006
4005.00,1.6981
4004.00,1.6955
4003.00,1.6929
4002.00,1.6903
4001.00,1.6878
4000.00,1.6853
3999.00,1.6826
3998.00,1.6798
3997.00,1.6769
3996.00,1.6740
3995.00,1.6712
3994.00,1.6681
3993.00,1.6649
3992.00,1.6616
3991.00,1.6584
3990.00,1.6551
3989.00,1.6516
3988.00,1.6480
3987.00,1.6443
3986.00,1.6406
3985.00,1.6368
3984.00,1.6330
3983.00,1.6289
3982.00,1.6246
3981.00,1.6203
3980.00,1.6160
3979.00,1.6118
3978.00,1.6075
3977.00,1.6032
3976.00,1.5988
3975.00,1.5943
3974.00,1.5896
3973.00,1.5848
3972.00,1.5798
3971.00,1.5747
3970.00,1.5696
3969.00,1.5644
3968.00,1.5590
3967.00,1.5536
3966.00,1.5481
3965.00,1.5426
3964.00,1.5371
3963.00,1.5315
3962.00,1.5256
3961.00,1.5195
3960.00,1.5132
3959.00,1.5067
3958.00,1.5003
3957.00,1.4940
3956.00,1.4878
3955.00,1.4817
3954.00,1.4754
3953.00,1.4688
3952.00,1.4619
3951.00,1.4549
3950.00,1.4477
3949.00,1.4406
3948.00,1.4335
3947.00,1.4262
3946.00,1.4187
3945.00,1.4111
3944.00,1.4033
3943.00,1.3955
3942.00,1.3874
3941.00,1.3792
3940.00,1.3707
3939.00,1.3622
3938.00,1.3535
3937.00,1.3447
3936.00,1.3356
3935.00,1.3263
3934.00,1.3169
3933.00,1.3074
3932.00,1.2979
3931.00,1.2883
3930.00,1.2786
3929.00,1.2688
3928.00,1.2589
3927.00,1.2489
3926.00,1.2385
3925.00,1.2279
3924.00,1.2171
3923.00,1.2062
3922.00,1.1952
3921.00,1.1842
3920.00,1.1730
3919.00,1.1617
3918.00,1.1501
3917.00,1.1385
3916.00,1.1268
3915.00,1.1150
3914.00,1.1031
3913.00,1.0911
3912.00,1.0791
3911.00,1.0669
3910.00,1.0547
3909.00,1.0424
3908.00,1.0303
3907.00,1.0184
3906.00,1.0065
3905.00,0.9946
3904.00,0.9825
3903.00,0.9703
3902.00,0.9582
3901.00,0.9463
3900.00,0.9345
3899.00,0.9228
3898.00,0.9113
3897.00,0.8998
3896.00,0.8885
3895.00,0.8777
3894.00,0.8673
3893.00,0.8571
3892.00,0.8471
3891.00,0.8371
3890.00,0.8275
3889.00,0.8186
3888.00,0.8104
3887.00,0.8027
3886.00,0.7954
3885.00,0.7882
3884.00,0.7812
3883.00,0.7748
3882.00,0.7691
3881.00,0.7642
3880.00,0.7598
3879.00,0.7556
3878.00,0.7519
3877.00,0.7490
3876.00,0.7469
3875.00,0.7456
3874.00,0.7447
3873.00,0.7442
3872.00,0.7442
3871.00,0.7450
3870.00,0.7465
3869.00,0.7484
3868.00,0.7505
3867.00,0.7531
3866.00,0.7566
3865.00,0.7612
3864.00,0.7663
3863.00,0.7714
3862.00,0.7767
3861.00,0.7825
3860.00,0.7891
3859.00,0.7961
3858.00,0.8034
3857.00,0.8111
3856.00,0.8193
3855.00,0.8285
3854.00,0.8384
3853.00,0.8485
3852.00,0.8583
3851.00,0.8676
3850.00,0.8767
3849.00,0.8863
3848.00,0.8961
3847.00,0.9057
3846.00,0.9153
3845.00,0.9254
3844.00,0.9359
3843.00,0.9469
3842.00,0.9581
3841.00,0.9693
3840.00,0.9807
3839.00,0.9926
3838.00,1.0049
3837.00,1.0174
3836.00,1.0297
3835.00,1.0417
3834.00,1.0537
3833.00,1.0659
3832.00,1.0782
3831.00,1.0905
3830.00,1.1024
3829.00,1.1142
3828.00,1.1259
3827.00,1.1377
3826.00,1.1496
3825.00,1.1612
3824.00,1.1724
3823.00,1.1835
3822.00,1.1952
3821.00,1.2077
3820.00,1.2205
3819.00,1.2326
3818.00,1.2442
3817.00,1.2559
3816.00,1.2682
3815.00,1.2803
3814.00,1.2916
3813.00,1.3025
3812.00,1.3132
3811.00,1.3240
3810.00,1.3342
3809.00,1.3438
3808.00,1.3535
3807.00,1.3637
3806.00,1.3743
3805.00,1.3848
3804.00,1.3949
3803.00,1.4050
3802.00,1.4154
3801.00,1.4259
3800.00,1.4359
3799.00,1.4450
3798.00,1.4539
3797.00,1.4635
3796.00,1.4732
3795.00,1.4825
3794.00,1.4912
3793.00,1.4997
3792.00,1.5082
3791.00,1.5166
3790.00,1.5246
3789.00,1.5325
3788.00,1.5402
3787.00,1.5481
3786.00,1.5559
3785.00,1.5637
3784.00,1.5713
3783.00,1.5786
3782.00,1.5857
3781.00,1.5929
3780.00,1.6001
3779.00,1.6072
3778.00,1.6143
3777.00,1.6213
3776.00,1.6283
3775.00,1.6352
3774.00,1.6419
3773.00,1.6481
3772.00,1.6540
3771.00,1.6598
3770.00,1.6660
3769.00,1.6724
3768.00,1.6786
3767.00,1.6846
3766.00,1.6905
3765.00,1.6963
3764.00,1.7020
3763.00,1.7072
3762.00,1.7122
3761.00,1.7173
3760.00,1.7223
3759.00,1.7271
3758.00,1.7317
3757.00,1.7366
3756.00,1.7415
3755.00,1.7463
3754.00,1.7509
3753.00,1.7554
3752.00,1.7598
3751.00,1.7642
3750.00,1.7685
3749.00,1.7729
3748.00,1.7772
3747.00,1.7813
3746.00,1.7852
3745.00,1.7891
3744.00,1.7931
3743.00,1.7970
3742.00,1.8008
3741.00,1.8046
3740.00,1.8086
3739.00,1.8123
3738.00,1.8152
3737.00,1.8177
3736.00,1.8201
3735.00,1.8226
3734.00,1.8257
3733.00,1.8292
3732.00,1.8329
3731.00,1.8363
3730.00,1.8390
3729.00,1.8412
3728.00,1.8432
3727.00,1.8453
3726.00,1.8476
3725.00,1.8501
3724.00,1.8526
3723.00,1.8550
3722.00,1.8574
3721.00,1.8596
3720.00,1.8615
3719.00,1.8636
3718.00,1.8658
3717.00,1.8679
3716.00,1.8699
3715.00,1.8716
3714.00,1.8735
3713.00,1.8754
3712.00,1.8771
3711.00,1.8783
3710.00,1.8793
3709.00,1.8804
3708.00,1.8817
3707.00,1.8831
3706.00,1.8846
3705.00,1.8859
3704.00,1.8870
3703.00,1.8878
3702.00,1.8884
3701.00,1.8888
3700.00,1.8890
3699.00,1.8896
3698.00,1.8905
3697.00,1.8914
3696.00,1.8921
3695.00,1.8923
3694.00,1.8924
3693.00,1.8925
3692.00,1.8928
3691.00,1.8933
3690.00,1.8938
3689.00,1.8944
3688.00,1.8947
3687.00,1.8944
3686.00,1.8941
3685.00,1.8941
3684.00,1.8942
3683.00,1.8942
3682.00,1.8937
3681.00,1.8929
3680.00,1.8919
3679.00,1.8908
3678.00,1.8896
3677.00,1.8882
3676.00,1.8864
3675.00,1.8844
3674.00,1.8827
3673.00,1.8815
3672.00,1.8809
3671.00,1.8805
3670.00,1.8797
3669.00,1.8783
3668.00,1.8765
3667.00,1.8749
3666.00,1.8737
3665.00,1.8725
3664.00,1.8705
3663.00,1.8681
3662.00,1.8657
3661.00,1.8634
3660.00,1.8611
3659.00,1.8586
3658.00,1.8557
3657.00,1.8527
3656.00,1.8495
3655.00,1.8463
3654.00,1.8434
3653.00,1.8407
3652.00,1.8380
3651.00,1.8352
3650.00,1.8318
3649.00,1.8279
3648.00,1.8238
3647.00,1.8201
3646.00,1.8172
3645.00,1.8149
3644.00,1.8126
3643.00,1.8096
3642.00,1.8059
3641.00,1.8017
3640.00,1.7972
3639.00,1.7928
3638.00,1.7885
3637.00,1.7842
3636.00,1.7798
3635.00,1.7753
3634.00,1.7709
3633.00,1.7666
3632.00,1.7621
3631.00,1.7574
3630.00,1.7524
3629.00,1.7475
3628.00,1.7428
3627.00,1.7384
3626.00,1.7343
3625.00,1.7303
3624.00,1.7262
3623.00,1.7214
3622.00,1.7161
3621.00,1.7107
3620.00,1.7053
3619.00,1.7000
3618.00,1.6950
3617.00,1.6899
3616.00,1.6847
3615.00,1.6793
3614.00,1.6737
3613.00,1.6680
3612.00,1.6620
3611.00,1.6558
3610.00,1.6493
3609.00,1.6426
3608.00,1.6358
3607.00,1.6289
3606.00,1.6223
3605.00,1.6160
3604.00,1.6096
3603.00,1.6029
3602.00,1.5958
3601.00,1.5882
3600.00,1.5804
3599.00,1.5726
3598.00,1.5647
3597.00,1.5568
3596.00,1.5487
3595.00,1.5404
3594.00,1.5321
3593.00,1.5239
3592.00,1.5159
3591.00,1.5079
3590.00,1.4996
3589.00,1.4908
3588.00,1.4817
3587.00,1.4724
3586.00,1.4633
3585.00,1.4544
3584.00,1.4453
3583.00,1.4358
3582.00,1.4259
3581.00,1.4156
3580.00,1.4049
3579.00,1.3942
3578.00,1.3835
3577.00,1.3729
3576.00,1.3621
3575.00,1.3512
3574.00,1.3401
3573.00,1.3288
3572.00,1.3174
3571.00,1.3060
3570.00,1.2944
3569.00,1.2825
3568.00,1.2704
3567.00,1.2580
3566.00,1.2457
3565.00,1.2335
3564.00,1.2213
3563.00,1.2090
3562.00,1.1965
3561.00,1.1839
3560.00,1.1711
3559.00,1.1585
3558.00,1.1459
3557.00,1.1335
3556.00,1.1210
3555.00,1.1086
3554.00,1.0963
3553.00,1.0840
3552.00,1.0718
3551.00,1.0598
3550.00,1.0481
3549.00,1.0366
3548.00,1.0255
3547.00,1.0145
3546.00,1.0038
3545.00,0.9933
3544.00,0.9832
3543.00,0.9734
3542.00,0.9641
3541.00,0.9552
3540.00,0.9468
3539.00,0.9389
3538.00,0.9314
3537.00,0.9245
3536.00,0.9181
3535.00,0.9123
3534.00,0.9071
3533.00,0.9026
3532.00,0.8988
3531.00,0.8956
3530.00,0.8930
3529.00,0.8910
3528.00,0.8897
3527.00,0.8889
3526.00,0.8888
3525.00,0.8895
3524.00,0.8908
3523.00,0.8928
3522.00,0.8955
3521.00,0.8988
3520.00,0.9025
3519.00,0.9068
3518.00,0.9117
3517.00,0.9170
3516.00,0.9228
3515.00,0.9292
3514.00,0.9360
3513.00,0.9433
3512.00,0.9510
3511.00,0.9591
3510.00,0.9676
3509.00,0.9765
3508.00,0.9857
3507.00,0.9952
3506.00,1.0049
3505.00,1.0150
3504.00,1.0253
3503.00,1.0358
3502.00,1.0466
3501.00,1.0576
3500.00,1.0689
3499.00,1.0803
3498.00,1.0919
3497.00,1.1036
3496.00,1.1155
3495.00,1.1275
3494.00,1.1396
3493.00,1.1519
3492.00,1.1642
3491.00,1.1766
3490.00,1.1891
3489.00,1.2017
3488.00,1.2144
3487.00,1.2272
3486.00,1.2399
3485.00,1.2525
3484.00,1.2651
3483.00,1.2777
3482.00,1.2904
3481.00,1.3031
3480.00,1.3158
3479.00,1.3284
3478.00,1.3409
3477.00,1.3534
3476.00,1.3657
3475.00,1.3779
3474.00,1.3900
3473.00,1.4022
3472.00,1.4144
3471.00,1.4265
3470.00,1.4385
3469.00,1.4503
3468.00,1.4619
3467.00,1.4733
3466.00,1.4847
3465.00,1.4960
3464.00,1.5072
3463.00,1.5181
3462.00,1.5289
3461.00,1.5397
3460.00,1.5506
3459.00,1.5615
3458.00,1.5722
3457.00,1.5828
3456.00,1.5931
3455.00,1.6030
3454.00,1.6127
3453.00,1.6224
3452.00,1.6321
3451.00,1.6418
3450.00,1.6514
3449.00,1.6608
3448.00,1.6699
3447.00,1.6788
3446.00,1.6877
3445.00,1.6966
3444.00,1.7054
3443.00,1.7139
3442.00,1.7222
3441.00,1.7305
3440.00,1.7388
3439.00,1.7470
3438.00,1.7551
3437.00,1.7631
3436.00,1.7709
3435.00,1.7784
3434.00,1.7857
3433.00,1.7927
3432.00,1.7997
3431.00,1.8066
3430.00,1.8136
3429.00,1.8206
3428.00,1.8276
3427.00,1.8344
3426.00,1.8410
3425.00,1.8475
3424.00,1.8540
3423.00,1.8605
3422.00,1.8669
3421.00,1.8732
3420.00,1.8792
3419.00,1.8849
3418.00,1.8905
3417.00,1.8958
3416.00,1.9009
3415.00,1.9059
3414.00,1.9110
3413.00,1.9161
3412.00,1.9210
3411.00,1.9256
3410.00,1.9297
3409.00,1.9335
3408.00,1.9369
3407.00,1.9403
3406.00,1.9437
3405.00,1.9471
3404.00,1.9502
3403.00,1.9531
3402.00,1.9558
3401.00,1.9584
3400.00,1.9610
3399.00,1.9639
3398.00,1.9669
3397.00,1.9699
3396.00,1.9726
3395.00,1.9752
3394.00,1.9777
3393.00,1.9805
3392.00,1.9835
3391.00,1.9866
3390.00,1.9897
3389.00,1.9928
3388.00,1.9957
3387.00,1.9984
3386.00,2.0010
3385.00,2.0036
3384.00,2.0059
3383.00,2.0080
3382.00,2.0102
3381.00,2.0125
3380.00,2.0151
3379.00,2.0177
3378.00,2.0203
3377.00,2.0227
3376.00,2.0251
3375.00,2.0274
3374.00,2.0294
3373.00,2.0313
3372.00,2.0329
3371.00,2.0345
3370.00,2.0362
3369.00,2.0380
3368.00,2.0395
3367.00,2.0406
3366.00,2.0416
3365.00,2.0427
3364.00,2.0440
3363.00,2.0455
3362.00,2.0469
3361.00,2.0482
3360.00,2.0492
3359.00,2.0499
3358.00,2.0504
3357.00,2.0506
3356.00,2.0509
3355.00,2.0514
3354.00,2.0522
3353.00,2.0533
3352.00,2.0543
3351.00,2.0549
3350.00,2.0553
3349.00,2.0554
3348.00,2.0554
3347.00,2.0553
3346.00,2.0553
3345.00,2.0554
3344.00,2.0557
3343.00,2.0559
3342.00,2.0559
3341.00,2.0558
3340.00,2.0558
3339.00,2.0560
3338.00,2.0563
3337.00,2.0562
3336.00,2.0555
3335.00,2.0541
3334.00,2.0527
3333.00,2.0515
3332.00,2.0507
3331.00,2.0502
3330.00,2.0497
3329.00,2.0489
3328.00,2.0481
3327.00,2.0474
3326.00,2.0467
3325.00,2.0461
3324.00,2.0452
3323.00,2.0442
3322.00,2.0430
3321.00,2.0415
3320.00,2.0398
3319.00,2.0380
3318.00,2.0363
3317.00,2.0349
3316.00,2.0337
3315.00,2.0323
3314.00,2.0307
3313.00,2.0286
3312.00,2.0264
3311.00,2.0242
3310.00,2.0221
3309.00,2.0201
3308.00,2.0181
3307.00,2.0161
3306.00,2.0139
3305.00,2.0114
3304.00,2.0086
3303.00,2.0055
3302.00,2.0023
3301.00,1.9992
3300.00,1.9961
3299.00,1.9930
3298.00,1.9898
3297.00,1.9865
3296.00,1.9831
3295.00,1.9796
3294.00,1.9760
3293.00,1.9725
3292.00,1.9689
3291.00,1.9652
3290.00,1.9613
3289.00,1.9571
3288.00,1.9527
3287.00,1.9483
3286.00,1.9439
3285.00,1.9393
3284.00,1.9347
3283.00,1.9300
3282.00,1.9252
3281.00,1.9204
3280.00,1.9154
3279.00,1.9104
3278.00,1.9054
3277.00,1.9006
3276.00,1.8958
3275.00,1.8908
3274.00,1.8854
3273.00,1.8797
3272.00,1.8738
3271.00,1.8678
3270.00,1.8617
3269.00,1.8556
3268.00,1.8495
3267.00,1.8431
3266.00,1.8365
3265.00,1.8295
3264.00,1.8225
3263.00,1.8156
3262.00,1.8088
3261.00,1.8020
3260.00,1.7951
3259.00,1.7879
3258.00,1.7805
3257.00,1.7727
3256.00,1.7646
3255.00,1.7563
3254.00,1.7481
3253.00,1.7399
3252.00,1.7318
3251.00,1.7234
3250.00,1.7148
3249.00,1.7059
3248.00,1.6970
3247.00,1.6880
3246.00,1.6790
3245.00,1.6698
3244.00,1.6603
3243.00,1.6504
3242.00,1.6404
3241.00,1.6302
3240.00,1.6198
3239.00,1.6093
3238.00,1.5987
3237.00,1.5879
3236.00,1.5769
3235.00,1.5657
3234.00,1.5543
3233.00,1.5427
3232.00,1.5309
3231.00,1.5189
3230.00,1.5069
3229.00,1.4946
3228.00,1.4821
3227.00,1.4694
3226.00,1.4565
3225.00,1.4432
3224.00,1.4297
3223.00,1.4161
3222.00,1.4023
3221.00,1.3883
3220.00,1.3742
3219.00,1.3600
3218.00,1.3457
3217.00,1.3312
3216.00,1.3165
3215.00,1.3017
3214.00,1.2867
3213.00,1.2716
3212.00,1.2564
3211.00,1.2412
3210.00,1.2259
3209.00,1.2106
3208.00,1.1953
3207.00,1.1800
3206.00,1.1647
3205.00,1.1495
3204.00,1.1345
3203.00,1.1195
3202.00,1.1047
3201.00,1.0902
3200.00,1.0759
3199.00,1.0620
3198.00,1.0484
3197.00,1.0353
3196.00,1.0226
3195.00,1.0105
3194.00,0.9990
3193.00,0.9882
3192.00,0.9780
3191.00,0.9685
3190.00,0.9598
3189.00,0.9520
3188.00,0.9450
3187.00,0.9388
3186.00,0.9336
3185.00,0.9294
3184.00,0.9262
3183.00,0.9240
3182.00,0.9227
3181.00,0.9225
3180.00,0.9232
3179.00,0.9250
3178.00,0.9277
3177.00,0.9314
3176.00,0.9360
3175.00,0.9414
3174.00,0.9477
3173.00,0.9549
3172.00,0.9628
3171.00,0.9714
3170.00,0.9807
3169.00,0.9906
3168.00,1.0012
3167.00,1.0123
3166.00,1.0239
3165.00,1.0360
3164.00,1.0486
3163.00,1.0617
3162.00,1.0752
3161.00,1.0889
3160.00,1.1030
3159.00,1.1173
3158.00,1.1319
3157.00,1.1467
3156.00,1.1618
3155.00,1.1771
3154.00,1.1924
3153.00,1.2079
3152.00,1.2234
3151.00,1.2391
3150.00,1.2548
3149.00,1.2706
3148.00,1.2864
3147.00,1.3022
3146.00,1.3181
3145.00,1.3339
3144.00,1.3498
3143.00,1.3655
3142.00,1.3811
3141.00,1.3966
3140.00,1.4120
3139.00,1.4273
3138.00,1.4426
3137.00,1.4577
3136.00,1.4727
3135.00,1.4875
3134.00,1.5023
3133.00,1.5170
3132.00,1.5315
3131.00,1.5457
3130.00,1.5597
3129.00,1.5735
3128.00,1.5871
3127.00,1.6006
3126.00,1.6140
3125.00,1.6272
3124.00,1.6400
3123.00,1.6526
3122.00,1.6649
3121.00,1.6772
3120.00,1.6895
3119.00,1.7019
3118.00,1.7142
3117.00,1.7262
3116.00,1.7378
3115.00,1.7491
3114.00,1.7600
3113.00,1.7708
3112.00,1.7815
3111.00,1.7922
3110.00,1.8028
3109.00,1.8132
3108.00,1.8233
3107.00,1.8333
3106.00,1.8431
3105.00,1.8528
3104.00,1.8623
3103.00,1.8716
3102.00,1.8809
3101.00,1.8902
3100.00,1.8993
3099.00,1.9083
3098.00,1.9171
3097.00,1.9256
3096.00,1.9337
3095.00,1.9417
3094.00,1.9497
3093.00,1.9579
3092.00,1.9660
3091.00,1.9738
3090.00,1.9813
3089.00,1.9885
3088.00,1.9954
3087.00,2.0024
3086.00,2.0095
3085.00,2.0164
3084.00,2.0231
3083.00,2.0295
3082.00,2.0359
3081.00,2.0423
3080.00,2.0485
3079.00,2.0545
3078.00,2.0605
3077.00,2.0664
3076.00,2.0722
3075.00,2.0778
3074.00,2.0836
3073.00,2.0894
3072.00,2.0951
3071.00,2.1003
3070.00,2.1051
3069.00,2.1098
3068.00,2.1148
3067.00,2.1200
3066.00,2.1250
3065.00,2.1298
3064.00,2.1342
3063.00,2.1384
3062.00,2.1426
3061.00,2.1469
3060.00,2.1514
3059.00,2.1557
3058.00,2.1598
3057.00,2.1632
3056.00,2.1661
3055.00,2.1689
3054.00,2.1718
3053.00,2.1749
3052.00,2.1780
3051.00,2.1811
3050.00,2.1842
3049.00,2.1874
3048.00,2.1902
3047.00,2.1927
3046.00,2.1950
3045.00,2.1975
3044.00,2.2000
3043.00,2.2024
3042.00,2.2047
3041.00,2.2070
3040.00,2.2090
3039.00,2.2108
3038.00,2.2124
3037.00,2.2138
3036.00,2.2150
3035.00,2.2161
3034.00,2.2172
3033.00,2.2182
3032.00,2.2192
3031.00,2.2202
3030.00,2.2212
3029.00,2.2219
3028.00,2.2224
3027.00,2.2227
3026.00,2.2233
3025.00,2.2242
3024.00,2.2249
3023.00,2.2251
3022.00,2.2250
3021.00,2.2247
3020.00,2.2242
3019.00,2.2235
3018.00,2.2226
3017.00,2.2217
3016.00,2.2209
3015.00,2.2198
3014.00,2.2184
3013.00,2.2164
3012.00,2.2139
3011.00,2.2111
3010.00,2.2083
3009.00,2.2055
3008.00,2.2028
3007.00,2.2000
3006.00,2.1974
3005.00,2.1947
3004.00,2.1915
3003.00,2.1875
3002.00,2.1831
3001.00,2.1783
3000.00,2.1729
2999.00,2.1670
2998.00,2.1607
2997.00,2.1541
2996.00,2.1475
2995.00,2.1407
2994.00,2.1334
2993.00,2.1255
2992.00,2.1171
2991.00,2.1084
2990.00,2.0996
2989.00,2.0905
2988.00,2.0809
2987.00,2.0704
2986.00,2.0592
2985.00,2.0479
2984.00,2.0369
2983.00,2.0264
2982.00,2.0163
2981.00,2.0065
2980.00,1.9972
2979.00,1.9890
2978.00,1.9827
2977.00,1.9790
2976.00,1.9786
2975.00,1.9822
2974.00,1.9902
2973.00,2.0030
2972.00,2.0209
2971.00,2.0440
2970.00,2.0724
2969.00,2.1062
2968.00,2.1447
2967.00,2.1872
2966.00,2.2329
2965.00,2.2810
2964.00,2.3307
2963.00,2.3810
2962.00,2.4308
2961.00,2.4792
2960.00,2.5257
2959.00,2.5695
2958.00,2.6102
2957.00,2.6475
2956.00,2.6819
2955.00,2.7143
2954.00,2.7450
2953.00,2.7743
2952.00,2.8026
2951.00,2.8317
2950.00,2.8631
2949.00,2.8965
2948.00,2.9299
2947.00,2.9625
2946.00,2.9955
2945.00,3.0303
2944.00,3.0665
2943.00,3.1010
2942.00,3.1290
2941.00,3.1478
2940.00,3.1588
2939.00,3.1664
2938.00,3.1736
2937.00,3.1792
2936.00,3.1803
2935.00,3.1755
2934.00,3.1660
2933.00,3.1525
2932.00,3.1344
2931.00,3.1101
2930.00,3.0785
2929.00,3.0400
2928.00,2.9970
2927.00,2.9528
2926.00,2.9108
2925.00,2.8721
2924.00,2.8361
2923.00,2.8012
2922.00,2.7666
2921.00,2.7329
2920.00,2.7015
2919.00,2.6733
2918.00,2.6474
2917.00,2.6224
2916.00,2.5980
2915.00,2.5754
2914.00,2.5558
2913.00,2.5391
2912.00,2.5245
2911.00,2.5111
2910.00,2.4989
2909.00,2.4877
2908.00,2.4773
2907.00,2.4676
2906.00,2.4586
2905.00,2.4500
2904.00,2.4415
2903.00,2.4330
2902.00,2.4245
2901.00,2.4160
2900.00,2.4073
2899.00,2.3984
2898.00,2.3895
2897.00,2.3802
2896.00,2.3706
2895.00,2.3610
2894.00,2.3517
2893.00,2.3429
2892.00,2.3339
2891.00,2.3244
2890.00,2.3145
2889.00,2.3046
2888.00,2.2950
2887.00,2.2856
2886.00,2.2765
2885.00,2.2678
2884.00,2.2598
2883.00,2.2527
2882.00,2.2471
2881.00,2.2431
2880.00,2.2409
2879.00,2.2405
2878.00,2.2422
2877.00,2.2464
2876.00,2.2535
2875.00,2.2640
2874.00,2.2785
2873.00,2.2976
2872.00,2.3216
2871.00,2.3504
2870.00,2.3837
2869.00,2.4205
2868.00,2.4594
2867.00,2.4985
2866.00,2.5361
2865.00,2.5699
2864.00,2.5977
2863.00,2.6185
2862.00,2.6314
2861.00,2.6358
2860.00,2.6310
2859.00,2.6181
2858.00,2.5995
2857.00,2.5774
2856.00,2.5528
2855.00,2.5264
2854.00,2.4984
2853.00,2.4692
2852.00,2.4392
2851.00,2.4095
2850.00,2.3813
2849.00,2.3547
2848.00,2.3293
2847.00,2.3045
2846.00,2.2802
2845.00,2.2566
2844.00,2.2340
2843.00,2.2122
2842.00,2.1911
2841.00,2.1704
2840.00,2.1502
2839.00,2.1303
2838.00,2.1108
2837.00,2.0918
2836.00,2.0731
2835.00,2.0549
2834.00,2.0371
2833.00,2.0199
2832.00,2.0035
2831.00,1.9881
2830.00,1.9737
2829.00,1.9600
2828.00,1.9465
2827.00,1.9326
2826.00,1.9182
2825.00,1.9032
2824.00,1.8875
2823.00,1.8710
2822.00,1.8536
2821.00,1.8352
2820.00,1.8158
2819.00,1.7955
2818.00,1.7744
2817.00,1.7526
2816.00,1.7300
2815.00,1.7068
2814.00,1.6831
2813.00,1.6591
2812.00,1.6348
2811.00,1.6104
2810.00,1.5858
2809.00,1.5608
2808.00,1.5355
2807.00,1.5099
2806.00,1.4843
2805.00,1.4589
2804.00,1.4338
2803.00,1.4094
2802.00,1.3859
2801.00,1.3635
2800.00,1.3425
2799.00,1.3227
2798.00,1.3038
2797.00,1.2855
2796.00,1.2673
2795.00,1.2489
2794.00,1.2300
2793.00,1.2107
2792.00,1.1912
2791.00,1.1719
2790.00,1.1535
2789.00,1.1363
2788.00,1.1209
2787.00,1.1074
2786.00,1.0961
2785.00,1.0872
2784.00,1.0806
2783.00,1.0765
2782.00,1.0747
2781.00,1.0752
2780.00,1.0778
2779.00,1.0823
2778.00,1.0886
2777.00,1.0964
2776.00,1.1056
2775.00,1.1160
2774.00,1.1276
2773.00,1.1403
2772.00,1.1542
2771.00,1.1692
2770.00,1.1851
2769.00,1.2019
2768.00,1.2193
2767.00,1.2373
2766.00,1.2558
2765.00,1.2747
2764.00,1.2938
2763.00,1.3129
2762.00,1.3319
2761.00,1.3507
2760.00,1.3695
2759.00,1.3883
2758.00,1.4069
2757.00,1.4255
2756.00,1.4442
2755.00,1.4632
2754.00,1.4824
2753.00,1.5019
2752.00,1.5214
2751.00,1.5411
2750.00,1.5607
2749.00,1.5802
2748.00,1.5995
2747.00,1.6187
2746.00,1.6378
2745.00,1.6566
2744.00,1.6751
2743.00,1.6934
2742.00,1.7115
2741.00,1.7293
2740.00,1.7466
2739.00,1.7634
2738.00,1.7796
2737.00,1.7954
2736.00,1.8111
2735.00,1.8265
2734.00,1.8417
2733.00,1.8567
2732.00,1.8712
2731.00,1.8853
2730.00,1.8992
2729.00,1.9128
2728.00,1.9261
2727.00,1.9389
2726.00,1.9514
2725.00,1.9638
2724.00,1.9762
2723.00,1.9884
2722.00,2.0005
2721.00,2.0124
2720.00,2.0243
2719.00,2.0360
2718.00,2.0474
2717.00,2.0583
2716.00,2.0685
2715.00,2.0782
2714.00,2.0876
2713.00,2.0969
2712.00,2.1066
2711.00,2.1164
2710.00,2.1263
2709.00,2.1359
2708.00,2.1452
2707.00,2.1541
2706.00,2.1627
2705.00,2.1709
2704.00,2.1788
2703.00,2.1866
2702.00,2.1944
2701.00,2.2025
2700.00,2.2107
2699.00,2.2188
2698.00,2.2266
2697.00,2.2337
2696.00,2.2401
2695.00,2.2463
2694.00,2.2529
2693.00,2.2601
2692.00,2.2675
2691.00,2.2746
2690.00,2.2812
2689.00,2.2874
2688.00,2.2933
2687.00,2.2996
2686.00,2.3065
2685.00,2.3137
2684.00,2.3204
2683.00,2.3263
2682.00,2.3317
2681.00,2.3371
2680.00,2.3423
2679.00,2.3469
2678.00,2.3507
2677.00,2.3541
2676.00,2.3576
2675.00,2.3611
2674.00,2.3648
2673.00,2.3686
2672.00,2.3724
2671.00,2.3761
2670.00,2.3797
2669.00,2.3831
2668.00,2.3866
2667.00,2.3899
2666.00,2.3932
2665.00,2.3965
2664.00,2.3997
2663.00,2.4025
2662.00,2.4051
2661.00,2.4078
2660.00,2.4106
2659.00,2.4134
2658.00,2.4161
2657.00,2.4188
2656.00,2.4216
2655.00,2.4245
2654.00,2.4271
2653.00,2.4293
2652.00,2.4315
2651.00,2.4341
2650.00,2.4372
2649.00,2.4406
2648.00,2.4437
2647.00,2.4463
2646.00,2.4487
2645.00,2.4508
2644.00,2.4523
2643.00,2.4531
2642.00,2.4538
2641.00,2.4550
2640.00,2.4570
2639.00,2.4593
2638.00,2.4612
2637.00,2.4626
2636.00,2.4637
2635.00,2.4649
2634.00,2.4664
2633.00,2.4680
2632.00,2.4689
2631.00,2.4691
2630.00,2.4691
2629.00,2.4696
2628.00,2.4710
2627.00,2.4728
2626.00,2.4740
2625.00,2.4740
2624.00,2.4729
2623.00,2.4715
2622.00,2.4710
2621.00,2.4719
2620.00,2.4739
2619.00,2.4759
2618.00,2.4771
2617.00,2.4774
2616.00,2.4773
2615.00,2.4772
2614.00,2.4771
2613.00,2.4766
2612.00,2.4757
2611.00,2.4748
2610.00,2.4743
2609.00,2.4741
2608.00,2.4740
2607.00,2.4736
2606.00,2.4729
2605.00,2.4718
2604.00,2.4705
2603.00,2.4692
2602.00,2.4686
2601.00,2.4686
2600.00,2.4686
2599.00,2.4678
2598.00,2.4659
2597.00,2.4633
2596.00,2.4604
2595.00,2.4579
2594.00,2.4555
2593.00,2.4533
2592.00,2.4511
2591.00,2.4495
2590.00,2.4484
2589.00,2.4474
2588.00,2.4457
2587.00,2.4433
2586.00,2.4405
2585.00,2.4378
2584.00,2.4350
2583.00,2.4321
2582.00,2.4292
2581.00,2.4263
2580.00,2.4232
2579.00,2.4199
2578.00,2.4170
2577.00,2.4147
2576.00,2.4125
2575.00,2.4096
2574.00,2.4058
2573.00,2.4012
2572.00,2.3966
2571.00,2.3923
2570.00,2.3883
2569.00,2.3845
2568.00,2.3805
2567.00,2.3765
2566.00,2.3730
2565.00,2.3700
2564.00,2.3671
2563.00,2.3637
2562.00,2.3596
2561.00,2.3549
2560.00,2.3499
2559.00,2.3446
2558.00,2.3391
2557.00,2.3337
2556.00,2.3286
2555.00,2.3236
2554.00,2.3182
2553.00,2.3123
2552.00,2.3060
2551.00,2.2998
2550.00,2.2937
2549.00,2.2877
2548.00,2.2817
2547.00,2.2756
2546.00,2.2690
2545.00,2.2620
2544.00,2.2548
2543.00,2.2478
2542.00,2.2411
2541.00,2.2345
2540.00,2.2277
2539.00,2.2207
2538.00,2.2133
2537.00,2.2057
2536.00,2.1977
2535.00,2.1895
2534.00,2.1812
2533.00,2.1732
2532.00,2.1651
2531.00,2.1569
2530.00,2.1483
2529.00,2.1393
2528.00,2.1300
2527.00,2.1208
2526.00,2.1116
2525.00,2.1024
2524.00,2.0930
2523.00,2.0833
2522.00,2.0730
2521.00,2.0622
2520.00,2.0510
2519.00,2.0396
2518.00,2.0282
2517.00,2.0167
2516.00,2.0051
2515.00,1.9931
2514.00,1.9809
2513.00,1.9683
2512.00,1.9554
2511.00,1.9420
2510.00,1.9282
2509.00,1.9140
2508.00,1.8995
2507.00,1.8850
2506.00,1.8704
2505.00,1.8556
2504.00,1.8405
2503.00,1.8248
2502.00,1.8086
2501.00,1.7920
2500.00,1.7749
2499.00,1.7575
2498.00,1.7398
2497.00,1.7219
2496.00,1.7036
2495.00,1.6849
2494.00,1.6658
2493.00,1.6464
2492.00,1.6268
2491.00,1.6070
2490.00,1.5868
2489.00,1.5661
2488.00,1.5450
2487.00,1.5236
2486.00,1.5020
2485.00,1.4803
2484.00,1.4586
2483.00,1.4368
2482.00,1.4149
2481.00,1.3930
2480.00,1.3710
2479.00,1.3491
2478.00,1.3273
2477.00,1.3059
2476.00,1.2848
2475.00,1.2645
2474.00,1.2448
2473.00,1.2260
2472.00,1.2083
2471.00,1.1918
2470.00,1.1765
2469.00,1.1624
2468.00,1.1497
2467.00,1.1382
2466.00,1.1280
2465.00,1.1191
2464.00,1.1114
2463.00,1.1052
2462.00,1.1003
2461.00,1.0971
2460.00,1.0955
2459.00,1.0957
2458.00,1.0977
2457.00,1.1015
2456.00,1.1072
2455.00,1.1144
2454.00,1.1233
2453.00,1.1336
2452.00,1.1452
2451.00,1.1580
2450.00,1.1718
2449.00,1.1865
2448.00,1.2021
2447.00,1.2184
2446.00,1.2355
2445.00,1.2533
2444.00,1.2717
2443.00,1.2907
2442.00,1.3101
2441.00,1.3300
2440.00,1.3501
2439.00,1.3706
2438.00,1.3913
2437.00,1.4124
2436.00,1.4337
2435.00,1.4552
2434.00,1.4769
2433.00,1.4986
2432.00,1.5205
2431.00,1.5423
2430.00,1.5639
2429.00,1.5852
2428.00,1.6062
2427.00,1.6268
2426.00,1.6472
2425.00,1.6673
2424.00,1.6871
2423.00,1.7067
2422.00,1.7260
2421.00,1.7451
2420.00,1.7639
2419.00,1.7824
2418.00,1.8006
2417.00,1.8185
2416.00,1.8360
2415.00,1.8532
2414.00,1.8703
2413.00,1.8873
2412.00,1.9042
2411.00,1.9206
2410.00,1.9367
2409.00,1.9525
2408.00,1.9680
2407.00,1.9833
2406.00,1.9983
2405.00,2.0132
2404.00,2.0279
2403.00,2.0426
2402.00,2.0572
2401.00,2.0716
2400.00,2.0856
2399.00,2.0989
2398.00,2.1118
2397.00,2.1243
2396.00,2.1367
2395.00,2.1489
2394.00,2.1609
2393.00,2.1730
2392.00,2.1851
2391.00,2.1970
2390.00,2.2085
2389.00,2.2196
2388.00,2.2304
2387.00,2.2407
2386.00,2.2505
2385.00,2.2599
2384.00,2.2691
2383.00,2.2782
2382.00,2.2868
2381.00,2.2949
2380.00,2.3025
2379.00,2.3101
2378.00,2.3180
2377.00,2.3258
2376.00,2.3335
2375.00,2.3413
2374.00,2.3498
2373.00,2.3586
2372.00,2.3672
2371.00,2.3753
2370.00,2.3827
2369.00,2.3897
2368.00,2.3968
2367.00,2.4042
2366.00,2.4120
2365.00,2.4195
2364.00,2.4255
2363.00,2.4300
2362.00,2.4349
2361.00,2.4419
2360.00,2.4505
2359.00,2.4589
2358.00,2.4661
2357.00,2.4728
2356.00,2.4801
2355.00,2.4875
2354.00,2.4944
2353.00,2.5006
2352.00,2.5063
2351.00,2.5116
2350.00,2.5169
2349.00,2.5223
2348.00,2.5267
2347.00,2.5293
2346.00,2.5305
2345.00,2.5321
2344.00,2.5364
2343.00,2.5433
2342.00,2.5515
2341.00,2.5586
2340.00,2.5640
2339.00,2.5685
2338.00,2.5731
2337.00,2.5782
2336.00,2.5833
2335.00,2.5881
2334.00,2.5919
2333.00,2.5947
2332.00,2.5967
2331.00,2.5993
2330.00,2.6031
2329.00,2.6084
2328.00,2.6137
2327.00,2.6182
2326.00,2.6216
2325.00,2.6244
2324.00,2.6268
2323.00,2.6284
2322.00,2.6298
2321.00,2.6320
2320.00,2.6356
2319.00,2.6400
2318.00,2.6443
2317.00,2.6482
2316.00,2.6517
2315.00,2.6551
2314.00,2.6578
2313.00,2.6599
2312.00,2.6619
2311.00,2.6648
2310.00,2.6683
2309.00,2.6718
2308.00,2.6744
2307.00,2.6763
2306.00,2.6779
2305.00,2.6798
2304.00,2.6814
2303.00,2.6822
2302.00,2.6822
2301.00,2.6824
2300.00,2.6838
2299.00,2.6864
2298.00,2.6889
2297.00,2.6907
2296.00,2.6922
2295.00,2.6943
2294.00,2.6972
2293.00,2.6999
2292.00,2.7017
2291.00,2.7024
2290.00,2.7025
2289.00,2.7025
2288.00,2.7032
2287.00,2.7047
2286.00,2.7063
2285.00,2.7074
2284.00,2.7081
2283.00,2.7089
2282.00,2.7098
2281.00,2.7103
2280.00,2.7107
2279.00,2.7115
2278.00,2.7126
2277.00,2.7131
2276.00,2.7126
2275.00,2.7112
2274.00,2.7094
2273.00,2.7075
2272.00,2.7059
2271.00,2.7052
2270.00,2.7050
2269.00,2.7051
2268.00,2.7053
2267.00,2.7057
2266.00,2.7062
2265.00,2.7059
2264.00,2.7046
2263.00,2.7031
2262.00,2.7016
2261.00,2.6996
2260.00,2.6971
2259.00,2.6955
2258.00,2.6957
2257.00,2.6971
2256.00,2.6978
2255.00,2.6964
2254.00,2.6937
2253.00,2.6907
2252.00,2.6881
2251.00,2.6860
2250.00,2.6840
2249.00,2.6821
2248.00,2.6802
2247.00,2.6781
2246.00,2.6757
2245.00,2.6727
2244.00,2.6695
2243.00,2.6670
2242.00,2.6651
2241.00,2.6634
2240.00,2.6613
2239.00,2.6589
2238.00,2.6564
2237.00,2.6533
2236.00,2.6490
2235.00,2.6441
2234.00,2.6398
2233.00,2.6364
2232.00,2.6335
2231.00,2.6303
2230.00,2.6265
2229.00,2.6226
2228.00,2.6191
2227.00,2.6167
2226.00,2.6153
2225.00,2.6136
2224.00,2.6103
2223.00,2.6049
2222.00,2.5983
2221.00,2.5918
2220.00,2.5859
2219.00,2.5807
2218.00,2.5760
2217.00,2.5719
2216.00,2.5680
2215.00,2.5638
2214.00,2.5590
2213.00,2.5534
2212.00,2.5475
2211.00,2.5418
2210.00,2.5364
2209.00,2.5309
2208.00,2.5252
2207.00,2.5193
2206.00,2.5131
2205.00,2.5064
2204.00,2.4989
2203.00,2.4913
2202.00,2.4841
2201.00,2.4774
2200.00,2.4705
2199.00,2.4633
2198.00,2.4559
2197.00,2.4485
2196.00,2.4409
2195.00,2.4331
2194.00,2.4253
2193.00,2.4175
2192.00,2.4095
2191.00,2.4012
2190.00,2.3927
2189.00,2.3839
2188.00,2.3748
2187.00,2.3651
2186.00,2.3551
2185.00,2.3448
2184.00,2.3345
2183.00,2.3244
2182.00,2.3149
2181.00,2.3056
2180.00,2.2962
2179.00,2.2864
2178.00,2.2764
2177.00,2.2662
2176.00,2.2559
2175.00,2.2453
2174.00,2.2345
2173.00,2.2233
2172.00,2.2117
2171.00,2.1995
2170.00,2.1866
2169.00,2.1732
2168.00,2.1593
2167.00,2.1451
2166.00,2.1308
2165.00,2.1164
2164.00,2.1015
2163.00,2.0858
2162.00,2.0695
2161.00,2.0529
2160.00,2.0360
2159.00,2.0189
2158.00,2.0012
2157.00,1.9830
2156.00,1.9643
2155.00,1.9452
2154.00,1.9257
2153.00,1.9058
2152.00,1.8855
2151.00,1.8647
2150.00,1.8435
2149.00,1.8219
2148.00,1.8000
2147.00,1.7777
2146.00,1.7549
2145.00,1.7316
2144.00,1.7079
2143.00,1.6839
2142.00,1.6597
2141.00,1.6354
2140.00,1.6113
2139.00,1.5872
2138.00,1.5632
2137.00,1.5395
2136.00,1.5161
2135.00,1.4932
2134.00,1.4706
2133.00,1.4485
2132.00,1.4268
2131.00,1.4055
2130.00,1.3847
2129.00,1.3645
2128.00,1.3451
2127.00,1.3267
2126.00,1.3096
2125.00,1.2941
2124.00,1.2804
2123.00,1.2689
2122.00,1.2596
2121.00,1.2529
2120.00,1.2486
2119.00,1.2470
2118.00,1.2477
2117.00,1.2508
2116.00,1.2563
2115.00,1.2639
2114.00,1.2735
2113.00,1.2849
2112.00,1.2981
2111.00,1.3131
2110.00,1.3295
2109.00,1.3475
2108.00,1.3669
2107.00,1.3874
2106.00,1.4088
2105.00,1.4310
2104.00,1.4539
2103.00,1.4773
2102.00,1.5012
2101.00,1.5252
2100.00,1.5494
2099.00,1.5735
2098.00,1.5975
2097.00,1.6215
2096.00,1.6454
2095.00,1.6690
2094.00,1.6926
2093.00,1.7159
2092.00,1.7389
2091.00,1.7617
2090.00,1.7844
2089.00,1.8070
2088.00,1.8295
2087.00,1.8518
2086.00,1.8738
2085.00,1.8956
2084.00,1.9172
2083.00,1.9386
2082.00,1.9597
2081.00,1.9808
2080.00,2.0018
2079.00,2.0225
2078.00,2.0429
2077.00,2.0630
2076.00,2.0830
2075.00,2.1030
2074.00,2.1228
2073.00,2.1419
2072.00,2.1601
2071.00,2.1775
2070.00,2.1946
2069.00,2.2114
2068.00,2.2277
2067.00,2.2432
2066.00,2.2582
2065.00,2.2729
2064.00,2.2873
2063.00,2.3009
2062.00,2.3137
2061.00,2.3258
2060.00,2.3374
2059.00,2.3487
2058.00,2.3601
2057.00,2.3716
2056.00,2.3832
2055.00,2.3951
2054.00,2.4071
2053.00,2.4190
2052.00,2.4307
2051.00,2.4420
2050.00,2.4533
2049.00,2.4649
2048.00,2.4767
2047.00,2.4889
2046.00,2.5012
2045.00,2.5129
2044.00,2.5234
2043.00,2.5325
2042.00,2.5405
2041.00,2.5486
2040.00,2.5577
2039.00,2.5683
2038.00,2.5800
2037.00,2.5916
2036.00,2.6017
2035.00,2.6103
2034.00,2.6179
2033.00,2.6256
2032.00,2.6333
2031.00,2.6413
2030.00,2.6497
2029.00,2.6589
2028.00,2.6685
2027.00,2.6778
2026.00,2.6865
2025.00,2.6942
2024.00,2.7009
2023.00,2.7067
2022.00,2.7124
2021.00,2.7188
2020.00,2.7262
2019.00,2.7341
2018.00,2.7412
2017.00,2.7466
2016.00,2.7509
2015.00,2.7551
2014.00,2.7605
2013.00,2.7667
2012.00,2.7729
2011.00,2.7786
2010.00,2.7839
2009.00,2.7889
2008.00,2.7936
2007.00,2.7984
2006.00,2.8030
2005.00,2.8070
2004.00,2.8103
2003.00,2.8136
2002.00,2.8183
2001.00,2.8246
2000.00,2.8311
1999.00,2.8363
1998.00,2.8402
1997.00,2.8438
1996.00,2.8483
1995.00,2.8540
1994.00,2.8600
1993.00,2.8650
1992.00,2.8685
1991.00,2.8708
1990.00,2.8729
1989.00,2.8751
1988.00,2.8782
1987.00,2.8827
1986.00,2.8882
1985.00,2.8927
1984.00,2.8948
1983.00,2.8951
1982.00,2.8965
1981.00,2.9006
1980.00,2.9065
1979.00,2.9120
1978.00,2.9162
1977.00,2.9195
1976.00,2.9227
1975.00,2.9260
1974.00,2.9292
1973.00,2.9319
1972.00,2.9342
1971.00,2.9359
1970.00,2.9369
1969.00,2.9373
1968.00,2.9379
1967.00,2.9397
1966.00,2.9431
1965.00,2.9463
1964.00,2.9477
1963.00,2.9470
1962.00,2.9461
1961.00,2.9466
1960.00,2.9490
1959.00,2.9521
1958.00,2.9546
1957.00,2.9559
1956.00,2.9568
1955.00,2.9588
1954.00,2.9625
1953.00,2.9667
1952.00,2.9698
1951.00,2.9707
1950.00,2.9695
1949.00,2.9667
1948.00,2.9638
1947.00,2.9622
1946.00,2.9620
1945.00,2.9616
1944.00,2.9596
1943.00,2.9570
1942.00,2.9558
1941.00,2.9560
1940.00,2.9567
1939.00,2.9576
1938.00,2.9598
1937.00,2.9633
1936.00,2.9663
1935.00,2.9668
1934.00,2.9653
1933.00,2.9634
1932.00,2.9624
1931.00,2.9617
1930.00,2.9603
1929.00,2.9585
1928.00,2.9572
1927.00,2.9573
1926.00,2.9575
1925.00,2.9561
1924.00,2.9528
1923.00,2.9498
1922.00,2.9480
1921.00,2.9458
1920.00,2.9420
1919.00,2.9388
1918.00,2.9396
1917.00,2.9436
1916.00,2.9454
1915.00,2.9419
1914.00,2.9356
1913.00,2.9309
1912.00,2.9298
1911.00,2.9312
1910.00,2.9328
1909.00,2.9327
1908.00,2.9300
1907.00,2.9254
1906.00,2.9206
1905.00,2.9171
1904.00,2.9147
1903.00,2.9122
1902.00,2.9091
1901.00,2.9052
1900.00,2.9011
1899.00,2.8976
1898.00,2.8944
1897.00,2.8907
1896.00,2.8858
1895.00,2.8802
1894.00,2.8743
1893.00,2.8683
1892.00,2.8621
1891.00,2.8567
1890.00,2.8534
1889.00,2.8515
1888.00,2.8488
1887.00,2.8436
1886.00,2.8367
1885.00,2.8298
1884.00,2.8235
1883.00,2.8173
1882.00,2.8112
1881.00,2.8057
1880.00,2.8010
1879.00,2.7961
1878.00,2.7901
1877.00,2.7829
1876.00,2.7756
1875.00,2.7689
1874.00,2.7627
1873.00,2.7562
1872.00,2.7489
1871.00,2.7413
1870.00,2.7347
1869.00,2.7299
1868.00,2.7260
1867.00,2.7209
1866.00,2.7128
1865.00,2.7022
1864.00,2.6909
1863.00,2.6803
1862.00,2.6700
1861.00,2.6595
1860.00,2.6488
1859.00,2.6383
1858.00,2.6274
1857.00,2.6152
1856.00,2.6018
1855.00,2.5881
1854.00,2.5748
1853.00,2.5617
1852.00,2.5481
1851.00,2.5339
1850.00,2.5192
1849.00,2.5047
1848.00,2.4909
1847.00,2.4771
1846.00,2.4619
1845.00,2.4456
1844.00,2.4301
1843.00,2.4164
1842.00,2.4019
1841.00,2.3835
1840.00,2.3617
1839.00,2.3394
1838.00,2.3182
1837.00,2.2978
1836.00,2.2770
1835.00,2.2556
1834.00,2.2338
1833.00,2.2112
1832.00,2.1875
1831.00,2.1632
1830.00,2.1397
1829.00,2.1173
1828.00,2.0938
1827.00,2.0666
1826.00,2.0366
1825.00,2.0071
1824.00,1.9796
1823.00,1.9518
1822.00,1.9215
1821.00,1.8894
1820.00,1.8584
1819.00,1.8299
1818.00,1.8039
1817.00,1.7806
1816.00,1.7604
1815.00,1.7434
1814.00,1.7295
1813.00,1.7194
1812.00,1.7142
1811.00,1.7140
1810.00,1.7173
1809.00,1.7216
1808.00,1.7248
1807.00,1.7256
1806.00,1.7235
1805.00,1.7184
1804.00,1.7105
1803.00,1.7011
1802.00,1.6917
1801.00,1.6842
1800.00,1.6795
1799.00,1.6776
1798.00,1.6790
1797.00,1.6850
1796.00,1.6967
1795.00,1.7139
1794.00,1.7366
1793.00,1.7665
1792.00,1.8048
1791.00,1.8487
1790.00,1.8924
1789.00,1.9322
1788.00,1.9692
1787.00,2.0069
1786.00,2.0476
1785.00,2.0920
1784.00,2.1385
1783.00,2.1837
1782.00,2.2260
1781.00,2.2668
1780.00,2.3085
1779.00,2.3499
1778.00,2.3889
1777.00,2.4252
1776.00,2.4603
1775.00,2.4943
1774.00,2.5267
1773.00,2.5600
1772.00,2.5969
1771.00,2.6343
1770.00,2.6661
1769.00,2.6905
1768.00,2.7110
1767.00,2.7299
1766.00,2.7458
1765.00,2.7573
1764.00,2.7664
1763.00,2.7783
1762.00,2.7973
1761.00,2.8232
1760.00,2.8502
1759.00,2.8724
1758.00,2.8911
1757.00,2.9123
1756.00,2.9385
1755.00,2.9649
1754.00,2.9860
1753.00,3.0036
1752.00,3.0230
1751.00,3.0464
1750.00,3.0708
1749.00,3.0919
1748.00,3.1080
1747.00,3.1211
1746.00,3.1344
1745.00,3.1497
1744.00,3.1655
1743.00,3.1785
1742.00,3.1893
1741.00,3.2018
1740.00,3.2180
1739.00,3.2345
1738.00,3.2468
1737.00,3.2537
1736.00,3.2585
1735.00,3.2647
1734.00,3.2739
1733.00,3.2865
1732.00,3.2998
1731.00,3.3134
1730.00,3.3346
1729.00,3.3691
1728.00,3.4191
1727.00,3.4891
1726.00,3.5911
1725.00,3.7373
1724.00,3.9344
1723.00,4.1768
1722.00,4.4944
1721.00,4.9320
1720.00,4.7797
1719.00,4.5389
1718.00,4.5255
1717.00,4.5996
1716.00,4.7596
1715.00,4.9777
1714.00,5.0928
1713.00,5.0979
1712.00,5.1755
1711.00,5.3260
1710.00,5.1394
1709.00,4.7985
1708.00,4.6231
1707.00,4.6110
1706.00,4.7225
1705.00,4.8630
1704.00,4.9258
1703.00,5.0033
1702.00,4.7220
1701.00,4.2491
1700.00,3.9206
1699.00,3.7147
1698.00,3.5825
1697.00,3.4843
1696.00,3.4015
1695.00,3.3288
1694.00,3.2630
1693.00,3.1965
1692.00,3.1245
1691.00,3.0492
1690.00,2.9740
1689.00,2.9015
1688.00,2.8329
1687.00,2.7657
1686.00,2.6947
1685.00,2.6173
1684.00,2.5416
1683.00,2.4800
1682.00,2.4310
1681.00,2.3869
1680.00,2.3483
1679.00,2.3184
1678.00,2.2959
1677.00,2.2767
1676.00,2.2590
1675.00,2.2430
1674.00,2.2279
1673.00,2.2099
1672.00,2.1882
1671.00,2.1683
1670.00,2.1560
1669.00,2.1518
1668.00,2.1524
1667.00,2.1541
1666.00,2.1566
1665.00,2.1639
1664.00,2.1803
1663.00,2.2086
1662.00,2.2473
1661.00,2.2900
1660.00,2.3314
1659.00,2.3705
1658.00,2.4085
1657.00,2.4450
1656.00,2.4787
1655.00,2.5102
1654.00,2.5449
1653.00,2.5892
1652.00,2.6386
1651.00,2.6748
1650.00,2.6902
1649.00,2.6995
1648.00,2.7156
1647.00,2.7382
1646.00,2.7636
1645.00,2.7872
1644.00,2.8060
1643.00,2.8215
1642.00,2.8377
1641.00,2.8556
1640.00,2.8726
1639.00,2.8862
1638.00,2.8971
1637.00,2.9087
1636.00,2.9244
1635.00,2.9437
1634.00,2.9611
1633.00,2.9712
1632.00,2.9747
1631.00,2.9772
1630.00,2.9814
1629.00,2.9872
1628.00,2.9944
1627.00,3.0025
1626.00,3.0103
1625.00,3.0179
1624.00,3.0273
1623.00,3.0399
1622.00,3.0539
1621.00,3.0656
1620.00,3.0725
1619.00,3.0751
1618.00,3.0761
1617.00,3.0792
1616.00,3.0870
1615.00,3.0982
1614.00,3.1077
1613.00,3.1143
1612.00,3.1205
1611.00,3.1281
1610.00,3.1367
1609.00,3.1446
1608.00,3.1506
1607.00,3.1549
1606.00,3.1589
1605.00,3.1637
1604.00,3.1684
1603.00,3.1709
1602.00,3.1717
1601.00,3.1742
1600.00,3.1805
1599.00,3.1886
1598.00,3.1953
1597.00,3.2003
1596.00,3.2062
1595.00,3.2142
1594.00,3.2229
1593.00,3.2309
1592.00,3.2391
1591.00,3.2481
1590.00,3.2553
1589.00,3.2568
1588.00,3.2531
1587.00,3.2486
1586.00,3.2473
1585.00,3.2488
1584.00,3.2506
1583.00,3.2506
1582.00,3.2496
1581.00,3.2503
1580.00,3.2535
1579.00,3.2563
1578.00,3.2554
1577.00,3.2510
1576.00,3.2485
1575.00,3.2534
1574.00,3.2630
1573.00,3.2697
1572.00,3.2698
1571.00,3.2651
1570.00,3.2608
1569.00,3.2604
1568.00,3.2614
1567.00,3.2586
1566.00,3.2531
1565.00,3.2520
1564.00,3.2607
1563.00,3.2768
1562.00,3.2926
1561.00,3.3016
1560.00,3.3032
1559.00,3.3042
1558.00,3.3081
1557.00,3.3077
1556.00,3.2978
1555.00,3.2851
1554.00,3.2794
1553.00,3.2811
1552.00,3.2839
1551.00,3.2848
1550.00,3.2862
1549.00,3.2887
1548.00,3.2898
1547.00,3.2891
1546.00,3.2900
1545.00,3.2948
1544.00,3.2996
1543.00,3.2982
1542.00,3.2892
1541.00,3.2764
1540.00,3.2644
1539.00,3.2570
1538.00,3.2550
1537.00,3.2540
1536.00,3.2524
1535.00,3.2531
1534.00,3.2571
1533.00,3.2620
1532.00,3.2618
1531.00,3.2523
1530.00,3.2368
1529.00,3.2224
1528.00,3.2134
1527.00,3.2106
1526.00,3.2123
1525.00,3.2162
1524.00,3.2195
1523.00,3.2214
1522.00,3.2234
1521.00,3.2268
1520.00,3.2293
1519.00,3.2286
1518.00,3.2275
1517.00,3.2310
1516.00,3.2370
1515.00,3.2375
1514.00,3.2287
1513.00,3.2146
1512.00,3.2010
1511.00,3.1899
1510.00,3.1790
1509.00,3.1665
1508.00,3.1530
1507.00,3.1427
1506.00,3.1397
1505.00,3.1421
1504.00,3.1408
1503.00,3.1335
1502.00,3.1272
1501.00,3.1242
1500.00,3.1206
1499.00,3.1131
1498.00,3.1017
1497.00,3.0895
1496.00,3.0789
1495.00,3.0702
1494.00,3.0615
1493.00,3.0519
1492.00,3.0421
1491.00,3.0331
1490.00,3.0261
1489.00,3.0209
1488.00,3.0154
1487.00,3.0086
1486.00,3.0000
1485.00,2.9886
1484.00,2.9740
1483.00,2.9575
1482.00,2.9414
1481.00,2.9281
1480.00,2.9166
1479.00,2.9042
1478.00,2.8893
1477.00,2.8725
1476.00,2.8546
1475.00,2.8354
1474.00,2.8150
1473.00,2.7953
1472.00,2.7789
1471.00,2.7651
1470.00,2.7508
1469.00,2.7355
1468.00,2.7226
1467.00,2.7163
1466.00,2.7186
1465.00,2.7289
1464.00,2.7418
1463.00,2.7482
1462.00,2.7432
1461.00,2.7293
1460.00,2.7134
1459.00,2.7033
1458.00,2.7078
1457.00,2.7363
1456.00,2.7914
1455.00,2.8628
1454.00,2.9409
1453.00,3.0302
1452.00,3.1344
1451.00,3.2401
1450.00,3.3232
1449.00,3.3646
1448.00,3.3605
1447.00,3.3197
1446.00,3.2585
1445.00,3.1908
1444.00,3.1226
1443.00,3.0559
1442.00,2.9923
1441.00,2.9333
1440.00,2.8797
1439.00,2.8338
1438.00,2.8008
1437.00,2.7861
1436.00,2.7908
1435.00,2.8080
1434.00,2.8306
1433.00,2.8591
1432.00,2.8953
1431.00,2.9344
1430.00,2.9681
1429.00,2.9912
1428.00,3.0033
1427.00,3.0068
1426.00,3.0068
1425.00,3.0103
1424.00,3.0206
1423.00,3.0338
1422.00,3.0437
1421.00,3.0463
1420.00,3.0403
1419.00,3.0256
1418.00,3.0029
1417.00,2.9712
1416.00,2.9293
1415.00,2.8795
1414.00,2.8264
1413.00,2.7736
1412.00,2.7213
1411.00,2.6692
1410.00,2.6176
1409.00,2.5665
1408.00,2.5153
1407.00,2.4642
1406.00,2.4150
1405.00,2.3681
1404.00,2.3228
1403.00,2.2781
1402.00,2.2338
1401.00,2.1913
1400.00,2.1524
1399.00,2.1181
1398.00,2.0879
1397.00,2.0599
1396.00,2.0345
1395.00,2.0142
1394.00,2.0007
1393.00,1.9929
1392.00,1.9891
1391.00,1.9900
1390.00,1.9976
1389.00,2.0132
1388.00,2.0366
1387.00,2.0665
1386.00,2.0995
1385.00,2.1321
1384.00,2.1636
1383.00,2.1959
1382.00,2.2305
1381.00,2.2667
1380.00,2.3034
1379.00,2.3407
1378.00,2.3780
1377.00,2.4142
1376.00,2.4494
1375.00,2.4856
1374.00,2.5236
1373.00,2.5623
1372.00,2.5997
1371.00,2.6352
1370.00,2.6700
1369.00,2.7052
1368.00,2.7409
1367.00,2.7761
1366.00,2.8090
1365.00,2.8392
1364.00,2.8681
1363.00,2.8973
1362.00,2.9261
1361.00,2.9525
1360.00,2.9762
1359.00,3.0000
1358.00,3.0273
1357.00,3.0606
1356.00,3.1008
1355.00,3.1456
1354.00,3.1896
1353.00,3.2273
1352.00,3.2578
1351.00,3.2867
1350.00,3.3188
1349.00,3.3518
1348.00,3.3750
1347.00,3.3764
1346.00,3.3554
1345.00,3.3258
1344.00,3.3037
1343.00,3.2979
1342.00,3.3074
1341.00,3.3248
1340.00,3.3382
1339.00,3.3356
1338.00,3.3113
1337.00,3.2695
1336.00,3.2209
1335.00,3.1767
1334.00,3.1458
1333.00,3.1338
1332.00,3.1419
1331.00,3.1657
1330.00,3.1967
1329.00,3.2268
1328.00,3.2526
1327.00,3.2751
1326.00,3.2963
1325.00,3.3190
1324.00,3.3462
1323.00,3.3803
1322.00,3.4204
1321.00,3.4610
1320.00,3.4944
1319.00,3.5189
1318.00,3.5404
1317.00,3.5657
1316.00,3.5950
1315.00,3.6216
1314.00,3.6389
1313.00,3.6475
1312.00,3.6485
1311.00,3.6323
1310.00,3.5848
1309.00,3.5084
1308.00,3.4228
1307.00,3.3467
1306.00,3.2887
1305.00,3.2499
1304.00,3.2280
1303.00,3.2198
1302.00,3.2217
1301.00,3.2306
1300.00,3.2443
1299.00,3.2613
1298.00,3.2799
1297.00,3.2979
1296.00,3.3139
1295.00,3.3285
1294.00,3.3440
1293.00,3.3623
1292.00,3.3824
1291.00,3.4013
1290.00,3.4175
1289.00,3.4315
1288.00,3.4433
1287.00,3.4524
1286.00,3.4612
1285.00,3.4735
1284.00,3.4890
1283.00,3.5010
1282.00,3.5042
1281.00,3.5024
1280.00,3.5042
1279.00,3.5129
1278.00,3.5260
1277.00,3.5414
1276.00,3.5604
1275.00,3.5830
1274.00,3.6031
1273.00,3.6098
1272.00,3.5991
1271.00,3.5796
1270.00,3.5647
1269.00,3.5631
1268.00,3.5762
1267.00,3.6004
1266.00,3.6278
1265.00,3.6466
1264.00,3.6497
1263.00,3.6414
1262.00,3.6316
1261.00,3.6290
1260.00,3.6313
1259.00,3.6247
1258.00,3.6028
1257.00,3.5790
1256.00,3.5720
1255.00,3.5885
1254.00,3.6197
1253.00,3.6480
1252.00,3.6602
1251.00,3.6577
1250.00,3.6548
1249.00,3.6657
1248.00,3.6880
1247.00,3.7011
1246.00,3.6877
1245.00,3.6574
1244.00,3.6342
1243.00,3.6337
1242.00,3.6578
1241.00,3.6965
1240.00,3.7302
1239.00,3.7369
1238.00,3.7128
1237.00,3.6864
1236.00,3.6860
1235.00,3.7065
1234.00,3.7217
1233.00,3.7213
1232.00,3.7144
1231.00,3.7126
1230.00,3.7238
1229.00,3.7496
1228.00,3.7853
1227.00,3.8214
1226.00,3.8501
1225.00,3.8742
1224.00,3.9001
1223.00,3.9204
1222.00,3.9174
1221.00,3.8908
1220.00,3.8609
1219.00,3.8377
1218.00,3.8117
1217.00,3.7779
1216.00,3.7485
1215.00,3.7362
1214.00,3.7402
1213.00,3.7463
1212.00,3.7434
1211.00,3.7373
1210.00,3.7391
1209.00,3.7489
1208.00,3.7495
1207.00,3.7239
1206.00,3.6820
1205.00,3.6538
1204.00,3.6608
1203.00,3.7023
1202.00,3.7550
1201.00,3.7871
1200.00,3.7847
1199.00,3.7654
1198.00,3.7533
1197.00,3.7562
1196.00,3.7733
1195.00,3.8026
1194.00,3.8349
1193.00,3.8527
1192.00,3.8468
1191.00,3.8286
1190.00,3.8132
1189.00,3.8015
1188.00,3.7856
1187.00,3.7683
1186.00,3.7620
1185.00,3.7730
1184.00,3.8028
1183.00,3.8444
1182.00,3.8798
1181.00,3.8955
1180.00,3.8880
1179.00,3.8674
1178.00,3.8454
1177.00,3.8250
1176.00,3.8046
1175.00,3.7803
1174.00,3.7564
1173.00,3.7413
1172.00,3.7292
1171.00,3.7115
1170.00,3.6977
1169.00,3.6963
1168.00,3.6991
1167.00,3.6982
1166.00,3.6956
1165.00,3.6935
1164.00,3.6863
1163.00,3.6685
1162.00,3.6497
1161.00,3.6508
1160.00,3.6836
1159.00,3.7322
1158.00,3.7584
1157.00,3.7473
1156.00,3.7299
1155.00,3.7324
1154.00,3.7507
1153.00,3.7664
1152.00,3.7632
1151.00,3.7491
1150.00,3.7488
1149.00,3.7665
1148.00,3.7887
1147.00,3.8029
1146.00,3.8000
1145.00,3.7706
1144.00,3.7160
1143.00,3.6652
1142.00,3.6508
1141.00,3.6786
1140.00,3.7223
1139.00,3.7376
1138.00,3.7008
1137.00,3.6347
1136.00,3.5781
1135.00,3.5514
1134.00,3.5518
1133.00,3.5589
1132.00,3.5494
1131.00,3.5254
1130.00,3.5064
1129.00,3.5001
1128.00,3.5019
1127.00,3.5113
1126.00,3.5367
1125.00,3.5823
1124.00,3.6400
1123.00,3.7034
1122.00,3.7817
1121.00,3.8843
1120.00,3.9901
1119.00,4.0482
1118.00,4.0433
1117.00,4.0121
1116.00,3.9750
1115.00,3.9339
1114.00,3.9086
1113.00,3.9215
1112.00,3.9544
1111.00,3.9527
1110.00,3.9006
1109.00,3.8496
1108.00,3.8337
1107.00,3.8288
1106.00,3.7996
1105.00,3.7607
1104.00,3.7431
1103.00,3.7398
1102.00,3.7173
1101.00,3.6626
1100.00,3.6016
1099.00,3.5659
1098.00,3.5634
1097.00,3.5838
1096.00,3.6112
1095.00,3.6296
1094.00,3.6272
1093.00,3.6049
1092.00,3.5787
1091.00,3.5624
1090.00,3.5571
1089.00,3.5574
1088.00,3.5572
1087.00,3.5505
1086.00,3.5376
1085.00,3.5202
1084.00,3.4928
1083.00,3.4549
1082.00,3.4190
1081.00,3.3964
1080.00,3.3860
1079.00,3.3780
1078.00,3.3658
1077.00,3.3518
1076.00,3.3398
1075.00,3.3302
1074.00,3.3232
1073.00,3.3200
1072.00,3.3161
1071.00,3.3001
1070.00,3.2683
1069.00,3.2326
1068.00,3.2068
1067.00,3.1934
1066.00,3.1864
1065.00,3.1802
1064.00,3.1727
1063.00,3.1638
1062.00,3.1551
1061.00,3.1509
1060.00,3.1544
1059.00,3.1648
1058.00,3.1784
1057.00,3.1951
1056.00,3.2189
1055.00,3.2525
1054.00,3.2943
1053.00,3.3399
1052.00,3.3804
1051.00,3.3970
1050.00,3.3739
1049.00,3.3187
1048.00,3.2529
1047.00,3.1901
1046.00,3.1352
1045.00,3.0909
1044.00,3.0571
1043.00,3.0289
1042.00,2.9995
1041.00,2.9679
1040.00,2.9394
1039.00,2.9191
1038.00,2.9087
1037.00,2.9069
1036.00,2.9120
1035.00,2.9217
1034.00,2.9341
1033.00,2.9504
1032.00,2.9735
1031.00,3.0035
1030.00,3.0352
1029.00,3.0642
1028.00,3.0940
1027.00,3.1311
1026.00,3.1772
1025.00,3.2285
1024.00,3.2847
1023.00,3.3508
1022.00,3.4303
1021.00,3.5181
1020.00,3.6022
1019.00,3.6634
1018.00,3.6738
1017.00,3.6249
1016.00,3.5457
1015.00,3.4706
1014.00,3.4139
1013.00,3.3766
1012.00,3.3574
1011.00,3.3555
1010.00,3.3688
1009.00,3.3963
1008.00,3.4396
1007.00,3.4988
1006.00,3.5661
1005.00,3.6221
1004.00,3.6551
1003.00,3.6782
1002.00,3.7073
1001.00,3.7494
1000.00,3.8152
999.00,3.9285
998.00,4.1094
997.00,4.2783
996.00,4.2429
995.00,4.1127
994.00,4.0008
993.00,3.9465
992.00,3.9482
991.00,3.9842
990.00,4.0222
989.00,4.0412
988.00,4.0400
987.00,4.0299
986.00,4.0362
985.00,4.0708
984.00,4.1393
983.00,4.2434
982.00,4.3090
981.00,4.3173
980.00,4.3953
979.00,4.4813
978.00,4.4979
977.00,4.5602
976.00,4.6228
975.00,4.6691
974.00,4.6864
973.00,4.6936
972.00,4.6717
971.00,4.5959
970.00,4.6472
969.00,4.9248
968.00,4.7358
967.00,4.4272
966.00,4.2633
965.00,4.1905
964.00,4.2112
963.00,4.3565
962.00,4.6400
961.00,4.6169
960.00,4.5116
959.00,4.6378
958.00,4.8967
957.00,4.4272
956.00,4.1744
955.00,4.0835
954.00,4.1113
953.00,4.2422
952.00,4.4179
951.00,4.4656
950.00,4.3903
949.00,4.3763
948.00,4.4433
947.00,4.5025
946.00,4.4569
945.00,4.3477
944.00,4.2585
943.00,4.2249
942.00,4.2545
941.00,4.3186
940.00,4.3777
939.00,4.4859
938.00,4.6916
937.00,4.9052
936.00,4.9611
935.00,4.8097
934.00,4.8489
933.00,4.9930
932.00,4.7554
931.00,4.6394
930.00,4.5434
929.00,4.3770
928.00,4.3126
927.00,4.3821
926.00,4.5170
925.00,4.5771
924.00,4.7708
923.00,5.6254
922.00,4.6906
921.00,4.5751
920.00,4.5475
919.00,4.4511
918.00,4.3940
917.00,4.4954
916.00,4.8621
915.00,5.2482
914.00,4.8963
913.00,4.5678
912.00,4.3350
911.00,4.2364
910.00,4.3237
909.00,4.5649
908.00,4.3666
907.00,4.2148
906.00,4.2631
905.00,4.4431
904.00,4.7229
903.00,4.7796
902.00,4.3312
901.00,4.1489
900.00,4.1435
899.00,4.2407
898.00,4.3581
897.00,4.5912
896.00,4.9854
895.00,4.5928
894.00,4.4795
893.00,4.5651
892.00,4.7624
891.00,4.7450
890.00,4.6010
889.00,4.4374
888.00,4.1751
887.00,3.9866
886.00,3.9197
885.00,3.9695
884.00,4.1151
883.00,4.2592
882.00,4.2400
881.00,4.1050
880.00,3.9907
879.00,3.9434
878.00,3.9729
877.00,4.0893
876.00,4.2937
875.00,4.5358
874.00,4.5783
873.00,4.3419
872.00,4.1633
871.00,4.0840
870.00,4.0875
869.00,4.1730
868.00,4.2924
867.00,4.2839
866.00,4.2217
865.00,4.2551
864.00,4.3742
863.00,4.4561
862.00,4.3702
861.00,4.2425
860.00,4.1828
859.00,4.1898
858.00,4.2188
857.00,4.2363
856.00,4.2385
855.00,4.2246
854.00,4.2380
853.00,4.3584
852.00,4.6152
851.00,4.6556
850.00,4.6038
849.00,4.8004
848.00,4.5485
847.00,4.2314
846.00,4.0951
845.00,4.0418
844.00,4.0435
843.00,4.1038
842.00,4.1905
841.00,4.2290
840.00,4.2246
839.00,4.2679
838.00,4.4045
837.00,4.4835
836.00,4.3615
835.00,4.1496
834.00,3.9709
833.00,3.9137
832.00,3.9687
831.00,4.0768
830.00,4.1647
829.00,4.1887
828.00,4.2185
827.00,4.2446
826.00,4.3014
825.00,4.3993
824.00,4.2075
823.00,4.0685
822.00,4.0827
821.00,4.2292
820.00,4.5316
819.00,4.5165
818.00,4.3102
817.00,4.2489
816.00,4.1881
815.00,4.0781
814.00,3.9684
813.00,3.8834
812.00,3.8464
811.00,3.8755
810.00,3.9734
809.00,4.1115
808.00,4.2320
807.00,4.3024
806.00,4.3092
805.00,4.2582
804.00,4.2218
803.00,4.2341
802.00,4.2245
801.00,4.1983
800.00,4.2447
799.00,4.2371
798.00,4.1020
797.00,4.0098
796.00,3.9808
795.00,3.9965
794.00,4.0423
793.00,4.0705
792.00,4.0461
791.00,4.0112
790.00,4.0138
789.00,4.0486
788.00,4.0748
787.00,4.0604
786.00,4.0210
785.00,3.9917
784.00,3.9936
783.00,4.0320
782.00,4.0958
781.00,4.1388
780.00,4.0971
779.00,4.0011
778.00,3.9348
777.00,3.9425
776.00,4.0452
775.00,4.2464
774.00,4.4387
773.00,4.4048
772.00,4.2110
771.00,4.0283
770.00,3.9179
769.00,3.8673
768.00,3.8526
767.00,3.8651
766.00,3.8974
765.00,3.9410
764.00,3.9839
763.00,4.0145
762.00,4.0496
761.00,4.1051
760.00,4.1364
759.00,4.0697
758.00,3.9563
757.00,3.9011
756.00,3.9492
755.00,4.1515
754.00,4.5225
753.00,4.8232
752.00,4.5080
751.00,4.0549
750.00,3.8612
749.00,3.8236
748.00,3.8671
747.00,3.9108
746.00,3.8959
745.00,3.8954
744.00,3.9628
743.00,4.0931
742.00,4.1790
741.00,4.0728
740.00,3.8951
739.00,3.7702
738.00,3.7215
737.00,3.7445
736.00,3.8225
735.00,3.9292
734.00,4.0310
733.00,4.0737
732.00,4.0212
731.00,3.9400
730.00,3.8904
729.00,3.8735
728.00,3.8733
727.00,3.8848
726.00,3.9132
725.00,3.9515
724.00,3.9819
723.00,4.0062
722.00,4.0359
721.00,4.0344
720.00,3.9727
719.00,3.9208
718.00,3.9139
717.00,3.9130
716.00,3.8840
715.00,3.8336
714.00,3.7774
713.00,3.7308
712.00,3.7099
711.00,3.7161
710.00,3.7326
709.00,3.7359
708.00,3.7165
707.00,3.6940
706.00,3.6932
705.00,3.7229
704.00,3.7805
703.00,3.8501
702.00,3.9114
701.00,3.9580
700.00,3.9973
699.00,4.0586
698.00,4.1519
697.00,4.1934
696.00,4.1446
695.00,4.0756
694.00,3.9903
693.00,3.8971
692.00,3.8379
691.00,3.8404
690.00,3.9078
689.00,3.9795
688.00,3.9649
687.00,3.9138
686.00,3.8980
685.00,3.9104
684.00,3.9063
683.00,3.8846
682.00,3.8865
681.00,3.8910
680.00,3.8775
679.00,3.9009
678.00,3.9748
677.00,3.9989
676.00,3.9263
675.00,3.8562
674.00,3.8360
673.00,3.8348
672.00,3.8081
671.00,3.7822
670.00,3.7859
669.00,3.7811
668.00,3.7493
667.00,3.7260
666.00,3.7248
665.00,3.7388
664.00,3.7707
663.00,3.8304
662.00,3.9267
661.00,4.0587
660.00,4.1913
659.00,4.2926
658.00,4.2431
657.00,4.0259
656.00,3.8733
655.00,3.8248
654.00,3.8530
653.00,3.9257
652.00,4.0085
651.00,4.0631
650.00,4.0068
649.00,3.9211
648.00,3.9241
647.00,4.0377
646.00,4.2421
645.00,4.3977
644.00,4.3822
643.00,4.2387
642.00,4.0511
641.00,3.9353
640.00,3.8878
639.00,3.8654
638.00,3.8569
637.00,3.8878
636.00,3.9938
635.00,4.1513
634.00,4.2741
633.00,4.3647
632.00,4.3619
631.00,4.1928
630.00,4.0135
629.00,3.9117
628.00,3.8952
627.00,3.9466
626.00,3.9996
625.00,3.9572
624.00,3.8782
623.00,3.8594
622.00,3.9399
621.00,4.0619
620.00,4.0446
619.00,3.9735
618.00,3.9652
617.00,3.9860
616.00,3.9922
615.00,3.9618
614.00,3.8953
613.00,3.8151
612.00,3.7563
611.00,3.7345
610.00,3.7460
609.00,3.7804
608.00,3.8202
607.00,3.8387
606.00,3.8319
605.00,3.8312
604.00,3.8845
603.00,3.9864
602.00,4.0232
601.00,4.0004
600.00,3.9585
599.00,3.8364
598.00,3.6926
597.00,3.5981
596.00,3.5697
595.00,3.5979
594.00,3.6299
593.00,3.6218
592.00,3.6205
591.00,3.6804
590.00,3.8007
589.00,3.9240
588.00,3.9662
587.00,3.9641
586.00,3.9662
585.00,3.8862
584.00,3.7843
583.00,3.7830
582.00,3.8650
581.00,3.9182
580.00,3.8625
579.00,3.7488
578.00,3.7175
577.00,3.8142
576.00,4.1123
575.00,4.5173
574.00,4.1952
573.00,4.0086
572.00,3.9397
571.00,3.8900
570.00,3.8773
569.00,3.9104
568.00,3.9980
567.00,4.0200
566.00,3.9650
565.00,3.8718
564.00,3.7867
563.00,3.7884
562.00,3.9089
561.00,4.1469
560.00,4.4292
559.00,4.5482
558.00,4.4513
557.00,4.2792
556.00,4.0429
555.00,3.8649
554.00,3.7980
553.00,3.9102
552.00,4.1089
551.00,3.8978
550.00,3.6717
549.00,3.5571
548.00,3.5052
547.00,3.5131
546.00,3.5642
545.00,3.6495
544.00,3.7571
543.00,3.8804
542.00,4.0406
541.00,4.1716
540.00,4.0815
539.00,4.0073
538.00,3.8953
537.00,3.7371
536.00,3.6755
535.00,3.7991
534.00,4.0443
533.00,4.0098
532.00,3.8718
531.00,3.6398
530.00,3.4529
529.00,3.4187
528.00,3.5249
527.00,3.7772
526.00,4.0336
525.00,3.9498
524.00,3.7872
523.00,3.7187
522.00,3.6810
521.00,3.6536
520.00,3.7185
519.00,3.8701
518.00,3.9009
517.00,3.8501
516.00,3.8317
515.00,3.7436
514.00,3.6134
513.00,3.5256
512.00,3.4995
511.00,3.4817
510.00,3.4492
509.00,3.4546
508.00,3.5208
507.00,3.6537
506.00,3.6322
505.00,3.4835
504.00,3.4763
503.00,3.6656
502.00,3.9006
501.00,3.8276
500.00,3.8014
499.00,3.7136
498.00,3.5132
497.00,3.4013
496.00,3.3748
495.00,3.4205
494.00,3.5271
493.00,3.6888
492.00,3.8281
491.00,4.1443
490.00,4.2483
489.00,3.6977
488.00,3.4879
487.00,3.3656
486.00,3.2682
485.00,3.2656
484.00,3.3706
483.00,3.4361
482.00,3.3379
481.00,3.2734
480.00,3.2798
479.00,3.3205
478.00,3.3718
477.00,3.4091
476.00,3.4199
475.00,3.3655
474.00,3.2554
473.00,3.1734
472.00,3.1557
471.00,3.1653
470.00,3.1422
469.00,3.0872
468.00,3.0642
467.00,3.1190
466.00,3.2738
465.00,3.5077
464.00,3.7873
463.00,3.8049
462.00,3.4910
461.00,3.3048
460.00,3.1724
459.00,3.0505
458.00,2.9798
457.00,2.9683
456.00,3.0062
455.00,3.0635
454.00,3.1062
453.00,3.1107
452.00,3.0882
451.00,3.0771
450.00,3.0864
449.00,3.0809
448.00,3.0447
447.00,3.0098
446.00,3.0085
445.00,3.0344
444.00,3.0452
443.00,3.0315
442.00,3.0404
441.00,3.1216
440.00,3.2695
439.00,3.3832
438.00,3.3562
437.00,3.2389
436.00,3.1276
435.00,3.0360
434.00,2.9593
433.00,2.9203
432.00,2.9363
431.00,2.9856
430.00,2.9941
429.00,2.9260
428.00,2.8502
427.00,2.8193
426.00,2.8278
425.00,2.8402
424.00,2.8320
423.00,2.8102
422.00,2.7882
421.00,2.7684
420.00,2.7473
419.00,2.7322
418.00,2.7326
417.00,2.7356
416.00,2.7288
415.00,2.7301
414.00,2.7684
413.00,2.8370
412.00,2.8876
411.00,2.8728
410.00,2.7856
409.00,2.6853
408.00,2.6183
407.00,2.5873
406.00,2.5817
405.00,2.5852
404.00,2.5901
403.00,2.5939
402.00,2.6000
401.00,2.5702
400.00,2.4953
