Created as New Dataset,Sample 177 By Administrator Date Friday, November 26 2021
cm-1,A
7000.00,1.1664
6999.00,1.1643
6998.00,1.1619
6997.00,1.1597
6996.00,1.1578
6995.00,1.1562
6994.00,1.1545
6993.00,1.1525
6992.00,1.1503
6991.00,1.1482
6990.00,1.1460
6989.00,1.1435
6988.00,1.1405
6987.00,1.1375
6986.00,1.1348
6985.00,1.1324
6984.00,1.1299
6983.00,1.1271
6982.00,1.1242
6981.00,1.1212
6980.00,1.1182
6979.00,1.1151
6978.00,1.1120
6977.00,1.1090
6976.00,1.1061
6975.00,1.1032
6974.00,1.1006
6973.00,1.0982
6972.00,1.0956
6971.00,1.0924
6970.00,1.0887
6969.00,1.0849
6968.00,1.0815
6967.00,1.0784
6966.00,1.0753
6965.00,1.0723
6964.00,1.0694
6963.00,1.0664
6962.00,1.0630
6961.00,1.0593
6960.00,1.0555
6959.00,1.0517
6958.00,1.0480
6957.00,1.0444
6956.00,1.0407
6955.00,1.0372
6954.00,1.0339
6953.00,1.0306
6952.00,1.0270
6951.00,1.0231
6950.00,1.0192
6949.00,1.0153
6948.00,1.0116
6947.00,1.0077
6946.00,1.0037
6945.00,0.9997
6944.00,0.9959
6943.00,0.9921
6942.00,0.9884
6941.00,0.9846
6940.00,0.9806
6939.00,0.9765
6938.00,0.9722
6937.00,0.9680
6936.00,0.9639
6935.00,0.9600
6934.00,0.9561
6933.00,0.9524
6932.00,0.9486
6931.00,0.9449
6930.00,0.9411
6929.00,0.9371
6928.00,0.9330
6927.00,0.9290
6926.00,0.9252
6925.00,0.9214
6924.00,0.9176
6923.00,0.9139
6922.00,0.9101
6921.00,0.9062
6920.00,0.9020
6919.00,0.8978
6918.00,0.8937
6917.00,0.8898
6916.00,0.8861
6915.00,0.8824
6914.00,0.8789
6913.00,0.8753
6912.00,0.8716
6911.00,0.8679
6910.00,0.8642
6909.00,0.8606
6908.00,0.8570
6907.00,0.8536
6906.00,0.8504
6905.00,0.8472
6904.00,0.8440
6903.00,0.8405
6902.00,0.8369
6901.00,0.8334
6900.00,0.8299
6899.00,0.8266
6898.00,0.8234
6897.00,0.8204
6896.00,0.8175
6895.00,0.8148
6894.00,0.8120
6893.00,0.8093
6892.00,0.8066
6891.00,0.8038
6890.00,0.8009
6889.00,0.7981
6888.00,0.7952
6887.00,0.7925
6886.00,0.7899
6885.00,0.7875
6884.00,0.7852
6883.00,0.7830
6882.00,0.7809
6881.00,0.7787
6880.00,0.7767
6879.00,0.7747
6878.00,0.7728
6877.00,0.7709
6876.00,0.7691
6875.00,0.7674
6874.00,0.7659
6873.00,0.7645
6872.00,0.7630
6871.00,0.7616
6870.00,0.7603
6869.00,0.7591
6868.00,0.7580
6867.00,0.7569
6866.00,0.7560
6865.00,0.7551
6864.00,0.7542
6863.00,0.7534
6862.00,0.7528
6861.00,0.7524
6860.00,0.7520
6859.00,0.7516
6858.00,0.7513
6857.00,0.7514
6856.00,0.7516
6855.00,0.7518
6854.00,0.7521
6853.00,0.7524
6852.00,0.7529
6851.00,0.7534
6850.00,0.7538
6849.00,0.7543
6848.00,0.7550
6847.00,0.7558
6846.00,0.7567
6845.00,0.7579
6844.00,0.7592
6843.00,0.7605
6842.00,0.7619
6841.00,0.7634
6840.00,0.7651
6839.00,0.7668
6838.00,0.7685
6837.00,0.7702
6836.00,0.7720
6835.00,0.7739
6834.00,0.7760
6833.00,0.7782
6832.00,0.7806
6831.00,0.7832
6830.00,0.7859
6829.00,0.7886
6828.00,0.7913
6827.00,0.7941
6826.00,0.7971
6825.00,0.8000
6824.00,0.8029
6823.00,0.8059
6822.00,0.8093
6821.00,0.8127
6820.00,0.8160
6819.00,0.8192
6818.00,0.8225
6817.00,0.8260
6816.00,0.8297
6815.00,0.8335
6814.00,0.8371
6813.00,0.8408
6812.00,0.8446
6811.00,0.8483
6810.00,0.8520
6809.00,0.8557
6808.00,0.8595
6807.00,0.8635
6806.00,0.8677
6805.00,0.8721
6804.00,0.8764
6803.00,0.8808
6802.00,0.8853
6801.00,0.8898
6800.00,0.8941
6799.00,0.8981
6798.00,0.9019
6797.00,0.9059
6796.00,0.9100
6795.00,0.9141
6794.00,0.9182
6793.00,0.9225
6792.00,0.9270
6791.00,0.9317
6790.00,0.9363
6789.00,0.9407
6788.00,0.9449
6787.00,0.9490
6786.00,0.9531
6785.00,0.9573
6784.00,0.9616
6783.00,0.9662
6782.00,0.9709
6781.00,0.9756
6780.00,0.9801
6779.00,0.9844
6778.00,0.9886
6777.00,0.9927
6776.00,0.9968
6775.00,1.0009
6774.00,1.0051
6773.00,1.0096
6772.00,1.0141
6771.00,1.0182
6770.00,1.0221
6769.00,1.0260
6768.00,1.0300
6767.00,1.0342
6766.00,1.0383
6765.00,1.0424
6764.00,1.0466
6763.00,1.0508
6762.00,1.0549
6761.00,1.0586
6760.00,1.0622
6759.00,1.0657
6758.00,1.0692
6757.00,1.0729
6756.00,1.0765
6755.00,1.0800
6754.00,1.0836
6753.00,1.0872
6752.00,1.0908
6751.00,1.0944
6750.00,1.0982
6749.00,1.1020
6748.00,1.1058
6747.00,1.1095
6746.00,1.1131
6745.00,1.1166
6744.00,1.1199
6743.00,1.1228
6742.00,1.1255
6741.00,1.1282
6740.00,1.1309
6739.00,1.1337
6738.00,1.1364
6737.00,1.1391
6736.00,1.1420
6735.00,1.1451
6734.00,1.1481
6733.00,1.1509
6732.00,1.1535
6731.00,1.1560
6730.00,1.1585
6729.00,1.1608
6728.00,1.1631
6727.00,1.1656
6726.00,1.1683
6725.00,1.1710
6724.00,1.1734
6723.00,1.1755
6722.00,1.1775
6721.00,1.1796
6720.00,1.1817
6719.00,1.1837
6718.00,1.1860
6717.00,1.1884
6716.00,1.1907
6715.00,1.1924
6714.00,1.1937
6713.00,1.1950
6712.00,1.1964
6711.00,1.1977
6710.00,1.1990
6709.00,1.2003
6708.00,1.2017
6707.00,1.2030
6706.00,1.2040
6705.00,1.2047
6704.00,1.2053
6703.00,1.2060
6702.00,1.2070
6701.00,1.2081
6700.00,1.2093
6699.00,1.2105
6698.00,1.2117
6697.00,1.2129
6696.00,1.2139
6695.00,1.2148
6694.00,1.2154
6693.00,1.2161
6692.00,1.2166
6691.00,1.2171
6690.00,1.2178
6689.00,1.2184
6688.00,1.2186
6687.00,1.2186
6686.00,1.2184
6685.00,1.2182
6684.00,1.2181
6683.00,1.2179
6682.00,1.2177
6681.00,1.2175
6680.00,1.2174
6679.00,1.2174
6678.00,1.2177
6677.00,1.2180
6676.00,1.2181
6675.00,1.2179
6674.00,1.2177
6673.00,1.2176
6672.00,1.2174
6671.00,1.2167
6670.00,1.2156
6669.00,1.2146
6668.00,1.2140
6667.00,1.2137
6666.00,1.2132
6665.00,1.2124
6664.00,1.2111
6663.00,1.2097
6662.00,1.2082
6661.00,1.2068
6660.00,1.2054
6659.00,1.2040
6658.00,1.2027
6657.00,1.2017
6656.00,1.2008
6655.00,1.1997
6654.00,1.1983
6653.00,1.1967
6652.00,1.1951
6651.00,1.1936
6650.00,1.1923
6649.00,1.1909
6648.00,1.1893
6647.00,1.1872
6646.00,1.1849
6645.00,1.1827
6644.00,1.1804
6643.00,1.1781
6642.00,1.1758
6641.00,1.1735
6640.00,1.1713
6639.00,1.1692
6638.00,1.1671
6637.00,1.1650
6636.00,1.1628
6635.00,1.1604
6634.00,1.1580
6633.00,1.1553
6632.00,1.1525
6631.00,1.1496
6630.00,1.1469
6629.00,1.1445
6628.00,1.1421
6627.00,1.1397
6626.00,1.1372
6625.00,1.1348
6624.00,1.1323
6623.00,1.1295
6622.00,1.1262
6621.00,1.1228
6620.00,1.1192
6619.00,1.1156
6618.00,1.1120
6617.00,1.1083
6616.00,1.1047
6615.00,1.1013
6614.00,1.0981
6613.00,1.0950
6612.00,1.0917
6611.00,1.0882
6610.00,1.0846
6609.00,1.0810
6608.00,1.0774
6607.00,1.0736
6606.00,1.0697
6605.00,1.0657
6604.00,1.0616
6603.00,1.0573
6602.00,1.0531
6601.00,1.0490
6600.00,1.0450
6599.00,1.0410
6598.00,1.0370
6597.00,1.0330
6596.00,1.0289
6595.00,1.0247
6594.00,1.0205
6593.00,1.0165
6592.00,1.0125
6591.00,1.0085
6590.00,1.0046
6589.00,1.0006
6588.00,0.9965
6587.00,0.9920
6586.00,0.9876
6585.00,0.9833
6584.00,0.9790
6583.00,0.9747
6582.00,0.9703
6581.00,0.9658
6580.00,0.9614
6579.00,0.9569
6578.00,0.9523
6577.00,0.9477
6576.00,0.9431
6575.00,0.9386
6574.00,0.9344
6573.00,0.9303
6572.00,0.9263
6571.00,0.9221
6570.00,0.9178
6569.00,0.9134
6568.00,0.9090
6567.00,0.9045
6566.00,0.9000
6565.00,0.8956
6564.00,0.8914
6563.00,0.8873
6562.00,0.8831
6561.00,0.8789
6560.00,0.8748
6559.00,0.8707
6558.00,0.8666
6557.00,0.8626
6556.00,0.8586
6555.00,0.8548
6554.00,0.8509
6553.00,0.8471
6552.00,0.8432
6551.00,0.8392
6550.00,0.8353
6549.00,0.8315
6548.00,0.8277
6547.00,0.8239
6546.00,0.8201
6545.00,0.8165
6544.00,0.8131
6543.00,0.8098
6542.00,0.8065
6541.00,0.8032
6540.00,0.7998
6539.00,0.7963
6538.00,0.7929
6537.00,0.7897
6536.00,0.7866
6535.00,0.7835
6534.00,0.7804
6533.00,0.7776
6532.00,0.7748
6531.00,0.7720
6530.00,0.7691
6529.00,0.7663
6528.00,0.7637
6527.00,0.7612
6526.00,0.7588
6525.00,0.7565
6524.00,0.7541
6523.00,0.7517
6522.00,0.7494
6521.00,0.7472
6520.00,0.7451
6519.00,0.7430
6518.00,0.7411
6517.00,0.7393
6516.00,0.7378
6515.00,0.7363
6514.00,0.7349
6513.00,0.7334
6512.00,0.7320
6511.00,0.7306
6510.00,0.7293
6509.00,0.7281
6508.00,0.7269
6507.00,0.7257
6506.00,0.7246
6505.00,0.7236
6504.00,0.7227
6503.00,0.7220
6502.00,0.7214
6501.00,0.7210
6500.00,0.7206
6499.00,0.7203
6498.00,0.7202
6497.00,0.7202
6496.00,0.7203
6495.00,0.7203
6494.00,0.7205
6493.00,0.7209
6492.00,0.7215
6491.00,0.7221
6490.00,0.7227
6489.00,0.7233
6488.00,0.7239
6487.00,0.7247
6486.00,0.7256
6485.00,0.7267
6484.00,0.7279
6483.00,0.7293
6482.00,0.7308
6481.00,0.7325
6480.00,0.7343
6479.00,0.7360
6478.00,0.7378
6477.00,0.7396
6476.00,0.7416
6475.00,0.7436
6474.00,0.7457
6473.00,0.7479
6472.00,0.7503
6471.00,0.7528
6470.00,0.7555
6469.00,0.7584
6468.00,0.7614
6467.00,0.7644
6466.00,0.7673
6465.00,0.7704
6464.00,0.7735
6463.00,0.7766
6462.00,0.7799
6461.00,0.7834
6460.00,0.7870
6459.00,0.7907
6458.00,0.7945
6457.00,0.7983
6456.00,0.8022
6455.00,0.8059
6454.00,0.8097
6453.00,0.8135
6452.00,0.8175
6451.00,0.8216
6450.00,0.8258
6449.00,0.8301
6448.00,0.8345
6447.00,0.8389
6446.00,0.8432
6445.00,0.8474
6444.00,0.8515
6443.00,0.8558
6442.00,0.8603
6441.00,0.8649
6440.00,0.8696
6439.00,0.8743
6438.00,0.8792
6437.00,0.8841
6436.00,0.8889
6435.00,0.8935
6434.00,0.8980
6433.00,0.9026
6432.00,0.9073
6431.00,0.9122
6430.00,0.9170
6429.00,0.9220
6428.00,0.9270
6427.00,0.9320
6426.00,0.9370
6425.00,0.9419
6424.00,0.9468
6423.00,0.9516
6422.00,0.9564
6421.00,0.9611
6420.00,0.9658
6419.00,0.9705
6418.00,0.9751
6417.00,0.9798
6416.00,0.9846
6415.00,0.9896
6414.00,0.9945
6413.00,0.9994
6412.00,1.0040
6411.00,1.0086
6410.00,1.0133
6409.00,1.0180
6408.00,1.0228
6407.00,1.0276
6406.00,1.0325
6405.00,1.0373
6404.00,1.0420
6403.00,1.0467
6402.00,1.0513
6401.00,1.0560
6400.00,1.0605
6399.00,1.0649
6398.00,1.0691
6397.00,1.0732
6396.00,1.0771
6395.00,1.0809
6394.00,1.0847
6393.00,1.0888
6392.00,1.0929
6391.00,1.0970
6390.00,1.1010
6389.00,1.1050
6388.00,1.1089
6387.00,1.1126
6386.00,1.1162
6385.00,1.1198
6384.00,1.1236
6383.00,1.1274
6382.00,1.1312
6381.00,1.1349
6380.00,1.1386
6379.00,1.1422
6378.00,1.1458
6377.00,1.1493
6376.00,1.1527
6375.00,1.1561
6374.00,1.1596
6373.00,1.1630
6372.00,1.1661
6371.00,1.1690
6370.00,1.1718
6369.00,1.1745
6368.00,1.1772
6367.00,1.1798
6366.00,1.1826
6365.00,1.1857
6364.00,1.1888
6363.00,1.1918
6362.00,1.1946
6361.00,1.1970
6360.00,1.1993
6359.00,1.2017
6358.00,1.2040
6357.00,1.2064
6356.00,1.2087
6355.00,1.2111
6354.00,1.2135
6353.00,1.2157
6352.00,1.2179
6351.00,1.2201
6350.00,1.2224
6349.00,1.2248
6348.00,1.2270
6347.00,1.2288
6346.00,1.2304
6345.00,1.2319
6344.00,1.2333
6343.00,1.2346
6342.00,1.2360
6341.00,1.2374
6340.00,1.2389
6339.00,1.2402
6338.00,1.2415
6337.00,1.2430
6336.00,1.2446
6335.00,1.2463
6334.00,1.2478
6333.00,1.2491
6332.00,1.2503
6331.00,1.2511
6330.00,1.2519
6329.00,1.2528
6328.00,1.2538
6327.00,1.2548
6326.00,1.2558
6325.00,1.2566
6324.00,1.2574
6323.00,1.2580
6322.00,1.2584
6321.00,1.2589
6320.00,1.2592
6319.00,1.2595
6318.00,1.2598
6317.00,1.2602
6316.00,1.2605
6315.00,1.2604
6314.00,1.2604
6313.00,1.2605
6312.00,1.2608
6311.00,1.2609
6310.00,1.2607
6309.00,1.2605
6308.00,1.2601
6307.00,1.2596
6306.00,1.2588
6305.00,1.2581
6304.00,1.2577
6303.00,1.2575
6302.00,1.2572
6301.00,1.2568
6300.00,1.2564
6299.00,1.2558
6298.00,1.2551
6297.00,1.2543
6296.00,1.2535
6295.00,1.2527
6294.00,1.2519
6293.00,1.2509
6292.00,1.2495
6291.00,1.2480
6290.00,1.2464
6289.00,1.2449
6288.00,1.2435
6287.00,1.2420
6286.00,1.2406
6285.00,1.2394
6284.00,1.2385
6283.00,1.2374
6282.00,1.2361
6281.00,1.2345
6280.00,1.2329
6279.00,1.2312
6278.00,1.2293
6277.00,1.2272
6276.00,1.2250
6275.00,1.2229
6274.00,1.2208
6273.00,1.2190
6272.00,1.2173
6271.00,1.2156
6270.00,1.2138
6269.00,1.2118
6268.00,1.2095
6267.00,1.2069
6266.00,1.2040
6265.00,1.2009
6264.00,1.1978
6263.00,1.1950
6262.00,1.1923
6261.00,1.1898
6260.00,1.1871
6259.00,1.1844
6258.00,1.1817
6257.00,1.1791
6256.00,1.1763
6255.00,1.1734
6254.00,1.1705
6253.00,1.1675
6252.00,1.1644
6251.00,1.1612
6250.00,1.1578
6249.00,1.1544
6248.00,1.1509
6247.00,1.1473
6246.00,1.1436
6245.00,1.1401
6244.00,1.1367
6243.00,1.1332
6242.00,1.1297
6241.00,1.1260
6240.00,1.1222
6239.00,1.1183
6238.00,1.1144
6237.00,1.1105
6236.00,1.1068
6235.00,1.1031
6234.00,1.0994
6233.00,1.0955
6232.00,1.0913
6231.00,1.0869
6230.00,1.0824
6229.00,1.0779
6228.00,1.0735
6227.00,1.0693
6226.00,1.0652
6225.00,1.0611
6224.00,1.0567
6223.00,1.0521
6222.00,1.0474
6221.00,1.0427
6220.00,1.0381
6219.00,1.0337
6218.00,1.0296
6217.00,1.0255
6216.00,1.0214
6215.00,1.0170
6214.00,1.0123
6213.00,1.0076
6212.00,1.0027
6211.00,0.9979
6210.00,0.9931
6209.00,0.9885
6208.00,0.9840
6207.00,0.9793
6206.00,0.9744
6205.00,0.9695
6204.00,0.9647
6203.00,0.9600
6202.00,0.9553
6201.00,0.9507
6200.00,0.9462
6199.00,0.9416
6198.00,0.9370
6197.00,0.9323
6196.00,0.9276
6195.00,0.9228
6194.00,0.9182
6193.00,0.9136
6192.00,0.9090
6191.00,0.9043
6190.00,0.8997
6189.00,0.8950
6188.00,0.8904
6187.00,0.8857
6186.00,0.8812
6185.00,0.8768
6184.00,0.8725
6183.00,0.8682
6182.00,0.8641
6181.00,0.8600
6180.00,0.8560
6179.00,0.8519
6178.00,0.8479
6177.00,0.8439
6176.00,0.8399
6175.00,0.8358
6174.00,0.8317
6173.00,0.8277
6172.00,0.8238
6171.00,0.8200
6170.00,0.8162
6169.00,0.8125
6168.00,0.8090
6167.00,0.8055
6166.00,0.8021
6165.00,0.7987
6164.00,0.7955
6163.00,0.7922
6162.00,0.7890
6161.00,0.7860
6160.00,0.7830
6159.00,0.7801
6158.00,0.7772
6157.00,0.7743
6156.00,0.7715
6155.00,0.7689
6154.00,0.7664
6153.00,0.7640
6152.00,0.7618
6151.00,0.7596
6150.00,0.7574
6149.00,0.7553
6148.00,0.7531
6147.00,0.7510
6146.00,0.7490
6145.00,0.7473
6144.00,0.7457
6143.00,0.7442
6142.00,0.7430
6141.00,0.7419
6140.00,0.7408
6139.00,0.7398
6138.00,0.7389
6137.00,0.7382
6136.00,0.7376
6135.00,0.7370
6134.00,0.7365
6133.00,0.7362
6132.00,0.7361
6131.00,0.7361
6130.00,0.7361
6129.00,0.7364
6128.00,0.7367
6127.00,0.7372
6126.00,0.7379
6125.00,0.7386
6124.00,0.7395
6123.00,0.7405
6122.00,0.7417
6121.00,0.7430
6120.00,0.7444
6119.00,0.7459
6118.00,0.7476
6117.00,0.7494
6116.00,0.7512
6115.00,0.7532
6114.00,0.7553
6113.00,0.7575
6112.00,0.7598
6111.00,0.7622
6110.00,0.7646
6109.00,0.7673
6108.00,0.7700
6107.00,0.7729
6106.00,0.7760
6105.00,0.7791
6104.00,0.7823
6103.00,0.7855
6102.00,0.7887
6101.00,0.7920
6100.00,0.7956
6099.00,0.7994
6098.00,0.8033
6097.00,0.8074
6096.00,0.8115
6095.00,0.8155
6094.00,0.8195
6093.00,0.8236
6092.00,0.8277
6091.00,0.8320
6090.00,0.8365
6089.00,0.8411
6088.00,0.8457
6087.00,0.8503
6086.00,0.8549
6085.00,0.8595
6084.00,0.8643
6083.00,0.8691
6082.00,0.8739
6081.00,0.8787
6080.00,0.8836
6079.00,0.8885
6078.00,0.8934
6077.00,0.8982
6076.00,0.9031
6075.00,0.9080
6074.00,0.9131
6073.00,0.9182
6072.00,0.9234
6071.00,0.9286
6070.00,0.9337
6069.00,0.9387
6068.00,0.9439
6067.00,0.9490
6066.00,0.9542
6065.00,0.9595
6064.00,0.9649
6063.00,0.9702
6062.00,0.9754
6061.00,0.9805
6060.00,0.9854
6059.00,0.9903
6058.00,0.9954
6057.00,1.0006
6056.00,1.0059
6055.00,1.0112
6054.00,1.0164
6053.00,1.0214
6052.00,1.0262
6051.00,1.0309
6050.00,1.0355
6049.00,1.0402
6048.00,1.0451
6047.00,1.0500
6046.00,1.0549
6045.00,1.0598
6044.00,1.0646
6043.00,1.0691
6042.00,1.0733
6041.00,1.0777
6040.00,1.0822
6039.00,1.0869
6038.00,1.0914
6037.00,1.0957
6036.00,1.1000
6035.00,1.1044
6034.00,1.1086
6033.00,1.1126
6032.00,1.1165
6031.00,1.1206
6030.00,1.1247
6029.00,1.1288
6028.00,1.1327
6027.00,1.1367
6026.00,1.1407
6025.00,1.1449
6024.00,1.1488
6023.00,1.1524
6022.00,1.1557
6021.00,1.1589
6020.00,1.1620
6019.00,1.1650
6018.00,1.1681
6017.00,1.1714
6016.00,1.1746
6015.00,1.1777
6014.00,1.1807
6013.00,1.1836
6012.00,1.1864
6011.00,1.1890
6010.00,1.1916
6009.00,1.1943
6008.00,1.1970
6007.00,1.1996
6006.00,1.2020
6005.00,1.2043
6004.00,1.2065
6003.00,1.2086
6002.00,1.2107
6001.00,1.2128
6000.00,1.2150
5999.00,1.2172
5998.00,1.2193
5997.00,1.2212
5996.00,1.2229
5995.00,1.2243
5994.00,1.2255
5993.00,1.2267
5992.00,1.2281
5991.00,1.2297
5990.00,1.2314
5989.00,1.2331
5988.00,1.2347
5987.00,1.2361
5986.00,1.2373
5985.00,1.2384
5984.00,1.2394
5983.00,1.2404
5982.00,1.2416
5981.00,1.2427
5980.00,1.2438
5979.00,1.2449
5978.00,1.2462
5977.00,1.2478
5976.00,1.2493
5975.00,1.2509
5974.00,1.2523
5973.00,1.2535
5972.00,1.2546
5971.00,1.2556
5970.00,1.2567
5969.00,1.2580
5968.00,1.2595
5967.00,1.2611
5966.00,1.2628
5965.00,1.2647
5964.00,1.2665
5963.00,1.2683
5962.00,1.2700
5961.00,1.2715
5960.00,1.2729
5959.00,1.2742
5958.00,1.2756
5957.00,1.2774
5956.00,1.2794
5955.00,1.2815
5954.00,1.2835
5953.00,1.2852
5952.00,1.2865
5951.00,1.2873
5950.00,1.2878
5949.00,1.2882
5948.00,1.2889
5947.00,1.2897
5946.00,1.2907
5945.00,1.2915
5944.00,1.2922
5943.00,1.2926
5942.00,1.2929
5941.00,1.2930
5940.00,1.2930
5939.00,1.2929
5938.00,1.2930
5937.00,1.2930
5936.00,1.2930
5935.00,1.2930
5934.00,1.2928
5933.00,1.2926
5932.00,1.2921
5931.00,1.2915
5930.00,1.2907
5929.00,1.2899
5928.00,1.2890
5927.00,1.2882
5926.00,1.2874
5925.00,1.2863
5924.00,1.2850
5923.00,1.2834
5922.00,1.2816
5921.00,1.2797
5920.00,1.2781
5919.00,1.2766
5918.00,1.2751
5917.00,1.2736
5916.00,1.2718
5915.00,1.2699
5914.00,1.2678
5913.00,1.2657
5912.00,1.2635
5911.00,1.2616
5910.00,1.2597
5909.00,1.2576
5908.00,1.2553
5907.00,1.2528
5906.00,1.2504
5905.00,1.2478
5904.00,1.2451
5903.00,1.2423
5902.00,1.2397
5901.00,1.2371
5900.00,1.2344
5899.00,1.2316
5898.00,1.2289
5897.00,1.2263
5896.00,1.2236
5895.00,1.2206
5894.00,1.2174
5893.00,1.2142
5892.00,1.2109
5891.00,1.2076
5890.00,1.2043
5889.00,1.2011
5888.00,1.1979
5887.00,1.1946
5886.00,1.1914
5885.00,1.1879
5884.00,1.1843
5883.00,1.1806
5882.00,1.1767
5881.00,1.1727
5880.00,1.1686
5879.00,1.1644
5878.00,1.1602
5877.00,1.1560
5876.00,1.1519
5875.00,1.1477
5874.00,1.1437
5873.00,1.1396
5872.00,1.1355
5871.00,1.1312
5870.00,1.1268
5869.00,1.1225
5868.00,1.1181
5867.00,1.1136
5866.00,1.1091
5865.00,1.1046
5864.00,1.1000
5863.00,1.0954
5862.00,1.0908
5861.00,1.0862
5860.00,1.0817
5859.00,1.0771
5858.00,1.0723
5857.00,1.0673
5856.00,1.0623
5855.00,1.0573
5854.00,1.0522
5853.00,1.0472
5852.00,1.0423
5851.00,1.0375
5850.00,1.0327
5849.00,1.0277
5848.00,1.0226
5847.00,1.0175
5846.00,1.0123
5845.00,1.0070
5844.00,1.0019
5843.00,0.9968
5842.00,0.9918
5841.00,0.9869
5840.00,0.9819
5839.00,0.9768
5838.00,0.9716
5837.00,0.9663
5836.00,0.9612
5835.00,0.9560
5834.00,0.9510
5833.00,0.9460
5832.00,0.9411
5831.00,0.9361
5830.00,0.9310
5829.00,0.9258
5828.00,0.9206
5827.00,0.9154
5826.00,0.9104
5825.00,0.9054
5824.00,0.9006
5823.00,0.8958
5822.00,0.8910
5821.00,0.8863
5820.00,0.8815
5819.00,0.8767
5818.00,0.8720
5817.00,0.8672
5816.00,0.8625
5815.00,0.8579
5814.00,0.8533
5813.00,0.8487
5812.00,0.8443
5811.00,0.8398
5810.00,0.8355
5809.00,0.8312
5808.00,0.8270
5807.00,0.8229
5806.00,0.8188
5805.00,0.8148
5804.00,0.8109
5803.00,0.8070
5802.00,0.8032
5801.00,0.7995
5800.00,0.7958
5799.00,0.7921
5798.00,0.7885
5797.00,0.7849
5796.00,0.7814
5795.00,0.7780
5794.00,0.7749
5793.00,0.7718
5792.00,0.7689
5791.00,0.7659
5790.00,0.7631
5789.00,0.7603
5788.00,0.7576
5787.00,0.7550
5786.00,0.7527
5785.00,0.7505
5784.00,0.7484
5783.00,0.7463
5782.00,0.7443
5781.00,0.7425
5780.00,0.7408
5779.00,0.7393
5778.00,0.7379
5777.00,0.7368
5776.00,0.7357
5775.00,0.7347
5774.00,0.7339
5773.00,0.7333
5772.00,0.7328
5771.00,0.7324
5770.00,0.7322
5769.00,0.7321
5768.00,0.7322
5767.00,0.7325
5766.00,0.7329
5765.00,0.7335
5764.00,0.7342
5763.00,0.7351
5762.00,0.7361
5761.00,0.7374
5760.00,0.7388
5759.00,0.7403
5758.00,0.7420
5757.00,0.7439
5756.00,0.7459
5755.00,0.7481
5754.00,0.7503
5753.00,0.7527
5752.00,0.7552
5751.00,0.7578
5750.00,0.7606
5749.00,0.7635
5748.00,0.7666
5747.00,0.7697
5746.00,0.7729
5745.00,0.7763
5744.00,0.7797
5743.00,0.7833
5742.00,0.7871
5741.00,0.7910
5740.00,0.7950
5739.00,0.7992
5738.00,0.8033
5737.00,0.8076
5736.00,0.8119
5735.00,0.8163
5734.00,0.8206
5733.00,0.8251
5732.00,0.8296
5731.00,0.8341
5730.00,0.8388
5729.00,0.8436
5728.00,0.8485
5727.00,0.8535
5726.00,0.8585
5725.00,0.8635
5724.00,0.8685
5723.00,0.8736
5722.00,0.8787
5721.00,0.8839
5720.00,0.8891
5719.00,0.8944
5718.00,0.8998
5717.00,0.9052
5716.00,0.9107
5715.00,0.9160
5714.00,0.9213
5713.00,0.9267
5712.00,0.9321
5711.00,0.9376
5710.00,0.9432
5709.00,0.9488
5708.00,0.9543
5707.00,0.9598
5706.00,0.9652
5705.00,0.9706
5704.00,0.9760
5703.00,0.9815
5702.00,0.9870
5701.00,0.9926
5700.00,0.9980
5699.00,1.0034
5698.00,1.0087
5697.00,1.0139
5696.00,1.0191
5695.00,1.0241
5694.00,1.0291
5693.00,1.0341
5692.00,1.0391
5691.00,1.0442
5690.00,1.0493
5689.00,1.0546
5688.00,1.0597
5687.00,1.0647
5686.00,1.0694
5685.00,1.0740
5684.00,1.0784
5683.00,1.0826
5682.00,1.0869
5681.00,1.0912
5680.00,1.0955
5679.00,1.1000
5678.00,1.1044
5677.00,1.1090
5676.00,1.1135
5675.00,1.1179
5674.00,1.1222
5673.00,1.1265
5672.00,1.1308
5671.00,1.1353
5670.00,1.1397
5669.00,1.1442
5668.00,1.1485
5667.00,1.1525
5666.00,1.1564
5665.00,1.1603
5664.00,1.1643
5663.00,1.1684
5662.00,1.1725
5661.00,1.1766
5660.00,1.1807
5659.00,1.1846
5658.00,1.1884
5657.00,1.1921
5656.00,1.1958
5655.00,1.1994
5654.00,1.2029
5653.00,1.2065
5652.00,1.2101
5651.00,1.2138
5650.00,1.2175
5649.00,1.2211
5648.00,1.2246
5647.00,1.2278
5646.00,1.2309
5645.00,1.2338
5644.00,1.2367
5643.00,1.2397
5642.00,1.2427
5641.00,1.2455
5640.00,1.2482
5639.00,1.2509
5638.00,1.2536
5637.00,1.2564
5636.00,1.2592
5635.00,1.2620
5634.00,1.2646
5633.00,1.2670
5632.00,1.2693
5631.00,1.2716
5630.00,1.2739
5629.00,1.2763
5628.00,1.2787
5627.00,1.2812
5626.00,1.2837
5625.00,1.2861
5624.00,1.2885
5623.00,1.2909
5622.00,1.2933
5621.00,1.2955
5620.00,1.2975
5619.00,1.2995
5618.00,1.3014
5617.00,1.3035
5616.00,1.3054
5615.00,1.3072
5614.00,1.3088
5613.00,1.3102
5612.00,1.3115
5611.00,1.3129
5610.00,1.3144
5609.00,1.3163
5608.00,1.3182
5607.00,1.3200
5606.00,1.3216
5605.00,1.3230
5604.00,1.3242
5603.00,1.3252
5602.00,1.3260
5601.00,1.3268
5600.00,1.3277
5599.00,1.3287
5598.00,1.3299
5597.00,1.3310
5596.00,1.3320
5595.00,1.3327
5594.00,1.3332
5593.00,1.3335
5592.00,1.3339
5591.00,1.3343
5590.00,1.3350
5589.00,1.3357
5588.00,1.3364
5587.00,1.3368
5586.00,1.3371
5585.00,1.3372
5584.00,1.3371
5583.00,1.3370
5582.00,1.3369
5581.00,1.3368
5580.00,1.3365
5579.00,1.3362
5578.00,1.3359
5577.00,1.3356
5576.00,1.3353
5575.00,1.3351
5574.00,1.3347
5573.00,1.3342
5572.00,1.3334
5571.00,1.3324
5570.00,1.3313
5569.00,1.3303
5568.00,1.3295
5567.00,1.3287
5566.00,1.3280
5565.00,1.3273
5564.00,1.3265
5563.00,1.3254
5562.00,1.3240
5561.00,1.3224
5560.00,1.3207
5559.00,1.3191
5558.00,1.3176
5557.00,1.3162
5556.00,1.3148
5555.00,1.3132
5554.00,1.3115
5553.00,1.3098
5552.00,1.3081
5551.00,1.3063
5550.00,1.3045
5549.00,1.3025
5548.00,1.3005
5547.00,1.2983
5546.00,1.2959
5545.00,1.2936
5544.00,1.2912
5543.00,1.2889
5542.00,1.2865
5541.00,1.2840
5540.00,1.2814
5539.00,1.2788
5538.00,1.2761
5537.00,1.2733
5536.00,1.2704
5535.00,1.2675
5534.00,1.2646
5533.00,1.2618
5532.00,1.2589
5531.00,1.2558
5530.00,1.2527
5529.00,1.2495
5528.00,1.2462
5527.00,1.2427
5526.00,1.2390
5525.00,1.2354
5524.00,1.2318
5523.00,1.2281
5522.00,1.2244
5521.00,1.2207
5520.00,1.2171
5519.00,1.2134
5518.00,1.2095
5517.00,1.2054
5516.00,1.2012
5515.00,1.1970
5514.00,1.1928
5513.00,1.1886
5512.00,1.1844
5511.00,1.1801
5510.00,1.1757
5509.00,1.1713
5508.00,1.1667
5507.00,1.1621
5506.00,1.1574
5505.00,1.1528
5504.00,1.1482
5503.00,1.1435
5502.00,1.1385
5501.00,1.1335
5500.00,1.1283
5499.00,1.1232
5498.00,1.1182
5497.00,1.1131
5496.00,1.1081
5495.00,1.1029
5494.00,1.0977
5493.00,1.0925
5492.00,1.0872
5491.00,1.0819
5490.00,1.0765
5489.00,1.0712
5488.00,1.0658
5487.00,1.0603
5486.00,1.0548
5485.00,1.0493
5484.00,1.0438
5483.00,1.0382
5482.00,1.0327
5481.00,1.0273
5480.00,1.0219
5479.00,1.0164
5478.00,1.0109
5477.00,1.0052
5476.00,0.9993
5475.00,0.9933
5474.00,0.9872
5473.00,0.9812
5472.00,0.9754
5471.00,0.9696
5470.00,0.9638
5469.00,0.9581
5468.00,0.9525
5467.00,0.9469
5466.00,0.9415
5465.00,0.9361
5464.00,0.9306
5463.00,0.9251
5462.00,0.9194
5461.00,0.9137
5460.00,0.9079
5459.00,0.9022
5458.00,0.8966
5457.00,0.8911
5456.00,0.8858
5455.00,0.8804
5454.00,0.8752
5453.00,0.8700
5452.00,0.8649
5451.00,0.8599
5450.00,0.8549
5449.00,0.8499
5448.00,0.8450
5447.00,0.8401
5446.00,0.8352
5445.00,0.8304
5444.00,0.8257
5443.00,0.8210
5442.00,0.8162
5441.00,0.8116
5440.00,0.8069
5439.00,0.8024
5438.00,0.7980
5437.00,0.7940
5436.00,0.7900
5435.00,0.7861
5434.00,0.7823
5433.00,0.7786
5432.00,0.7749
5431.00,0.7714
5430.00,0.7679
5429.00,0.7646
5428.00,0.7613
5427.00,0.7581
5426.00,0.7550
5425.00,0.7521
5424.00,0.7494
5423.00,0.7469
5422.00,0.7446
5421.00,0.7424
5420.00,0.7404
5419.00,0.7385
5418.00,0.7366
5417.00,0.7350
5416.00,0.7335
5415.00,0.7321
5414.00,0.7308
5413.00,0.7296
5412.00,0.7284
5411.00,0.7275
5410.00,0.7268
5409.00,0.7262
5408.00,0.7257
5407.00,0.7254
5406.00,0.7254
5405.00,0.7257
5404.00,0.7262
5403.00,0.7269
5402.00,0.7278
5401.00,0.7287
5400.00,0.7299
5399.00,0.7311
5398.00,0.7325
5397.00,0.7341
5396.00,0.7358
5395.00,0.7377
5394.00,0.7397
5393.00,0.7418
5392.00,0.7440
5391.00,0.7465
5390.00,0.7492
5389.00,0.7520
5388.00,0.7551
5387.00,0.7583
5386.00,0.7617
5385.00,0.7652
5384.00,0.7688
5383.00,0.7725
5382.00,0.7764
5381.00,0.7804
5380.00,0.7845
5379.00,0.7887
5378.00,0.7931
5377.00,0.7976
5376.00,0.8023
5375.00,0.8072
5374.00,0.8122
5373.00,0.8173
5372.00,0.8225
5371.00,0.8276
5370.00,0.8328
5369.00,0.8383
5368.00,0.8438
5367.00,0.8494
5366.00,0.8551
5365.00,0.8608
5364.00,0.8666
5363.00,0.8724
5362.00,0.8783
5361.00,0.8844
5360.00,0.8906
5359.00,0.8968
5358.00,0.9032
5357.00,0.9094
5356.00,0.9156
5355.00,0.9218
5354.00,0.9280
5353.00,0.9343
5352.00,0.9407
5351.00,0.9471
5350.00,0.9536
5349.00,0.9600
5348.00,0.9664
5347.00,0.9728
5346.00,0.9791
5345.00,0.9854
5344.00,0.9918
5343.00,0.9982
5342.00,1.0045
5341.00,1.0108
5340.00,1.0170
5339.00,1.0231
5338.00,1.0294
5337.00,1.0358
5336.00,1.0424
5335.00,1.0489
5334.00,1.0554
5333.00,1.0618
5332.00,1.0681
5331.00,1.0743
5330.00,1.0804
5329.00,1.0865
5328.00,1.0926
5327.00,1.0987
5326.00,1.1047
5325.00,1.1107
5324.00,1.1167
5323.00,1.1225
5322.00,1.1284
5321.00,1.1341
5320.00,1.1398
5319.00,1.1453
5318.00,1.1508
5317.00,1.1563
5316.00,1.1617
5315.00,1.1671
5314.00,1.1725
5313.00,1.1779
5312.00,1.1831
5311.00,1.1883
5310.00,1.1935
5309.00,1.1985
5308.00,1.2036
5307.00,1.2086
5306.00,1.2135
5305.00,1.2184
5304.00,1.2232
5303.00,1.2279
5302.00,1.2326
5301.00,1.2372
5300.00,1.2418
5299.00,1.2463
5298.00,1.2507
5297.00,1.2550
5296.00,1.2591
5295.00,1.2632
5294.00,1.2672
5293.00,1.2713
5292.00,1.2753
5291.00,1.2794
5290.00,1.2835
5289.00,1.2874
5288.00,1.2911
5287.00,1.2948
5286.00,1.2984
5285.00,1.3019
5284.00,1.3054
5283.00,1.3089
5282.00,1.3125
5281.00,1.3159
5280.00,1.3193
5279.00,1.3225
5278.00,1.3256
5277.00,1.3286
5276.00,1.3316
5275.00,1.3344
5274.00,1.3373
5273.00,1.3400
5272.00,1.3426
5271.00,1.3451
5270.00,1.3477
5269.00,1.3504
5268.00,1.3531
5267.00,1.3558
5266.00,1.3583
5265.00,1.3607
5264.00,1.3629
5263.00,1.3651
5262.00,1.3673
5261.00,1.3694
5260.00,1.3714
5259.00,1.3733
5258.00,1.3750
5257.00,1.3768
5256.00,1.3786
5255.00,1.3804
5254.00,1.3823
5253.00,1.3841
5252.00,1.3859
5251.00,1.3876
5250.00,1.3891
5249.00,1.3903
5248.00,1.3914
5247.00,1.3923
5246.00,1.3931
5245.00,1.3939
5244.00,1.3949
5243.00,1.3961
5242.00,1.3973
5241.00,1.3986
5240.00,1.3998
5239.00,1.4008
5238.00,1.4017
5237.00,1.4022
5236.00,1.4025
5235.00,1.4028
5234.00,1.4032
5233.00,1.4038
5232.00,1.4044
5231.00,1.4050
5230.00,1.4056
5229.00,1.4060
5228.00,1.4063
5227.00,1.4065
5226.00,1.4067
5225.00,1.4068
5224.00,1.4067
5223.00,1.4064
5222.00,1.4061
5221.00,1.4057
5220.00,1.4053
5219.00,1.4050
5218.00,1.4047
5217.00,1.4045
5216.00,1.4041
5215.00,1.4037
5214.00,1.4033
5213.00,1.4027
5212.00,1.4020
5211.00,1.4013
5210.00,1.4006
5209.00,1.3999
5208.00,1.3991
5207.00,1.3980
5206.00,1.3966
5205.00,1.3949
5204.00,1.3931
5203.00,1.3914
5202.00,1.3899
5201.00,1.3887
5200.00,1.3874
5199.00,1.3861
5198.00,1.3846
5197.00,1.3831
5196.00,1.3815
5195.00,1.3799
5194.00,1.3782
5193.00,1.3764
5192.00,1.3744
5191.00,1.3724
5190.00,1.3704
5189.00,1.3682
5188.00,1.3660
5187.00,1.3638
5186.00,1.3615
5185.00,1.3590
5184.00,1.3566
5183.00,1.3541
5182.00,1.3517
5181.00,1.3493
5180.00,1.3468
5179.00,1.3441
5178.00,1.3412
5177.00,1.3380
5176.00,1.3348
5175.00,1.3316
5174.00,1.3287
5173.00,1.3257
5172.00,1.3226
5171.00,1.3193
5170.00,1.3160
5169.00,1.3126
5168.00,1.3090
5167.00,1.3053
5166.00,1.3016
5165.00,1.2980
5164.00,1.2944
5163.00,1.2908
5162.00,1.2871
5161.00,1.2833
5160.00,1.2793
5159.00,1.2752
5158.00,1.2711
5157.00,1.2670
5156.00,1.2628
5155.00,1.2584
5154.00,1.2538
5153.00,1.2492
5152.00,1.2447
5151.00,1.2402
5150.00,1.2356
5149.00,1.2310
5148.00,1.2262
5147.00,1.2214
5146.00,1.2164
5145.00,1.2114
5144.00,1.2062
5143.00,1.2010
5142.00,1.1957
5141.00,1.1904
5140.00,1.1850
5139.00,1.1796
5138.00,1.1742
5137.00,1.1688
5136.00,1.1634
5135.00,1.1579
5134.00,1.1524
5133.00,1.1468
5132.00,1.1410
5131.00,1.1351
5130.00,1.1291
5129.00,1.1231
5128.00,1.1170
5127.00,1.1109
5126.00,1.1048
5125.00,1.0987
5124.00,1.0927
5123.00,1.0865
5122.00,1.0804
5121.00,1.0741
5120.00,1.0678
5119.00,1.0614
5118.00,1.0550
5117.00,1.0487
5116.00,1.0423
5115.00,1.0358
5114.00,1.0293
5113.00,1.0228
5112.00,1.0163
5111.00,1.0098
5110.00,1.0033
5109.00,0.9969
5108.00,0.9904
5107.00,0.9840
5106.00,0.9777
5105.00,0.9713
5104.00,0.9648
5103.00,0.9582
5102.00,0.9517
5101.00,0.9452
5100.00,0.9386
5099.00,0.9322
5098.00,0.9259
5097.00,0.9197
5096.00,0.9135
5095.00,0.9074
5094.00,0.9012
5093.00,0.8950
5092.00,0.8888
5091.00,0.8826
5090.00,0.8766
5089.00,0.8706
5088.00,0.8648
5087.00,0.8590
5086.00,0.8532
5085.00,0.8476
5084.00,0.8420
5083.00,0.8364
5082.00,0.8310
5081.00,0.8256
5080.00,0.8203
5079.00,0.8151
5078.00,0.8100
5077.00,0.8050
5076.00,0.8001
5075.00,0.7952
5074.00,0.7904
5073.00,0.7857
5072.00,0.7811
5071.00,0.7767
5070.00,0.7725
5069.00,0.7684
5068.00,0.7644
5067.00,0.7605
5066.00,0.7567
5065.00,0.7531
5064.00,0.7495
5063.00,0.7461
5062.00,0.7429
5061.00,0.7398
5060.00,0.7369
5059.00,0.7342
5058.00,0.7316
5057.00,0.7292
5056.00,0.7270
5055.00,0.7250
5054.00,0.7231
5053.00,0.7214
5052.00,0.7200
5051.00,0.7187
5050.00,0.7176
5049.00,0.7166
5048.00,0.7159
5047.00,0.7154
5046.00,0.7151
5045.00,0.7151
5044.00,0.7152
5043.00,0.7154
5042.00,0.7159
5041.00,0.7165
5040.00,0.7173
5039.00,0.7184
5038.00,0.7197
5037.00,0.7212
5036.00,0.7230
5035.00,0.7249
5034.00,0.7270
5033.00,0.7294
5032.00,0.7320
5031.00,0.7347
5030.00,0.7377
5029.00,0.7408
5028.00,0.7441
5027.00,0.7475
5026.00,0.7511
5025.00,0.7550
5024.00,0.7591
5023.00,0.7634
5022.00,0.7679
5021.00,0.7726
5020.00,0.7774
5019.00,0.7823
5018.00,0.7872
5017.00,0.7924
5016.00,0.7976
5015.00,0.8030
5014.00,0.8085
5013.00,0.8143
5012.00,0.8201
5011.00,0.8261
5010.00,0.8322
5009.00,0.8384
5008.00,0.8447
5007.00,0.8511
5006.00,0.8576
5005.00,0.8643
5004.00,0.8710
5003.00,0.8778
5002.00,0.8845
5001.00,0.8913
5000.00,0.8981
4999.00,0.9050
4998.00,0.9121
4997.00,0.9192
4996.00,0.9263
4995.00,0.9335
4994.00,0.9407
4993.00,0.9479
4992.00,0.9551
4991.00,0.9623
4990.00,0.9696
4989.00,0.9770
4988.00,0.9844
4987.00,0.9918
4986.00,0.9992
4985.00,1.0065
4984.00,1.0138
4983.00,1.0210
4982.00,1.0283
4981.00,1.0355
4980.00,1.0427
4979.00,1.0499
4978.00,1.0570
4977.00,1.0640
4976.00,1.0711
4975.00,1.0782
4974.00,1.0853
4973.00,1.0924
4972.00,1.0994
4971.00,1.1064
4970.00,1.1133
4969.00,1.1202
4968.00,1.1270
4967.00,1.1338
4966.00,1.1404
4965.00,1.1470
4964.00,1.1536
4963.00,1.1602
4962.00,1.1666
4961.00,1.1729
4960.00,1.1791
4959.00,1.1852
4958.00,1.1913
4957.00,1.1975
4956.00,1.2037
4955.00,1.2099
4954.00,1.2160
4953.00,1.2221
4952.00,1.2280
4951.00,1.2337
4950.00,1.2393
4949.00,1.2448
4948.00,1.2503
4947.00,1.2559
4946.00,1.2616
4945.00,1.2672
4944.00,1.2726
4943.00,1.2777
4942.00,1.2827
4941.00,1.2877
4940.00,1.2926
4939.00,1.2974
4938.00,1.3022
4937.00,1.3067
4936.00,1.3112
4935.00,1.3158
4934.00,1.3205
4933.00,1.3252
4932.00,1.3298
4931.00,1.3342
4930.00,1.3384
4929.00,1.3427
4928.00,1.3469
4927.00,1.3512
4926.00,1.3555
4925.00,1.3597
4924.00,1.3637
4923.00,1.3674
4922.00,1.3711
4921.00,1.3747
4920.00,1.3782
4919.00,1.3817
4918.00,1.3852
4917.00,1.3888
4916.00,1.3922
4915.00,1.3954
4914.00,1.3986
4913.00,1.4017
4912.00,1.4048
4911.00,1.4078
4910.00,1.4107
4909.00,1.4135
4908.00,1.4163
4907.00,1.4191
4906.00,1.4218
4905.00,1.4245
4904.00,1.4271
4903.00,1.4298
4902.00,1.4324
4901.00,1.4349
4900.00,1.4372
4899.00,1.4393
4898.00,1.4413
4897.00,1.4433
4896.00,1.4453
4895.00,1.4475
4894.00,1.4497
4893.00,1.4517
4892.00,1.4535
4891.00,1.4552
4890.00,1.4567
4889.00,1.4583
4888.00,1.4600
4887.00,1.4615
4886.00,1.4630
4885.00,1.4645
4884.00,1.4660
4883.00,1.4676
4882.00,1.4693
4881.00,1.4708
4880.00,1.4719
4879.00,1.4727
4878.00,1.4734
4877.00,1.4741
4876.00,1.4749
4875.00,1.4757
4874.00,1.4764
4873.00,1.4770
4872.00,1.4775
4871.00,1.4781
4870.00,1.4787
4869.00,1.4794
4868.00,1.4801
4867.00,1.4806
4866.00,1.4810
4865.00,1.4812
4864.00,1.4812
4863.00,1.4811
4862.00,1.4811
4861.00,1.4810
4860.00,1.4809
4859.00,1.4807
4858.00,1.4803
4857.00,1.4800
4856.00,1.4796
4855.00,1.4793
4854.00,1.4792
4853.00,1.4791
4852.00,1.4790
4851.00,1.4787
4850.00,1.4781
4849.00,1.4773
4848.00,1.4762
4847.00,1.4750
4846.00,1.4738
4845.00,1.4727
4844.00,1.4718
4843.00,1.4708
4842.00,1.4696
4841.00,1.4684
4840.00,1.4671
4839.00,1.4657
4838.00,1.4643
4837.00,1.4628
4836.00,1.4614
4835.00,1.4598
4834.00,1.4581
4833.00,1.4564
4832.00,1.4546
4831.00,1.4528
4830.00,1.4509
4829.00,1.4489
4828.00,1.4468
4827.00,1.4445
4826.00,1.4422
4825.00,1.4398
4824.00,1.4376
4823.00,1.4353
4822.00,1.4331
4821.00,1.4307
4820.00,1.4281
4819.00,1.4254
4818.00,1.4226
4817.00,1.4197
4816.00,1.4169
4815.00,1.4141
4814.00,1.4113
4813.00,1.4084
4812.00,1.4055
4811.00,1.4023
4810.00,1.3990
4809.00,1.3956
4808.00,1.3921
4807.00,1.3885
4806.00,1.3849
4805.00,1.3812
4804.00,1.3774
4803.00,1.3736
4802.00,1.3697
4801.00,1.3658
4800.00,1.3619
4799.00,1.3580
4798.00,1.3540
4797.00,1.3497
4796.00,1.3453
4795.00,1.3406
4794.00,1.3360
4793.00,1.3314
4792.00,1.3270
4791.00,1.3225
4790.00,1.3179
4789.00,1.3131
4788.00,1.3082
4787.00,1.3031
4786.00,1.2979
4785.00,1.2926
4784.00,1.2873
4783.00,1.2819
4782.00,1.2764
4781.00,1.2710
4780.00,1.2655
4779.00,1.2600
4778.00,1.2543
4777.00,1.2485
4776.00,1.2426
4775.00,1.2366
4774.00,1.2306
4773.00,1.2246
4772.00,1.2187
4771.00,1.2126
4770.00,1.2065
4769.00,1.2002
4768.00,1.1937
4767.00,1.1872
4766.00,1.1806
4765.00,1.1739
4764.00,1.1671
4763.00,1.1604
4762.00,1.1536
4761.00,1.1468
4760.00,1.1399
4759.00,1.1330
4758.00,1.1259
4757.00,1.1188
4756.00,1.1117
4755.00,1.1045
4754.00,1.0973
4753.00,1.0901
4752.00,1.0829
4751.00,1.0756
4750.00,1.0684
4749.00,1.0611
4748.00,1.0538
4747.00,1.0464
4746.00,1.0389
4745.00,1.0316
4744.00,1.0242
4743.00,1.0169
4742.00,1.0095
4741.00,1.0021
4740.00,0.9947
4739.00,0.9874
4738.00,0.9800
4737.00,0.9728
4736.00,0.9655
4735.00,0.9583
4734.00,0.9511
4733.00,0.9439
4732.00,0.9368
4731.00,0.9297
4730.00,0.9227
4729.00,0.9158
4728.00,0.9089
4727.00,0.9021
4726.00,0.8954
4725.00,0.8887
4724.00,0.8821
4723.00,0.8755
4722.00,0.8690
4721.00,0.8627
4720.00,0.8564
4719.00,0.8503
4718.00,0.8442
4717.00,0.8383
4716.00,0.8324
4715.00,0.8266
4714.00,0.8210
4713.00,0.8155
4712.00,0.8101
4711.00,0.8049
4710.00,0.7998
4709.00,0.7948
4708.00,0.7900
4707.00,0.7853
4706.00,0.7808
4705.00,0.7764
4704.00,0.7723
4703.00,0.7683
4702.00,0.7646
4701.00,0.7610
4700.00,0.7576
4699.00,0.7544
4698.00,0.7514
4697.00,0.7486
4696.00,0.7461
4695.00,0.7437
4694.00,0.7416
4693.00,0.7397
4692.00,0.7381
4691.00,0.7366
4690.00,0.7354
4689.00,0.7345
4688.00,0.7338
4687.00,0.7333
4686.00,0.7332
4685.00,0.7333
4684.00,0.7335
4683.00,0.7340
4682.00,0.7347
4681.00,0.7355
4680.00,0.7367
4679.00,0.7380
4678.00,0.7396
4677.00,0.7414
4676.00,0.7435
4675.00,0.7456
4674.00,0.7480
4673.00,0.7506
4672.00,0.7534
4671.00,0.7563
4670.00,0.7595
4669.00,0.7628
4668.00,0.7664
4667.00,0.7701
4666.00,0.7741
4665.00,0.7783
4664.00,0.7827
4663.00,0.7873
4662.00,0.7922
4661.00,0.7972
4660.00,0.8024
4659.00,0.8078
4658.00,0.8134
4657.00,0.8192
4656.00,0.8251
4655.00,0.8312
4654.00,0.8374
4653.00,0.8439
4652.00,0.8505
4651.00,0.8573
4650.00,0.8642
4649.00,0.8713
4648.00,0.8785
4647.00,0.8859
4646.00,0.8934
4645.00,0.9010
4644.00,0.9086
4643.00,0.9163
4642.00,0.9241
4641.00,0.9319
4640.00,0.9399
4639.00,0.9479
4638.00,0.9561
4637.00,0.9643
4636.00,0.9726
4635.00,0.9809
4634.00,0.9892
4633.00,0.9976
4632.00,1.0060
4631.00,1.0144
4630.00,1.0229
4629.00,1.0313
4628.00,1.0396
4627.00,1.0479
4626.00,1.0563
4625.00,1.0646
4624.00,1.0730
4623.00,1.0813
4622.00,1.0895
4621.00,1.0977
4620.00,1.1057
4619.00,1.1137
4618.00,1.1218
4617.00,1.1298
4616.00,1.1379
4615.00,1.1459
4614.00,1.1538
4613.00,1.1617
4612.00,1.1694
4611.00,1.1771
4610.00,1.1846
4609.00,1.1921
4608.00,1.1995
4607.00,1.2069
4606.00,1.2144
4605.00,1.2218
4604.00,1.2291
4603.00,1.2362
4602.00,1.2431
4601.00,1.2499
4600.00,1.2565
4599.00,1.2631
4598.00,1.2697
4597.00,1.2764
4596.00,1.2830
4595.00,1.2896
4594.00,1.2961
4593.00,1.3025
4592.00,1.3089
4591.00,1.3151
4590.00,1.3213
4589.00,1.3273
4588.00,1.3331
4587.00,1.3388
4586.00,1.3445
4585.00,1.3502
4584.00,1.3558
4583.00,1.3613
4582.00,1.3667
4581.00,1.3719
4580.00,1.3770
4579.00,1.3821
4578.00,1.3874
4577.00,1.3927
4576.00,1.3981
4575.00,1.4033
4574.00,1.4082
4573.00,1.4129
4572.00,1.4174
4571.00,1.4218
4570.00,1.4261
4569.00,1.4305
4568.00,1.4349
4567.00,1.4393
4566.00,1.4436
4565.00,1.4478
4564.00,1.4519
4563.00,1.4558
4562.00,1.4598
4561.00,1.4637
4560.00,1.4675
4559.00,1.4711
4558.00,1.4745
4557.00,1.4779
4556.00,1.4811
4555.00,1.4844
4554.00,1.4878
4553.00,1.4913
4552.00,1.4948
4551.00,1.4984
4550.00,1.5019
4549.00,1.5051
4548.00,1.5081
4547.00,1.5107
4546.00,1.5131
4545.00,1.5156
4544.00,1.5181
4543.00,1.5208
4542.00,1.5237
4541.00,1.5266
4540.00,1.5294
4539.00,1.5320
4538.00,1.5343
4537.00,1.5365
4536.00,1.5386
4535.00,1.5406
4534.00,1.5425
4533.00,1.5442
4532.00,1.5460
4531.00,1.5477
4530.00,1.5494
4529.00,1.5512
4528.00,1.5529
4527.00,1.5547
4526.00,1.5563
4525.00,1.5578
4524.00,1.5592
4523.00,1.5606
4522.00,1.5620
4521.00,1.5632
4520.00,1.5644
4519.00,1.5653
4518.00,1.5662
4517.00,1.5671
4516.00,1.5680
4515.00,1.5690
4514.00,1.5699
4513.00,1.5706
4512.00,1.5711
4511.00,1.5715
4510.00,1.5719
4509.00,1.5723
4508.00,1.5728
4507.00,1.5732
4506.00,1.5736
4505.00,1.5739
4504.00,1.5739
4503.00,1.5738
4502.00,1.5736
4501.00,1.5734
4500.00,1.5734
4499.00,1.5734
4498.00,1.5735
4497.00,1.5736
4496.00,1.5735
4495.00,1.5731
4494.00,1.5726
4493.00,1.5718
4492.00,1.5710
4491.00,1.5703
4490.00,1.5695
4489.00,1.5687
4488.00,1.5678
4487.00,1.5669
4486.00,1.5659
4485.00,1.5651
4484.00,1.5641
4483.00,1.5631
4482.00,1.5619
4481.00,1.5606
4480.00,1.5595
4479.00,1.5584
4478.00,1.5573
4477.00,1.5560
4476.00,1.5543
4475.00,1.5523
4474.00,1.5502
4473.00,1.5480
4472.00,1.5459
4471.00,1.5438
4470.00,1.5417
4469.00,1.5395
4468.00,1.5374
4467.00,1.5353
4466.00,1.5332
4465.00,1.5311
4464.00,1.5288
4463.00,1.5264
4462.00,1.5239
4461.00,1.5213
4460.00,1.5186
4459.00,1.5158
4458.00,1.5129
4457.00,1.5099
4456.00,1.5069
4455.00,1.5038
4454.00,1.5007
4453.00,1.4977
4452.00,1.4946
4451.00,1.4913
4450.00,1.4878
4449.00,1.4842
4448.00,1.4804
4447.00,1.4765
4446.00,1.4726
4445.00,1.4687
4444.00,1.4648
4443.00,1.4608
4442.00,1.4569
4441.00,1.4529
4440.00,1.4488
4439.00,1.4446
4438.00,1.4402
4437.00,1.4358
4436.00,1.4313
4435.00,1.4266
4434.00,1.4218
4433.00,1.4170
4432.00,1.4122
4431.00,1.4073
4430.00,1.4024
4429.00,1.3973
4428.00,1.3921
4427.00,1.3867
4426.00,1.3813
4425.00,1.3759
4424.00,1.3704
4423.00,1.3648
4422.00,1.3592
4421.00,1.3535
4420.00,1.3477
4419.00,1.3416
4418.00,1.3354
4417.00,1.3291
4416.00,1.3227
4415.00,1.3163
4414.00,1.3100
4413.00,1.3036
4412.00,1.2971
4411.00,1.2905
4410.00,1.2837
4409.00,1.2769
4408.00,1.2700
4407.00,1.2630
4406.00,1.2559
4405.00,1.2488
4404.00,1.2416
4403.00,1.2345
4402.00,1.2274
4401.00,1.2203
4400.00,1.2130
4399.00,1.2055
4398.00,1.1980
4397.00,1.1904
4396.00,1.1827
4395.00,1.1750
4394.00,1.1672
4393.00,1.1595
4392.00,1.1520
4391.00,1.1445
4390.00,1.1369
4389.00,1.1293
4388.00,1.1216
4387.00,1.1138
4386.00,1.1061
4385.00,1.0984
4384.00,1.0908
4383.00,1.0831
4382.00,1.0754
4381.00,1.0678
4380.00,1.0602
4379.00,1.0526
4378.00,1.0451
4377.00,1.0377
4376.00,1.0302
4375.00,1.0229
4374.00,1.0155
4373.00,1.0082
4372.00,1.0009
4371.00,0.9936
4370.00,0.9864
4369.00,0.9792
4368.00,0.9721
4367.00,0.9649
4366.00,0.9578
4365.00,0.9506
4364.00,0.9435
4363.00,0.9364
4362.00,0.9294
4361.00,0.9222
4360.00,0.9151
4359.00,0.9080
4358.00,0.9010
4357.00,0.8941
4356.00,0.8873
4355.00,0.8806
4354.00,0.8739
4353.00,0.8673
4352.00,0.8609
4351.00,0.8546
4350.00,0.8485
4349.00,0.8426
4348.00,0.8368
4347.00,0.8311
4346.00,0.8255
4345.00,0.8201
4344.00,0.8148
4343.00,0.8096
4342.00,0.8046
4341.00,0.7997
4340.00,0.7950
4339.00,0.7905
4338.00,0.7861
4337.00,0.7820
4336.00,0.7781
4335.00,0.7744
4334.00,0.7710
4333.00,0.7678
4332.00,0.7650
4331.00,0.7624
4330.00,0.7602
4329.00,0.7583
4328.00,0.7568
4327.00,0.7556
4326.00,0.7548
4325.00,0.7543
4324.00,0.7543
4323.00,0.7546
4322.00,0.7552
4321.00,0.7562
4320.00,0.7574
4319.00,0.7590
4318.00,0.7608
4317.00,0.7631
4316.00,0.7656
4315.00,0.7684
4314.00,0.7715
4313.00,0.7749
4312.00,0.7785
4311.00,0.7825
4310.00,0.7868
4309.00,0.7914
4308.00,0.7962
4307.00,0.8012
4306.00,0.8065
4305.00,0.8121
4304.00,0.8179
4303.00,0.8241
4302.00,0.8305
4301.00,0.8372
4300.00,0.8440
4299.00,0.8511
4298.00,0.8584
4297.00,0.8659
4296.00,0.8736
4295.00,0.8815
4294.00,0.8896
4293.00,0.8979
4292.00,0.9063
4291.00,0.9148
4290.00,0.9234
4289.00,0.9321
4288.00,0.9409
4287.00,0.9498
4286.00,0.9587
4285.00,0.9677
4284.00,0.9766
4283.00,0.9856
4282.00,0.9946
4281.00,1.0036
4280.00,1.0126
4279.00,1.0215
4278.00,1.0304
4277.00,1.0394
4276.00,1.0484
4275.00,1.0574
4274.00,1.0665
4273.00,1.0756
4272.00,1.0846
4271.00,1.0936
4270.00,1.1025
4269.00,1.1114
4268.00,1.1203
4267.00,1.1293
4266.00,1.1382
4265.00,1.1471
4264.00,1.1559
4263.00,1.1647
4262.00,1.1734
4261.00,1.1822
4260.00,1.1910
4259.00,1.1997
4258.00,1.2084
4257.00,1.2169
4256.00,1.2253
4255.00,1.2337
4254.00,1.2421
4253.00,1.2505
4252.00,1.2589
4251.00,1.2673
4250.00,1.2755
4249.00,1.2835
4248.00,1.2914
4247.00,1.2993
4246.00,1.3073
4245.00,1.3153
4244.00,1.3234
4243.00,1.3314
4242.00,1.3392
4241.00,1.3468
4240.00,1.3543
4239.00,1.3616
4238.00,1.3688
4237.00,1.3760
4236.00,1.3831
4235.00,1.3901
4234.00,1.3971
4233.00,1.4040
4232.00,1.4108
4231.00,1.4175
4230.00,1.4241
4229.00,1.4305
4228.00,1.4369
4227.00,1.4433
4226.00,1.4497
4225.00,1.4560
4224.00,1.4622
4223.00,1.4682
4222.00,1.4740
4221.00,1.4796
4220.00,1.4850
4219.00,1.4905
4218.00,1.4960
4217.00,1.5014
4216.00,1.5066
4215.00,1.5116
4214.00,1.5165
4213.00,1.5213
4212.00,1.5261
4211.00,1.5310
4210.00,1.5359
4209.00,1.5406
4208.00,1.5453
4207.00,1.5499
4206.00,1.5544
4205.00,1.5588
4204.00,1.5630
4203.00,1.5669
4202.00,1.5706
4201.00,1.5744
4200.00,1.5785
4199.00,1.5827
4198.00,1.5869
4197.00,1.5910
4196.00,1.5948
4195.00,1.5984
4194.00,1.6020
4193.00,1.6056
4192.00,1.6092
4191.00,1.6127
4190.00,1.6159
4189.00,1.6188
4188.00,1.6217
4187.00,1.6248
4186.00,1.6281
4185.00,1.6314
4184.00,1.6346
4183.00,1.6374
4182.00,1.6399
4181.00,1.6422
4180.00,1.6444
4179.00,1.6467
4178.00,1.6491
4177.00,1.6516
4176.00,1.6541
4175.00,1.6564
4174.00,1.6586
4173.00,1.6607
4172.00,1.6627
4171.00,1.6647
4170.00,1.6667
4169.00,1.6688
4168.00,1.6710
4167.00,1.6730
4166.00,1.6748
4165.00,1.6763
4164.00,1.6777
4163.00,1.6790
4162.00,1.6805
4161.00,1.6821
4160.00,1.6836
4159.00,1.6850
4158.00,1.6862
4157.00,1.6873
4156.00,1.6885
4155.00,1.6897
4154.00,1.6906
4153.00,1.6913
4152.00,1.6918
4151.00,1.6923
4150.00,1.6929
4149.00,1.6936
4148.00,1.6943
4147.00,1.6950
4146.00,1.6955
4145.00,1.6958
4144.00,1.6961
4143.00,1.6964
4142.00,1.6967
4141.00,1.6970
4140.00,1.6971
4139.00,1.6971
4138.00,1.6972
4137.00,1.6972
4136.00,1.6971
4135.00,1.6968
4134.00,1.6963
4133.00,1.6958
4132.00,1.6953
4131.00,1.6949
4130.00,1.6944
4129.00,1.6939
4128.00,1.6933
4127.00,1.6926
4126.00,1.6919
4125.00,1.6913
4124.00,1.6908
4123.00,1.6901
4122.00,1.6892
4121.00,1.6879
4120.00,1.6863
4119.00,1.6846
4118.00,1.6830
4117.00,1.6815
4116.00,1.6802
4115.00,1.6790
4114.00,1.6776
4113.00,1.6761
4112.00,1.6743
4111.00,1.6723
4110.00,1.6701
4109.00,1.6681
4108.00,1.6663
4107.00,1.6645
4106.00,1.6626
4105.00,1.6606
4104.00,1.6583
4103.00,1.6559
4102.00,1.6536
4101.00,1.6512
4100.00,1.6486
4099.00,1.6460
4098.00,1.6431
4097.00,1.6403
4096.00,1.6374
4095.00,1.6345
4094.00,1.6314
4093.00,1.6281
4092.00,1.6247
4091.00,1.6214
4090.00,1.6181
4089.00,1.6148
4088.00,1.6114
4087.00,1.6079
4086.00,1.6043
4085.00,1.6006
4084.00,1.5970
4083.00,1.5931
4082.00,1.5892
4081.00,1.5851
4080.00,1.5810
4079.00,1.5767
4078.00,1.5724
4077.00,1.5679
4076.00,1.5634
4075.00,1.5588
4074.00,1.5540
4073.00,1.5493
4072.00,1.5444
4071.00,1.5395
4070.00,1.5345
4069.00,1.5293
4068.00,1.5241
4067.00,1.5190
4066.00,1.5139
4065.00,1.5085
4064.00,1.5029
4063.00,1.4969
4062.00,1.4908
4061.00,1.4846
4060.00,1.4785
4059.00,1.4723
4058.00,1.4661
4057.00,1.4599
4056.00,1.4537
4055.00,1.4475
4054.00,1.4410
4053.00,1.4344
4052.00,1.4276
4051.00,1.4207
4050.00,1.4137
4049.00,1.4066
4048.00,1.3994
4047.00,1.3921
4046.00,1.3847
4045.00,1.3772
4044.00,1.3696
4043.00,1.3619
4042.00,1.3541
4041.00,1.3462
4040.00,1.3381
4039.00,1.3300
4038.00,1.3218
4037.00,1.3135
4036.00,1.3050
4035.00,1.2963
4034.00,1.2875
4033.00,1.2786
4032.00,1.2695
4031.00,1.2604
4030.00,1.2513
4029.00,1.2421
4028.00,1.2328
4027.00,1.2234
4026.00,1.2140
4025.00,1.2045
4024.00,1.1950
4023.00,1.1854
4022.00,1.1759
4021.00,1.1663
4020.00,1.1568
4019.00,1.1472
4018.00,1.1377
4017.00,1.1281
4016.00,1.1186
4015.00,1.1090
4014.00,1.0994
4013.00,1.0898
4012.00,1.0801
4011.00,1.0703
4010.00,1.0606
4009.00,1.0510
4008.00,1.0414
4007.00,1.0318
4006.00,1.0223
4005.00,1.0128
4004.00,1.0033
4003.00,0.9939
4002.00,0.9845
4001.00,0.9752
4000.00,0.9660
3999.00,0.9569
3998.00,0.9479
3997.00,0.9391
3996.00,0.9304
3995.00,0.9218
3994.00,0.9134
3993.00,0.9051
3992.00,0.8969
3991.00,0.8890
3990.00,0.8812
3989.00,0.8736
3988.00,0.8663
3987.00,0.8593
3986.00,0.8526
3985.00,0.8461
3984.00,0.8399
3983.00,0.8339
3982.00,0.8282
3981.00,0.8229
3980.00,0.8178
3979.00,0.8130
3978.00,0.8085
3977.00,0.8043
3976.00,0.8004
3975.00,0.7968
3974.00,0.7934
3973.00,0.7904
3972.00,0.7877
3971.00,0.7853
3970.00,0.7834
3969.00,0.7817
3968.00,0.7805
3967.00,0.7796
3966.00,0.7792
3965.00,0.7793
3964.00,0.7798
3963.00,0.7807
3962.00,0.7819
3961.00,0.7836
3960.00,0.7857
3959.00,0.7881
3958.00,0.7910
3957.00,0.7942
3956.00,0.7978
3955.00,0.8017
3954.00,0.8059
3953.00,0.8104
3952.00,0.8154
3951.00,0.8206
3950.00,0.8261
3949.00,0.8318
3948.00,0.8377
3947.00,0.8438
3946.00,0.8501
3945.00,0.8568
3944.00,0.8638
3943.00,0.8713
3942.00,0.8790
3941.00,0.8870
3940.00,0.8950
3939.00,0.9033
3938.00,0.9117
3937.00,0.9203
3936.00,0.9292
3935.00,0.9383
3934.00,0.9476
3933.00,0.9573
3932.00,0.9673
3931.00,0.9776
3930.00,0.9878
3929.00,0.9980
3928.00,1.0081
3927.00,1.0184
3926.00,1.0290
3925.00,1.0397
3924.00,1.0505
3923.00,1.0612
3922.00,1.0717
3921.00,1.0822
3920.00,1.0927
3919.00,1.1035
3918.00,1.1148
3917.00,1.1263
3916.00,1.1380
3915.00,1.1497
3914.00,1.1611
3913.00,1.1723
3912.00,1.1833
3911.00,1.1942
3910.00,1.2049
3909.00,1.2153
3908.00,1.2254
3907.00,1.2351
3906.00,1.2448
3905.00,1.2547
3904.00,1.2648
3903.00,1.2752
3902.00,1.2859
3901.00,1.2968
3900.00,1.3078
3899.00,1.3190
3898.00,1.3301
3897.00,1.3408
3896.00,1.3508
3895.00,1.3600
3894.00,1.3689
3893.00,1.3778
3892.00,1.3870
3891.00,1.3964
3890.00,1.4056
3889.00,1.4141
3888.00,1.4223
3887.00,1.4305
3886.00,1.4392
3885.00,1.4482
3884.00,1.4571
3883.00,1.4656
3882.00,1.4739
3881.00,1.4822
3880.00,1.4905
3879.00,1.4987
3878.00,1.5064
3877.00,1.5137
3876.00,1.5207
3875.00,1.5277
3874.00,1.5345
3873.00,1.5409
3872.00,1.5474
3871.00,1.5541
3870.00,1.5610
3869.00,1.5679
3868.00,1.5745
3867.00,1.5809
3866.00,1.5873
3865.00,1.5939
3864.00,1.6007
3863.00,1.6075
3862.00,1.6140
3861.00,1.6202
3860.00,1.6261
3859.00,1.6333
3858.00,1.6394
3857.00,1.6445
3856.00,1.6503
3855.00,1.6452
3854.00,1.6500
3853.00,1.6573
3852.00,1.6643
3851.00,1.6712
3850.00,1.6772
3849.00,1.6828
3848.00,1.6883
3847.00,1.6936
3846.00,1.6985
3845.00,1.7030
3844.00,1.7071
3843.00,1.7110
3842.00,1.7145
3841.00,1.7179
3840.00,1.7211
3839.00,1.7244
3838.00,1.7281
3837.00,1.7320
3836.00,1.7361
3835.00,1.7403
3834.00,1.7446
3833.00,1.7489
3832.00,1.7531
3831.00,1.7571
3830.00,1.7607
3829.00,1.7641
3828.00,1.7675
3827.00,1.7709
3826.00,1.7739
3825.00,1.7761
3824.00,1.7778
3823.00,1.7797
3822.00,1.7822
3821.00,1.7851
3820.00,1.7878
3819.00,1.7902
3818.00,1.7926
3817.00,1.7953
3816.00,1.7984
3815.00,1.8016
3814.00,1.8047
3813.00,1.8075
3812.00,1.8099
3811.00,1.8117
3810.00,1.8132
3809.00,1.8147
3808.00,1.8161
3807.00,1.8174
3806.00,1.8185
3805.00,1.8194
3804.00,1.8203
3803.00,1.8217
3802.00,1.8234
3801.00,1.8250
3800.00,1.8263
3799.00,1.8275
3798.00,1.8288
3797.00,1.8304
3796.00,1.8321
3795.00,1.8340
3794.00,1.8358
3793.00,1.8372
3792.00,1.8382
3791.00,1.8389
3790.00,1.8397
3789.00,1.8405
3788.00,1.8414
3787.00,1.8421
3786.00,1.8426
3785.00,1.8429
3784.00,1.8428
3783.00,1.8426
3782.00,1.8423
3781.00,1.8421
3780.00,1.8420
3779.00,1.8418
3778.00,1.8415
3777.00,1.8413
3776.00,1.8412
3775.00,1.8409
3774.00,1.8404
3773.00,1.8396
3772.00,1.8387
3771.00,1.8376
3770.00,1.8366
3769.00,1.8357
3768.00,1.8348
3767.00,1.8340
3766.00,1.8333
3765.00,1.8327
3764.00,1.8320
3763.00,1.8311
3762.00,1.8301
3761.00,1.8288
3760.00,1.8272
3759.00,1.8253
3758.00,1.8231
3757.00,1.8208
3756.00,1.8184
3755.00,1.8158
3754.00,1.8130
3753.00,1.8101
3752.00,1.8071
3751.00,1.8043
3750.00,1.8014
3749.00,1.7983
3748.00,1.7951
3747.00,1.7923
3746.00,1.7902
3745.00,1.7887
3744.00,1.7872
3743.00,1.7856
3742.00,1.7837
3741.00,1.7817
3740.00,1.7795
3739.00,1.7771
3738.00,1.7745
3737.00,1.7716
3736.00,1.7678
3735.00,1.7634
3734.00,1.7590
3733.00,1.7552
3732.00,1.7519
3731.00,1.7489
3730.00,1.7460
3729.00,1.7430
3728.00,1.7400
3727.00,1.7368
3726.00,1.7333
3725.00,1.7293
3724.00,1.7250
3723.00,1.7207
3722.00,1.7165
3721.00,1.7121
3720.00,1.7075
3719.00,1.7028
3718.00,1.6981
3717.00,1.6932
3716.00,1.6879
3715.00,1.6820
3714.00,1.6757
3713.00,1.6692
3712.00,1.6626
3711.00,1.6560
3710.00,1.6498
3709.00,1.6442
3708.00,1.6392
3707.00,1.6343
3706.00,1.6292
3705.00,1.6235
3704.00,1.6173
3703.00,1.6108
3702.00,1.6041
3701.00,1.5972
3700.00,1.5903
3699.00,1.5836
3698.00,1.5771
3697.00,1.5705
3696.00,1.5634
3695.00,1.5557
3694.00,1.5476
3693.00,1.5390
3692.00,1.5302
3691.00,1.5216
3690.00,1.5134
3689.00,1.5055
3688.00,1.4977
3687.00,1.4899
3686.00,1.4823
3685.00,1.4745
3684.00,1.4666
3683.00,1.4584
3682.00,1.4500
3681.00,1.4409
3680.00,1.4312
3679.00,1.4208
3678.00,1.4103
3677.00,1.3998
3676.00,1.3892
3675.00,1.3784
3674.00,1.3679
3673.00,1.3580
3672.00,1.3487
3671.00,1.3394
3670.00,1.3300
3669.00,1.3205
3668.00,1.3114
3667.00,1.3026
3666.00,1.2938
3665.00,1.2847
3664.00,1.2753
3663.00,1.2657
3662.00,1.2558
3661.00,1.2455
3660.00,1.2348
3659.00,1.2239
3658.00,1.2130
3657.00,1.2020
3656.00,1.1910
3655.00,1.1798
3654.00,1.1688
3653.00,1.1580
3652.00,1.1475
3651.00,1.1372
3650.00,1.1270
3649.00,1.1165
3648.00,1.1060
3647.00,1.0959
3646.00,1.0867
3645.00,1.0783
3644.00,1.0704
3643.00,1.0626
3642.00,1.0546
3641.00,1.0465
3640.00,1.0382
3639.00,1.0298
3638.00,1.0214
3637.00,1.0132
3636.00,1.0052
3635.00,0.9973
3634.00,0.9893
3633.00,0.9811
3632.00,0.9732
3631.00,0.9661
3630.00,0.9595
3629.00,0.9528
3628.00,0.9457
3627.00,0.9388
3626.00,0.9328
3625.00,0.9279
3624.00,0.9237
3623.00,0.9199
3622.00,0.9165
3621.00,0.9133
3620.00,0.9101
3619.00,0.9067
3618.00,0.9030
3617.00,0.8996
3616.00,0.8969
3615.00,0.8950
3614.00,0.8936
3613.00,0.8924
3612.00,0.8913
3611.00,0.8906
3610.00,0.8905
3609.00,0.8912
3608.00,0.8922
3607.00,0.8934
3606.00,0.8949
3605.00,0.8969
3604.00,0.8996
3603.00,0.9029
3602.00,0.9068
3601.00,0.9110
3600.00,0.9154
3599.00,0.9199
3598.00,0.9248
3597.00,0.9301
3596.00,0.9361
3595.00,0.9425
3594.00,0.9493
3593.00,0.9562
3592.00,0.9631
3591.00,0.9702
3590.00,0.9778
3589.00,0.9864
3588.00,0.9958
3587.00,1.0056
3586.00,1.0156
3585.00,1.0256
3584.00,1.0357
3583.00,1.0460
3582.00,1.0566
3581.00,1.0675
3580.00,1.0786
3579.00,1.0898
3578.00,1.1012
3577.00,1.1127
3576.00,1.1243
3575.00,1.1361
3574.00,1.1480
3573.00,1.1598
3572.00,1.1715
3571.00,1.1829
3570.00,1.1942
3569.00,1.2060
3568.00,1.2184
3567.00,1.2312
3566.00,1.2441
3565.00,1.2569
3564.00,1.2694
3563.00,1.2818
3562.00,1.2941
3561.00,1.3063
3560.00,1.3184
3559.00,1.3304
3558.00,1.3424
3557.00,1.3542
3556.00,1.3660
3555.00,1.3777
3554.00,1.3894
3553.00,1.4010
3552.00,1.4125
3551.00,1.4239
3550.00,1.4350
3549.00,1.4459
3548.00,1.4566
3547.00,1.4674
3546.00,1.4783
3545.00,1.4891
3544.00,1.4998
3543.00,1.5102
3542.00,1.5205
3541.00,1.5305
3540.00,1.5404
3539.00,1.5502
3538.00,1.5597
3537.00,1.5693
3536.00,1.5788
3535.00,1.5882
3534.00,1.5974
3533.00,1.6065
3532.00,1.6154
3531.00,1.6242
3530.00,1.6330
3529.00,1.6416
3528.00,1.6499
3527.00,1.6580
3526.00,1.6660
3525.00,1.6739
3524.00,1.6819
3523.00,1.6896
3522.00,1.6972
3521.00,1.7046
3520.00,1.7120
3519.00,1.7193
3518.00,1.7265
3517.00,1.7335
3516.00,1.7404
3515.00,1.7472
3514.00,1.7540
3513.00,1.7607
3512.00,1.7672
3511.00,1.7736
3510.00,1.7799
3509.00,1.7860
3508.00,1.7920
3507.00,1.7979
3506.00,1.8035
3505.00,1.8090
3504.00,1.8146
3503.00,1.8202
3502.00,1.8258
3501.00,1.8314
3500.00,1.8369
3499.00,1.8421
3498.00,1.8472
3497.00,1.8524
3496.00,1.8576
3495.00,1.8628
3494.00,1.8678
3493.00,1.8727
3492.00,1.8776
3491.00,1.8823
3490.00,1.8869
3489.00,1.8914
3488.00,1.8959
3487.00,1.9003
3486.00,1.9044
3485.00,1.9083
3484.00,1.9121
3483.00,1.9159
3482.00,1.9198
3481.00,1.9240
3480.00,1.9284
3479.00,1.9326
3478.00,1.9364
3477.00,1.9398
3476.00,1.9430
3475.00,1.9461
3474.00,1.9494
3473.00,1.9528
3472.00,1.9560
3471.00,1.9591
3470.00,1.9620
3469.00,1.9650
3468.00,1.9681
3467.00,1.9711
3466.00,1.9737
3465.00,1.9762
3464.00,1.9789
3463.00,1.9815
3462.00,1.9840
3461.00,1.9863
3460.00,1.9884
3459.00,1.9905
3458.00,1.9925
3457.00,1.9946
3456.00,1.9968
3455.00,1.9990
3454.00,2.0011
3453.00,2.0031
3452.00,2.0049
3451.00,2.0066
3450.00,2.0082
3449.00,2.0101
3448.00,2.0118
3447.00,2.0131
3446.00,2.0140
3445.00,2.0147
3444.00,2.0156
3443.00,2.0168
3442.00,2.0180
3441.00,2.0192
3440.00,2.0205
3439.00,2.0216
3438.00,2.0227
3437.00,2.0237
3436.00,2.0247
3435.00,2.0255
3434.00,2.0261
3433.00,2.0265
3432.00,2.0269
3431.00,2.0273
3430.00,2.0277
3429.00,2.0278
3428.00,2.0278
3427.00,2.0278
3426.00,2.0279
3425.00,2.0282
3424.00,2.0287
3423.00,2.0292
3422.00,2.0297
3421.00,2.0299
3420.00,2.0297
3419.00,2.0292
3418.00,2.0285
3417.00,2.0281
3416.00,2.0280
3415.00,2.0282
3414.00,2.0285
3413.00,2.0288
3412.00,2.0291
3411.00,2.0290
3410.00,2.0287
3409.00,2.0281
3408.00,2.0273
3407.00,2.0265
3406.00,2.0258
3405.00,2.0251
3404.00,2.0242
3403.00,2.0231
3402.00,2.0217
3401.00,2.0202
3400.00,2.0187
3399.00,2.0172
3398.00,2.0156
3397.00,2.0140
3396.00,2.0122
3395.00,2.0100
3394.00,2.0075
3393.00,2.0048
3392.00,2.0020
3391.00,1.9992
3390.00,1.9963
3389.00,1.9936
3388.00,1.9912
3387.00,1.9892
3386.00,1.9870
3385.00,1.9843
3384.00,1.9812
3383.00,1.9778
3382.00,1.9743
3381.00,1.9706
3380.00,1.9668
3379.00,1.9629
3378.00,1.9590
3377.00,1.9552
3376.00,1.9512
3375.00,1.9470
3374.00,1.9428
3373.00,1.9390
3372.00,1.9356
3371.00,1.9323
3370.00,1.9288
3369.00,1.9249
3368.00,1.9206
3367.00,1.9159
3366.00,1.9111
3365.00,1.9062
3364.00,1.9015
3363.00,1.8968
3362.00,1.8923
3361.00,1.8879
3360.00,1.8835
3359.00,1.8789
3358.00,1.8742
3357.00,1.8696
3356.00,1.8650
3355.00,1.8600
3354.00,1.8548
3353.00,1.8493
3352.00,1.8437
3351.00,1.8381
3350.00,1.8323
3349.00,1.8262
3348.00,1.8197
3347.00,1.8130
3346.00,1.8063
3345.00,1.8000
3344.00,1.7939
3343.00,1.7877
3342.00,1.7813
3341.00,1.7745
3340.00,1.7674
3339.00,1.7600
3338.00,1.7526
3337.00,1.7451
3336.00,1.7375
3335.00,1.7299
3334.00,1.7222
3333.00,1.7144
3332.00,1.7065
3331.00,1.6983
3330.00,1.6899
3329.00,1.6814
3328.00,1.6728
3327.00,1.6642
3326.00,1.6552
3325.00,1.6460
3324.00,1.6366
3323.00,1.6270
3322.00,1.6173
3321.00,1.6075
3320.00,1.5976
3319.00,1.5877
3318.00,1.5777
3317.00,1.5675
3316.00,1.5568
3315.00,1.5459
3314.00,1.5347
3313.00,1.5236
3312.00,1.5124
3311.00,1.5012
3310.00,1.4897
3309.00,1.4779
3308.00,1.4661
3307.00,1.4542
3306.00,1.4421
3305.00,1.4300
3304.00,1.4177
3303.00,1.4055
3302.00,1.3932
3301.00,1.3809
3300.00,1.3684
3299.00,1.3559
3298.00,1.3433
3297.00,1.3306
3296.00,1.3177
3295.00,1.3048
3294.00,1.2919
3293.00,1.2789
3292.00,1.2661
3291.00,1.2534
3290.00,1.2409
3289.00,1.2285
3288.00,1.2161
3287.00,1.2037
3286.00,1.1915
3285.00,1.1794
3284.00,1.1675
3283.00,1.1557
3282.00,1.1441
3281.00,1.1328
3280.00,1.1216
3279.00,1.1107
3278.00,1.1000
3277.00,1.0895
3276.00,1.0793
3275.00,1.0694
3274.00,1.0597
3273.00,1.0503
3272.00,1.0412
3271.00,1.0326
3270.00,1.0243
3269.00,1.0163
3268.00,1.0088
3267.00,1.0016
3266.00,0.9949
3265.00,0.9887
3264.00,0.9829
3263.00,0.9775
3262.00,0.9725
3261.00,0.9681
3260.00,0.9642
3259.00,0.9608
3258.00,0.9580
3257.00,0.9557
3256.00,0.9539
3255.00,0.9528
3254.00,0.9523
3253.00,0.9524
3252.00,0.9531
3251.00,0.9544
3250.00,0.9564
3249.00,0.9590
3248.00,0.9622
3247.00,0.9660
3246.00,0.9705
3245.00,0.9755
3244.00,0.9812
3243.00,0.9874
3242.00,0.9941
3241.00,1.0015
3240.00,1.0093
3239.00,1.0178
3238.00,1.0267
3237.00,1.0361
3236.00,1.0460
3235.00,1.0562
3234.00,1.0669
3233.00,1.0780
3232.00,1.0895
3231.00,1.1013
3230.00,1.1135
3229.00,1.1260
3228.00,1.1388
3227.00,1.1519
3226.00,1.1652
3225.00,1.1786
3224.00,1.1922
3223.00,1.2059
3222.00,1.2198
3221.00,1.2340
3220.00,1.2482
3219.00,1.2625
3218.00,1.2768
3217.00,1.2910
3216.00,1.3052
3215.00,1.3195
3214.00,1.3339
3213.00,1.3482
3212.00,1.3624
3211.00,1.3765
3210.00,1.3905
3209.00,1.4046
3208.00,1.4186
3207.00,1.4325
3206.00,1.4463
3205.00,1.4600
3204.00,1.4736
3203.00,1.4870
3202.00,1.5002
3201.00,1.5133
3200.00,1.5263
3199.00,1.5392
3198.00,1.5521
3197.00,1.5649
3196.00,1.5775
3195.00,1.5898
3194.00,1.6019
3193.00,1.6138
3192.00,1.6256
3191.00,1.6372
3190.00,1.6487
3189.00,1.6600
3188.00,1.6711
3187.00,1.6821
3186.00,1.6930
3185.00,1.7037
3184.00,1.7143
3183.00,1.7246
3182.00,1.7347
3181.00,1.7444
3180.00,1.7540
3179.00,1.7634
3178.00,1.7728
3177.00,1.7820
3176.00,1.7912
3175.00,1.8002
3174.00,1.8092
3173.00,1.8182
3172.00,1.8270
3171.00,1.8356
3170.00,1.8441
3169.00,1.8523
3168.00,1.8602
3167.00,1.8679
3166.00,1.8756
3165.00,1.8833
3164.00,1.8910
3163.00,1.8986
3162.00,1.9062
3161.00,1.9136
3160.00,1.9207
3159.00,1.9274
3158.00,1.9340
3157.00,1.9409
3156.00,1.9480
3155.00,1.9550
3154.00,1.9617
3153.00,1.9680
3152.00,1.9741
3151.00,1.9802
3150.00,1.9864
3149.00,1.9925
3148.00,1.9983
3147.00,2.0037
3146.00,2.0089
3145.00,2.0142
3144.00,2.0195
3143.00,2.0249
3142.00,2.0303
3141.00,2.0356
3140.00,2.0409
3139.00,2.0459
3138.00,2.0506
3137.00,2.0551
3136.00,2.0594
3135.00,2.0635
3134.00,2.0677
3133.00,2.0721
3132.00,2.0763
3131.00,2.0800
3130.00,2.0835
3129.00,2.0873
3128.00,2.0916
3127.00,2.0962
3126.00,2.1006
3125.00,2.1043
3124.00,2.1077
3123.00,2.1107
3122.00,2.1138
3121.00,2.1171
3120.00,2.1205
3119.00,2.1238
3118.00,2.1270
3117.00,2.1300
3116.00,2.1328
3115.00,2.1355
3114.00,2.1383
3113.00,2.1411
3112.00,2.1437
3111.00,2.1458
3110.00,2.1478
3109.00,2.1501
3108.00,2.1527
3107.00,2.1553
3106.00,2.1576
3105.00,2.1596
3104.00,2.1616
3103.00,2.1635
3102.00,2.1654
3101.00,2.1672
3100.00,2.1689
3099.00,2.1703
3098.00,2.1714
3097.00,2.1725
3096.00,2.1739
3095.00,2.1755
3094.00,2.1772
3093.00,2.1786
3092.00,2.1796
3091.00,2.1806
3090.00,2.1816
3089.00,2.1826
3088.00,2.1834
3087.00,2.1838
3086.00,2.1838
3085.00,2.1839
3084.00,2.1840
3083.00,2.1840
3082.00,2.1841
3081.00,2.1842
3080.00,2.1841
3079.00,2.1837
3078.00,2.1830
3077.00,2.1824
3076.00,2.1822
3075.00,2.1823
3074.00,2.1823
3073.00,2.1818
3072.00,2.1809
3071.00,2.1798
3070.00,2.1789
3069.00,2.1781
3068.00,2.1773
3067.00,2.1762
3066.00,2.1749
3065.00,2.1736
3064.00,2.1726
3063.00,2.1715
3062.00,2.1702
3061.00,2.1683
3060.00,2.1658
3059.00,2.1631
3058.00,2.1605
3057.00,2.1581
3056.00,2.1558
3055.00,2.1534
3054.00,2.1506
3053.00,2.1476
3052.00,2.1443
3051.00,2.1406
3050.00,2.1370
3049.00,2.1337
3048.00,2.1307
3047.00,2.1276
3046.00,2.1241
3045.00,2.1203
3044.00,2.1162
3043.00,2.1120
3042.00,2.1077
3041.00,2.1034
3040.00,2.0987
3039.00,2.0936
3038.00,2.0882
3037.00,2.0828
3036.00,2.0775
3035.00,2.0722
3034.00,2.0666
3033.00,2.0608
3032.00,2.0550
3031.00,2.0489
3030.00,2.0423
3029.00,2.0353
3028.00,2.0280
3027.00,2.0208
3026.00,2.0137
3025.00,2.0065
3024.00,1.9989
3023.00,1.9907
3022.00,1.9819
3021.00,1.9727
3020.00,1.9633
3019.00,1.9535
3018.00,1.9433
3017.00,1.9327
3016.00,1.9220
3015.00,1.9109
3014.00,1.8994
3013.00,1.8872
3012.00,1.8745
3011.00,1.8612
3010.00,1.8474
3009.00,1.8332
3008.00,1.8185
3007.00,1.8032
3006.00,1.7872
3005.00,1.7706
3004.00,1.7536
3003.00,1.7361
3002.00,1.7180
3001.00,1.6994
3000.00,1.6802
2999.00,1.6606
2998.00,1.6406
2997.00,1.6205
2996.00,1.6003
2995.00,1.5803
2994.00,1.5608
2993.00,1.5420
2992.00,1.5241
2991.00,1.5073
2990.00,1.4920
2989.00,1.4786
2988.00,1.4674
2987.00,1.4590
2986.00,1.4539
2985.00,1.4524
2984.00,1.4549
2983.00,1.4619
2982.00,1.4737
2981.00,1.4906
2980.00,1.5125
2979.00,1.5394
2978.00,1.5713
2977.00,1.6080
2976.00,1.6490
2975.00,1.6940
2974.00,1.7423
2973.00,1.7934
2972.00,1.8470
2971.00,1.9024
2970.00,1.9590
2969.00,2.0163
2968.00,2.0736
2967.00,2.1304
2966.00,2.1864
2965.00,2.2416
2964.00,2.2957
2963.00,2.3483
2962.00,2.3986
2961.00,2.4464
2960.00,2.4913
2959.00,2.5322
2958.00,2.5685
2957.00,2.6007
2956.00,2.6302
2955.00,2.6581
2954.00,2.6851
2953.00,2.7112
2952.00,2.7368
2951.00,2.7632
2950.00,2.7920
2949.00,2.8248
2948.00,2.8608
2947.00,2.8968
2946.00,2.9294
2945.00,2.9579
2944.00,2.9838
2943.00,3.0087
2942.00,3.0314
2941.00,3.0496
2940.00,3.0624
2939.00,3.0715
2938.00,3.0804
2937.00,3.0900
2936.00,3.0966
2935.00,3.0944
2934.00,3.0815
2933.00,3.0619
2932.00,3.0408
2931.00,3.0199
2930.00,2.9967
2929.00,2.9675
2928.00,2.9312
2927.00,2.8904
2926.00,2.8490
2925.00,2.8097
2924.00,2.7724
2923.00,2.7358
2922.00,2.6992
2921.00,2.6632
2920.00,2.6285
2919.00,2.5947
2918.00,2.5610
2917.00,2.5274
2916.00,2.4945
2915.00,2.4628
2914.00,2.4323
2913.00,2.4030
2912.00,2.3751
2911.00,2.3494
2910.00,2.3263
2909.00,2.3056
2908.00,2.2868
2907.00,2.2689
2906.00,2.2513
2905.00,2.2337
2904.00,2.2162
2903.00,2.1989
2902.00,2.1820
2901.00,2.1650
2900.00,2.1473
2899.00,2.1287
2898.00,2.1095
2897.00,2.0903
2896.00,2.0718
2895.00,2.0540
2894.00,2.0365
2893.00,2.0193
2892.00,2.0025
2891.00,1.9862
2890.00,1.9706
2889.00,1.9560
2888.00,1.9426
2887.00,1.9307
2886.00,1.9207
2885.00,1.9132
2884.00,1.9088
2883.00,1.9081
2882.00,1.9111
2881.00,1.9179
2880.00,1.9283
2879.00,1.9422
2878.00,1.9596
2877.00,1.9807
2876.00,2.0056
2875.00,2.0347
2874.00,2.0677
2873.00,2.1043
2872.00,2.1444
2871.00,2.1875
2870.00,2.2332
2869.00,2.2802
2868.00,2.3265
2867.00,2.3705
2866.00,2.4111
2865.00,2.4463
2864.00,2.4739
2863.00,2.4913
2862.00,2.4974
2861.00,2.4929
2860.00,2.4793
2859.00,2.4577
2858.00,2.4287
2857.00,2.3930
2856.00,2.3519
2855.00,2.3070
2854.00,2.2594
2853.00,2.2097
2852.00,2.1584
2851.00,2.1059
2850.00,2.0527
2849.00,1.9989
2848.00,1.9450
2847.00,1.8914
2846.00,1.8387
2845.00,1.7875
2844.00,1.7380
2843.00,1.6908
2842.00,1.6464
2841.00,1.6051
2840.00,1.5672
2839.00,1.5330
2838.00,1.5027
2837.00,1.4764
2836.00,1.4542
2835.00,1.4360
2834.00,1.4214
2833.00,1.4102
2832.00,1.4017
2831.00,1.3956
2830.00,1.3911
2829.00,1.3878
2828.00,1.3850
2827.00,1.3822
2826.00,1.3792
2825.00,1.3758
2824.00,1.3721
2823.00,1.3684
2822.00,1.3650
2821.00,1.3623
2820.00,1.3607
2819.00,1.3605
2818.00,1.3620
2817.00,1.3655
2816.00,1.3710
2815.00,1.3786
2814.00,1.3881
2813.00,1.3995
2812.00,1.4126
2811.00,1.4272
2810.00,1.4430
2809.00,1.4597
2808.00,1.4771
2807.00,1.4951
2806.00,1.5137
2805.00,1.5330
2804.00,1.5527
2803.00,1.5729
2802.00,1.5931
2801.00,1.6132
2800.00,1.6329
2799.00,1.6520
2798.00,1.6705
2797.00,1.6882
2796.00,1.7048
2795.00,1.7205
2794.00,1.7355
2793.00,1.7501
2792.00,1.7646
2791.00,1.7793
2790.00,1.7942
2789.00,1.8092
2788.00,1.8243
2787.00,1.8392
2786.00,1.8538
2785.00,1.8684
2784.00,1.8830
2783.00,1.8974
2782.00,1.9116
2781.00,1.9256
2780.00,1.9392
2779.00,1.9522
2778.00,1.9645
2777.00,1.9762
2776.00,1.9876
2775.00,1.9991
2774.00,2.0107
2773.00,2.0224
2772.00,2.0338
2771.00,2.0448
2770.00,2.0554
2769.00,2.0657
2768.00,2.0758
2767.00,2.0855
2766.00,2.0950
2765.00,2.1042
2764.00,2.1132
2763.00,2.1219
2762.00,2.1302
2761.00,2.1386
2760.00,2.1470
2759.00,2.1553
2758.00,2.1634
2757.00,2.1711
2756.00,2.1787
2755.00,2.1859
2754.00,2.1930
2753.00,2.2002
2752.00,2.2077
2751.00,2.2151
2750.00,2.2222
2749.00,2.2289
2748.00,2.2355
2747.00,2.2421
2746.00,2.2485
2745.00,2.2545
2744.00,2.2602
2743.00,2.2659
2742.00,2.2716
2741.00,2.2775
2740.00,2.2834
2739.00,2.2894
2738.00,2.2953
2737.00,2.3009
2736.00,2.3060
2735.00,2.3109
2734.00,2.3157
2733.00,2.3202
2732.00,2.3243
2731.00,2.3282
2730.00,2.3321
2729.00,2.3360
2728.00,2.3401
2727.00,2.3442
2726.00,2.3484
2725.00,2.3525
2724.00,2.3564
2723.00,2.3599
2722.00,2.3630
2721.00,2.3658
2720.00,2.3683
2719.00,2.3706
2718.00,2.3729
2717.00,2.3758
2716.00,2.3794
2715.00,2.3834
2714.00,2.3874
2713.00,2.3910
2712.00,2.3939
2711.00,2.3962
2710.00,2.3981
2709.00,2.4000
2708.00,2.4020
2707.00,2.4043
2706.00,2.4067
2705.00,2.4090
2704.00,2.4110
2703.00,2.4130
2702.00,2.4149
2701.00,2.4167
2700.00,2.4182
2699.00,2.4194
2698.00,2.4205
2697.00,2.4214
2696.00,2.4222
2695.00,2.4229
2694.00,2.4235
2693.00,2.4242
2692.00,2.4250
2691.00,2.4260
2690.00,2.4274
2689.00,2.4292
2688.00,2.4308
2687.00,2.4318
2686.00,2.4322
2685.00,2.4324
2684.00,2.4332
2683.00,2.4345
2682.00,2.4360
2681.00,2.4369
2680.00,2.4370
2679.00,2.4366
2678.00,2.4362
2677.00,2.4363
2676.00,2.4367
2675.00,2.4370
2674.00,2.4372
2673.00,2.4374
2672.00,2.4378
2671.00,2.4384
2670.00,2.4385
2669.00,2.4382
2668.00,2.4373
2667.00,2.4362
2666.00,2.4349
2665.00,2.4334
2664.00,2.4318
2663.00,2.4302
2662.00,2.4287
2661.00,2.4273
2660.00,2.4256
2659.00,2.4239
2658.00,2.4222
2657.00,2.4205
2656.00,2.4188
2655.00,2.4171
2654.00,2.4153
2653.00,2.4135
2652.00,2.4116
2651.00,2.4092
2650.00,2.4063
2649.00,2.4034
2648.00,2.4011
2647.00,2.3996
2646.00,2.3988
2645.00,2.3977
2644.00,2.3958
2643.00,2.3931
2642.00,2.3903
2641.00,2.3876
2640.00,2.3851
2639.00,2.3823
2638.00,2.3790
2637.00,2.3752
2636.00,2.3712
2635.00,2.3673
2634.00,2.3636
2633.00,2.3601
2632.00,2.3563
2631.00,2.3522
2630.00,2.3479
2629.00,2.3433
2628.00,2.3386
2627.00,2.3341
2626.00,2.3298
2625.00,2.3256
2624.00,2.3214
2623.00,2.3171
2622.00,2.3126
2621.00,2.3078
2620.00,2.3023
2619.00,2.2967
2618.00,2.2916
2617.00,2.2870
2616.00,2.2826
2615.00,2.2777
2614.00,2.2721
2613.00,2.2663
2612.00,2.2606
2611.00,2.2550
2610.00,2.2494
2609.00,2.2437
2608.00,2.2378
2607.00,2.2316
2606.00,2.2252
2605.00,2.2187
2604.00,2.2120
2603.00,2.2051
2602.00,2.1979
2601.00,2.1905
2600.00,2.1830
2599.00,2.1752
2598.00,2.1670
2597.00,2.1585
2596.00,2.1499
2595.00,2.1416
2594.00,2.1333
2593.00,2.1249
2592.00,2.1163
2591.00,2.1073
2590.00,2.0978
2589.00,2.0881
2588.00,2.0782
2587.00,2.0682
2586.00,2.0582
2585.00,2.0480
2584.00,2.0377
2583.00,2.0274
2582.00,2.0170
2581.00,2.0065
2580.00,1.9957
2579.00,1.9844
2578.00,1.9727
2577.00,1.9608
2576.00,1.9487
2575.00,1.9365
2574.00,1.9241
2573.00,1.9113
2572.00,1.8981
2571.00,1.8848
2570.00,1.8714
2569.00,1.8579
2568.00,1.8442
2567.00,1.8302
2566.00,1.8159
2565.00,1.8011
2564.00,1.7859
2563.00,1.7702
2562.00,1.7542
2561.00,1.7378
2560.00,1.7212
2559.00,1.7042
2558.00,1.6869
2557.00,1.6692
2556.00,1.6511
2555.00,1.6328
2554.00,1.6143
2553.00,1.5956
2552.00,1.5769
2551.00,1.5581
2550.00,1.5392
2549.00,1.5204
2548.00,1.5018
2547.00,1.4833
2546.00,1.4650
2545.00,1.4470
2544.00,1.4291
2543.00,1.4115
2542.00,1.3942
2541.00,1.3770
2540.00,1.3602
2539.00,1.3437
2538.00,1.3276
2537.00,1.3118
2536.00,1.2965
2535.00,1.2816
2534.00,1.2671
2533.00,1.2530
2532.00,1.2394
2531.00,1.2262
2530.00,1.2135
2529.00,1.2014
2528.00,1.1899
2527.00,1.1790
2526.00,1.1687
2525.00,1.1590
2524.00,1.1500
2523.00,1.1418
2522.00,1.1343
2521.00,1.1275
2520.00,1.1215
2519.00,1.1164
2518.00,1.1123
2517.00,1.1093
2516.00,1.1075
2515.00,1.1071
2514.00,1.1081
2513.00,1.1105
2512.00,1.1143
2511.00,1.1195
2510.00,1.1261
2509.00,1.1340
2508.00,1.1432
2507.00,1.1538
2506.00,1.1656
2505.00,1.1785
2504.00,1.1925
2503.00,1.2074
2502.00,1.2232
2501.00,1.2398
2500.00,1.2573
2499.00,1.2755
2498.00,1.2942
2497.00,1.3136
2496.00,1.3334
2495.00,1.3536
2494.00,1.3742
2493.00,1.3951
2492.00,1.4161
2491.00,1.4373
2490.00,1.4585
2489.00,1.4797
2488.00,1.5010
2487.00,1.5223
2486.00,1.5436
2485.00,1.5648
2484.00,1.5859
2483.00,1.6067
2482.00,1.6274
2481.00,1.6477
2480.00,1.6676
2479.00,1.6872
2478.00,1.7067
2477.00,1.7261
2476.00,1.7455
2475.00,1.7647
2474.00,1.7835
2473.00,1.8018
2472.00,1.8195
2471.00,1.8369
2470.00,1.8539
2469.00,1.8707
2468.00,1.8871
2467.00,1.9029
2466.00,1.9179
2465.00,1.9325
2464.00,1.9468
2463.00,1.9613
2462.00,1.9758
2461.00,1.9902
2460.00,2.0041
2459.00,2.0175
2458.00,2.0306
2457.00,2.0436
2456.00,2.0567
2455.00,2.0697
2454.00,2.0825
2453.00,2.0949
2452.00,2.1069
2451.00,2.1185
2450.00,2.1298
2449.00,2.1412
2448.00,2.1527
2447.00,2.1639
2446.00,2.1747
2445.00,2.1851
2444.00,2.1954
2443.00,2.2058
2442.00,2.2160
2441.00,2.2260
2440.00,2.2356
2439.00,2.2452
2438.00,2.2545
2437.00,2.2636
2436.00,2.2724
2435.00,2.2812
2434.00,2.2899
2433.00,2.2987
2432.00,2.3075
2431.00,2.3164
2430.00,2.3254
2429.00,2.3344
2428.00,2.3432
2427.00,2.3518
2426.00,2.3601
2425.00,2.3676
2424.00,2.3738
2423.00,2.3791
2422.00,2.3843
2421.00,2.3902
2420.00,2.3966
2419.00,2.4032
2418.00,2.4102
2417.00,2.4174
2416.00,2.4248
2415.00,2.4321
2414.00,2.4390
2413.00,2.4454
2412.00,2.4510
2411.00,2.4562
2410.00,2.4617
2409.00,2.4681
2408.00,2.4748
2407.00,2.4809
2406.00,2.4861
2405.00,2.4903
2404.00,2.4941
2403.00,2.4980
2402.00,2.5028
2401.00,2.5090
2400.00,2.5159
2399.00,2.5223
2398.00,2.5276
2397.00,2.5320
2396.00,2.5359
2395.00,2.5396
2394.00,2.5436
2393.00,2.5480
2392.00,2.5523
2391.00,2.5563
2390.00,2.5598
2389.00,2.5634
2388.00,2.5671
2387.00,2.5710
2386.00,2.5751
2385.00,2.5791
2384.00,2.5829
2383.00,2.5863
2382.00,2.5895
2381.00,2.5927
2380.00,2.5960
2379.00,2.5992
2378.00,2.6026
2377.00,2.6064
2376.00,2.6100
2375.00,2.6130
2374.00,2.6152
2373.00,2.6176
2372.00,2.6201
2371.00,2.6223
2370.00,2.6237
2369.00,2.6249
2368.00,2.6268
2367.00,2.6295
2366.00,2.6328
2365.00,2.6365
2364.00,2.6407
2363.00,2.6446
2362.00,2.6474
2361.00,2.6488
2360.00,2.6493
2359.00,2.6497
2358.00,2.6505
2357.00,2.6519
2356.00,2.6540
2355.00,2.6554
2354.00,2.6555
2353.00,2.6549
2352.00,2.6558
2351.00,2.6589
2350.00,2.6623
2349.00,2.6639
2348.00,2.6634
2347.00,2.6625
2346.00,2.6633
2345.00,2.6654
2344.00,2.6675
2343.00,2.6682
2342.00,2.6686
2341.00,2.6694
2340.00,2.6701
2339.00,2.6697
2338.00,2.6682
2337.00,2.6671
2336.00,2.6679
2335.00,2.6698
2334.00,2.6707
2333.00,2.6695
2332.00,2.6676
2331.00,2.6675
2330.00,2.6695
2329.00,2.6724
2328.00,2.6740
2327.00,2.6738
2326.00,2.6721
2325.00,2.6696
2324.00,2.6670
2323.00,2.6652
2322.00,2.6649
2321.00,2.6661
2320.00,2.6674
2319.00,2.6677
2318.00,2.6667
2317.00,2.6655
2316.00,2.6647
2315.00,2.6640
2314.00,2.6628
2313.00,2.6606
2312.00,2.6578
2311.00,2.6550
2310.00,2.6531
2309.00,2.6522
2308.00,2.6519
2307.00,2.6515
2306.00,2.6506
2305.00,2.6494
2304.00,2.6482
2303.00,2.6466
2302.00,2.6442
2301.00,2.6411
2300.00,2.6379
2299.00,2.6353
2298.00,2.6338
2297.00,2.6330
2296.00,2.6321
2295.00,2.6302
2294.00,2.6267
2293.00,2.6220
2292.00,2.6177
2291.00,2.6147
2290.00,2.6127
2289.00,2.6105
2288.00,2.6073
2287.00,2.6034
2286.00,2.5998
2285.00,2.5969
2284.00,2.5944
2283.00,2.5911
2282.00,2.5865
2281.00,2.5810
2280.00,2.5758
2279.00,2.5715
2278.00,2.5677
2277.00,2.5640
2276.00,2.5601
2275.00,2.5563
2274.00,2.5528
2273.00,2.5489
2272.00,2.5439
2271.00,2.5378
2270.00,2.5314
2269.00,2.5255
2268.00,2.5204
2267.00,2.5158
2266.00,2.5108
2265.00,2.5051
2264.00,2.4990
2263.00,2.4934
2262.00,2.4886
2261.00,2.4840
2260.00,2.4790
2259.00,2.4732
2258.00,2.4670
2257.00,2.4606
2256.00,2.4536
2255.00,2.4458
2254.00,2.4377
2253.00,2.4300
2252.00,2.4230
2251.00,2.4165
2250.00,2.4097
2249.00,2.4026
2248.00,2.3950
2247.00,2.3869
2246.00,2.3783
2245.00,2.3694
2244.00,2.3605
2243.00,2.3518
2242.00,2.3434
2241.00,2.3351
2240.00,2.3266
2239.00,2.3180
2238.00,2.3089
2237.00,2.2990
2236.00,2.2885
2235.00,2.2776
2234.00,2.2669
2233.00,2.2563
2232.00,2.2455
2231.00,2.2343
2230.00,2.2230
2229.00,2.2117
2228.00,2.2004
2227.00,2.1889
2226.00,2.1770
2225.00,2.1647
2224.00,2.1521
2223.00,2.1391
2222.00,2.1256
2221.00,2.1117
2220.00,2.0976
2219.00,2.0832
2218.00,2.0685
2217.00,2.0535
2216.00,2.0382
2215.00,2.0226
2214.00,2.0068
2213.00,1.9907
2212.00,1.9744
2211.00,1.9577
2210.00,1.9403
2209.00,1.9225
2208.00,1.9044
2207.00,1.8861
2206.00,1.8674
2205.00,1.8483
2204.00,1.8286
2203.00,1.8087
2202.00,1.7887
2201.00,1.7687
2200.00,1.7484
2199.00,1.7278
2198.00,1.7068
2197.00,1.6856
2196.00,1.6643
2195.00,1.6428
2194.00,1.6213
2193.00,1.6000
2192.00,1.5791
2191.00,1.5586
2190.00,1.5387
2189.00,1.5193
2188.00,1.5006
2187.00,1.4825
2186.00,1.4650
2185.00,1.4483
2184.00,1.4323
2183.00,1.4171
2182.00,1.4028
2181.00,1.3896
2180.00,1.3777
2179.00,1.3670
2178.00,1.3573
2177.00,1.3484
2176.00,1.3399
2175.00,1.3314
2174.00,1.3228
2173.00,1.3142
2172.00,1.3058
2171.00,1.2978
2170.00,1.2906
2169.00,1.2845
2168.00,1.2797
2167.00,1.2764
2166.00,1.2746
2165.00,1.2746
2164.00,1.2766
2163.00,1.2804
2162.00,1.2860
2161.00,1.2934
2160.00,1.3026
2159.00,1.3135
2158.00,1.3262
2157.00,1.3405
2156.00,1.3563
2155.00,1.3734
2154.00,1.3918
2153.00,1.4113
2152.00,1.4316
2151.00,1.4528
2150.00,1.4747
2149.00,1.4974
2148.00,1.5206
2147.00,1.5443
2146.00,1.5683
2145.00,1.5925
2144.00,1.6168
2143.00,1.6412
2142.00,1.6657
2141.00,1.6904
2140.00,1.7149
2139.00,1.7390
2138.00,1.7627
2137.00,1.7860
2136.00,1.8088
2135.00,1.8311
2134.00,1.8529
2133.00,1.8742
2132.00,1.8951
2131.00,1.9157
2130.00,1.9358
2129.00,1.9554
2128.00,1.9745
2127.00,1.9932
2126.00,2.0117
2125.00,2.0302
2124.00,2.0486
2123.00,2.0669
2122.00,2.0850
2121.00,2.1027
2120.00,2.1199
2119.00,2.1368
2118.00,2.1533
2117.00,2.1696
2116.00,2.1855
2115.00,2.2010
2114.00,2.2160
2113.00,2.2307
2112.00,2.2453
2111.00,2.2598
2110.00,2.2739
2109.00,2.2874
2108.00,2.3004
2107.00,2.3133
2106.00,2.3265
2105.00,2.3398
2104.00,2.3525
2103.00,2.3646
2102.00,2.3766
2101.00,2.3887
2100.00,2.4008
2099.00,2.4128
2098.00,2.4248
2097.00,2.4364
2096.00,2.4471
2095.00,2.4566
2094.00,2.4656
2093.00,2.4752
2092.00,2.4856
2091.00,2.4962
2090.00,2.5063
2089.00,2.5152
2088.00,2.5231
2087.00,2.5306
2086.00,2.5382
2085.00,2.5464
2084.00,2.5550
2083.00,2.5639
2082.00,2.5730
2081.00,2.5821
2080.00,2.5907
2079.00,2.5989
2078.00,2.6070
2077.00,2.6153
2076.00,2.6238
2075.00,2.6324
2074.00,2.6409
2073.00,2.6492
2072.00,2.6565
2071.00,2.6624
2070.00,2.6673
2069.00,2.6724
2068.00,2.6783
2067.00,2.6852
2066.00,2.6926
2065.00,2.6999
2064.00,2.7065
2063.00,2.7120
2062.00,2.7170
2061.00,2.7223
2060.00,2.7282
2059.00,2.7339
2058.00,2.7384
2057.00,2.7418
2056.00,2.7452
2055.00,2.7502
2054.00,2.7568
2053.00,2.7635
2052.00,2.7687
2051.00,2.7719
2050.00,2.7741
2049.00,2.7766
2048.00,2.7804
2047.00,2.7853
2046.00,2.7902
2045.00,2.7941
2044.00,2.7976
2043.00,2.8019
2042.00,2.8075
2041.00,2.8131
2040.00,2.8178
2039.00,2.8219
2038.00,2.8268
2037.00,2.8322
2036.00,2.8368
2035.00,2.8397
2034.00,2.8415
2033.00,2.8439
2032.00,2.8476
2031.00,2.8526
2030.00,2.8585
2029.00,2.8646
2028.00,2.8702
2027.00,2.8737
2026.00,2.8742
2025.00,2.8727
2024.00,2.8723
2023.00,2.8750
2022.00,2.8804
2021.00,2.8858
2020.00,2.8899
2019.00,2.8933
2018.00,2.8965
2017.00,2.8984
2016.00,2.8983
2015.00,2.8969
2014.00,2.8959
2013.00,2.8963
2012.00,2.8979
2011.00,2.9003
2010.00,2.9034
2009.00,2.9066
2008.00,2.9094
2007.00,2.9111
2006.00,2.9115
2005.00,2.9108
2004.00,2.9095
2003.00,2.9089
2002.00,2.9100
2001.00,2.9129
2000.00,2.9167
1999.00,2.9202
1998.00,2.9220
1997.00,2.9218
1996.00,2.9209
1995.00,2.9217
1994.00,2.9251
1993.00,2.9297
1992.00,2.9332
1991.00,2.9351
1990.00,2.9361
1989.00,2.9361
1988.00,2.9343
1987.00,2.9311
1986.00,2.9279
1985.00,2.9257
1984.00,2.9245
1983.00,2.9236
1982.00,2.9232
1981.00,2.9243
1980.00,2.9272
1979.00,2.9307
1978.00,2.9328
1977.00,2.9315
1976.00,2.9274
1975.00,2.9230
1974.00,2.9207
1973.00,2.9215
1972.00,2.9245
1971.00,2.9282
1970.00,2.9311
1969.00,2.9321
1968.00,2.9308
1967.00,2.9277
1966.00,2.9232
1965.00,2.9182
1964.00,2.9144
1963.00,2.9124
1962.00,2.9115
1961.00,2.9100
1960.00,2.9079
1959.00,2.9066
1958.00,2.9063
1957.00,2.9058
1956.00,2.9046
1955.00,2.9034
1954.00,2.9028
1953.00,2.9013
1952.00,2.8978
1951.00,2.8935
1950.00,2.8908
1949.00,2.8902
1948.00,2.8899
1947.00,2.8878
1946.00,2.8835
1945.00,2.8786
1944.00,2.8748
1943.00,2.8721
1942.00,2.8686
1941.00,2.8627
1940.00,2.8556
1939.00,2.8497
1938.00,2.8463
1937.00,2.8439
1936.00,2.8404
1935.00,2.8355
1934.00,2.8306
1933.00,2.8266
1932.00,2.8234
1931.00,2.8198
1930.00,2.8150
1929.00,2.8093
1928.00,2.8036
1927.00,2.7984
1926.00,2.7936
1925.00,2.7889
1924.00,2.7843
1923.00,2.7797
1922.00,2.7754
1921.00,2.7700
1920.00,2.7660
1919.00,2.7632
1918.00,2.7587
1917.00,2.7513
1916.00,2.7403
1915.00,2.7301
1914.00,2.7224
1913.00,2.7161
1912.00,2.7096
1911.00,2.7030
1910.00,2.6969
1909.00,2.6905
1908.00,2.6828
1907.00,2.6739
1906.00,2.6643
1905.00,2.6548
1904.00,2.6462
1903.00,2.6383
1902.00,2.6304
1901.00,2.6212
1900.00,2.6104
1899.00,2.5989
1898.00,2.5880
1897.00,2.5789
1896.00,2.5712
1895.00,2.5624
1894.00,2.5505
1893.00,2.5361
1892.00,2.5226
1891.00,2.5123
1890.00,2.5036
1889.00,2.4927
1888.00,2.4786
1887.00,2.4633
1886.00,2.4487
1885.00,2.4345
1884.00,2.4197
1883.00,2.4046
1882.00,2.3897
1881.00,2.3751
1880.00,2.3603
1879.00,2.3449
1878.00,2.3287
1877.00,2.3119
1876.00,2.2950
1875.00,2.2786
1874.00,2.2619
1873.00,2.2447
1872.00,2.2278
1871.00,2.2129
1870.00,2.1996
1869.00,2.1849
1868.00,2.1657
1867.00,2.1420
1866.00,2.1167
1865.00,2.0917
1864.00,2.0670
1863.00,2.0423
1862.00,2.0171
1861.00,1.9908
1860.00,1.9635
1859.00,1.9350
1858.00,1.9056
1857.00,1.8753
1856.00,1.8449
1855.00,1.8149
1854.00,1.7857
1853.00,1.7570
1852.00,1.7285
1851.00,1.7013
1850.00,1.6766
1849.00,1.6530
1848.00,1.6289
1847.00,1.6046
1846.00,1.5833
1845.00,1.5666
1844.00,1.5519
1843.00,1.5351
1842.00,1.5171
1841.00,1.5021
1840.00,1.4928
1839.00,1.4888
1838.00,1.4879
1837.00,1.4892
1836.00,1.4928
1835.00,1.4985
1834.00,1.5060
1833.00,1.5157
1832.00,1.5298
1831.00,1.5501
1830.00,1.5742
1829.00,1.5973
1828.00,1.6195
1827.00,1.6452
1826.00,1.6768
1825.00,1.7109
1824.00,1.7427
1823.00,1.7720
1822.00,1.8019
1821.00,1.8346
1820.00,1.8701
1819.00,1.9075
1818.00,1.9453
1817.00,1.9822
1816.00,2.0171
1815.00,2.0504
1814.00,2.0835
1813.00,2.1172
1812.00,2.1504
1811.00,2.1810
1810.00,2.2078
1809.00,2.2317
1808.00,2.2534
1807.00,2.2719
1806.00,2.2876
1805.00,2.3029
1804.00,2.3201
1803.00,2.3392
1802.00,2.3582
1801.00,2.3746
1800.00,2.3891
1799.00,2.4047
1798.00,2.4241
1797.00,2.4461
1796.00,2.4671
1795.00,2.4864
1794.00,2.5078
1793.00,2.5351
1792.00,2.5653
1791.00,2.5909
1790.00,2.6091
1789.00,2.6247
1788.00,2.6425
1787.00,2.6639
1786.00,2.6872
1785.00,2.7095
1784.00,2.7289
1783.00,2.7465
1782.00,2.7665
1781.00,2.7889
1780.00,2.8099
1779.00,2.8273
1778.00,2.8428
1777.00,2.8588
1776.00,2.8738
1775.00,2.8870
1774.00,2.9011
1773.00,2.9188
1772.00,2.9379
1771.00,2.9558
1770.00,2.9741
1769.00,2.9939
1768.00,3.0108
1767.00,3.0192
1766.00,3.0204
1765.00,3.0212
1764.00,3.0267
1763.00,3.0371
1762.00,3.0490
1761.00,3.0588
1760.00,3.0670
1759.00,3.0771
1758.00,3.0919
1757.00,3.1080
1756.00,3.1185
1755.00,3.1245
1754.00,3.1345
1753.00,3.1540
1752.00,3.1788
1751.00,3.1995
1750.00,3.2116
1749.00,3.2176
1748.00,3.2200
1747.00,3.2193
1746.00,3.2176
1745.00,3.2163
1744.00,3.2144
1743.00,3.2109
1742.00,3.2080
1741.00,3.2101
1740.00,3.2166
1739.00,3.2203
1738.00,3.2164
1737.00,3.2085
1736.00,3.2030
1735.00,3.2027
1734.00,3.2027
1733.00,3.1951
1732.00,3.1843
1731.00,3.1838
1730.00,3.2037
1729.00,3.2482
1728.00,3.3189
1727.00,3.4211
1726.00,3.5641
1725.00,3.7561
1724.00,3.9981
1723.00,4.2705
1722.00,4.5474
1721.00,4.8040
1720.00,5.1911
1719.00,5.3992
1718.00,4.8478
1717.00,4.6452
1716.00,4.5973
1715.00,4.5961
1714.00,4.6218
1713.00,4.6805
1712.00,4.7754
1711.00,4.8603
1710.00,4.9217
1709.00,5.0044
1708.00,5.0354
1707.00,4.9085
1706.00,4.7575
1705.00,4.6493
1704.00,4.5939
1703.00,4.4238
1702.00,4.1696
1701.00,3.9451
1700.00,3.7519
1699.00,3.5969
1698.00,3.4790
1697.00,3.3786
1696.00,3.2716
1695.00,3.1518
1694.00,3.0317
1693.00,2.9206
1692.00,2.8188
1691.00,2.7216
1690.00,2.6255
1689.00,2.5307
1688.00,2.4423
1687.00,2.3694
1686.00,2.3183
1685.00,2.2924
1684.00,2.2849
1683.00,2.2853
1682.00,2.2975
1681.00,2.3252
1680.00,2.3606
1679.00,2.3942
1678.00,2.4225
1677.00,2.4496
1676.00,2.4783
1675.00,2.5054
1674.00,2.5263
1673.00,2.5418
1672.00,2.5574
1671.00,2.5777
1670.00,2.6037
1669.00,2.6317
1668.00,2.6566
1667.00,2.6763
1666.00,2.6925
1665.00,2.7104
1664.00,2.7339
1663.00,2.7617
1662.00,2.7893
1661.00,2.8141
1660.00,2.8369
1659.00,2.8578
1658.00,2.8751
1657.00,2.8883
1656.00,2.9006
1655.00,2.9177
1654.00,2.9443
1653.00,2.9742
1652.00,2.9940
1651.00,3.0018
1650.00,3.0047
1649.00,3.0128
1648.00,3.0303
1647.00,3.0503
1646.00,3.0650
1645.00,3.0752
1644.00,3.0835
1643.00,3.0887
1642.00,3.0923
1641.00,3.0959
1640.00,3.0993
1639.00,3.1021
1638.00,3.1059
1637.00,3.1138
1636.00,3.1255
1635.00,3.1365
1634.00,3.1441
1633.00,3.1483
1632.00,3.1491
1631.00,3.1485
1630.00,3.1508
1629.00,3.1596
1628.00,3.1717
1627.00,3.1783
1626.00,3.1763
1625.00,3.1712
1624.00,3.1703
1623.00,3.1747
1622.00,3.1803
1621.00,3.1838
1620.00,3.1848
1619.00,3.1847
1618.00,3.1863
1617.00,3.1908
1616.00,3.1955
1615.00,3.1994
1614.00,3.2061
1613.00,3.2173
1612.00,3.2273
1611.00,3.2289
1610.00,3.2237
1609.00,3.2201
1608.00,3.2214
1607.00,3.2246
1606.00,3.2288
1605.00,3.2357
1604.00,3.2442
1603.00,3.2491
1602.00,3.2474
1601.00,3.2430
1600.00,3.2408
1599.00,3.2410
1598.00,3.2419
1597.00,3.2451
1596.00,3.2526
1595.00,3.2619
1594.00,3.2675
1593.00,3.2672
1592.00,3.2632
1591.00,3.2586
1590.00,3.2556
1589.00,3.2550
1588.00,3.2567
1587.00,3.2585
1586.00,3.2576
1585.00,3.2526
1584.00,3.2444
1583.00,3.2378
1582.00,3.2375
1581.00,3.2434
1580.00,3.2508
1579.00,3.2557
1578.00,3.2584
1577.00,3.2614
1576.00,3.2640
1575.00,3.2624
1574.00,3.2559
1573.00,3.2484
1572.00,3.2435
1571.00,3.2426
1570.00,3.2456
1569.00,3.2487
1568.00,3.2471
1567.00,3.2401
1566.00,3.2308
1565.00,3.2226
1564.00,3.2172
1563.00,3.2143
1562.00,3.2144
1561.00,3.2150
1560.00,3.2174
1559.00,3.2183
1558.00,3.2047
1557.00,3.1891
1556.00,3.1857
1555.00,3.1897
1554.00,3.1949
1553.00,3.1974
1552.00,3.2006
1551.00,3.2054
1550.00,3.2048
1549.00,3.1932
1548.00,3.1756
1547.00,3.1632
1546.00,3.1608
1545.00,3.1630
1544.00,3.1606
1543.00,3.1510
1542.00,3.1403
1541.00,3.1359
1540.00,3.1356
1539.00,3.1310
1538.00,3.1228
1537.00,3.1155
1536.00,3.1121
1535.00,3.1131
1534.00,3.1144
1533.00,3.1090
1532.00,3.0965
1531.00,3.0816
1530.00,3.0715
1529.00,3.0623
1528.00,3.0631
1527.00,3.0500
1526.00,3.0273
1525.00,3.0253
1524.00,3.0204
1523.00,3.0196
1522.00,3.0177
1521.00,3.0132
1520.00,3.0094
1519.00,3.0004
1518.00,3.0050
1517.00,3.0200
1516.00,3.0125
1515.00,3.0013
1514.00,2.9841
1513.00,2.9703
1512.00,2.9589
1511.00,2.9496
1510.00,2.9422
1509.00,2.9373
1508.00,2.9328
1507.00,2.9167
1506.00,2.8819
1505.00,2.8460
1504.00,2.8209
1503.00,2.8037
1502.00,2.7902
1501.00,2.7753
1500.00,2.7568
1499.00,2.7380
1498.00,2.7224
1497.00,2.7089
1496.00,2.6930
1495.00,2.6719
1494.00,2.6485
1493.00,2.6283
1492.00,2.6150
1491.00,2.6082
1490.00,2.6014
1489.00,2.5879
1488.00,2.5693
1487.00,2.5504
1486.00,2.5321
1485.00,2.5129
1484.00,2.4917
1483.00,2.4700
1482.00,2.4486
1481.00,2.4259
1480.00,2.4014
1479.00,2.3769
1478.00,2.3539
1477.00,2.3315
1476.00,2.3082
1475.00,2.2855
1474.00,2.2676
1473.00,2.2555
1472.00,2.2462
1471.00,2.2395
1470.00,2.2404
1469.00,2.2525
1468.00,2.2761
1467.00,2.3098
1466.00,2.3516
1465.00,2.3966
1464.00,2.4355
1463.00,2.4619
1462.00,2.4766
1461.00,2.4870
1460.00,2.5031
1459.00,2.5357
1458.00,2.5930
1457.00,2.6725
1456.00,2.7620
1455.00,2.8527
1454.00,2.9440
1453.00,3.0399
1452.00,3.1390
1451.00,3.2253
1450.00,3.2765
1449.00,3.2785
1448.00,3.2307
1447.00,3.1446
1446.00,3.0406
1445.00,2.9340
1444.00,2.8321
1443.00,2.7392
1442.00,2.6587
1441.00,2.5935
1440.00,2.5474
1439.00,2.5252
1438.00,2.5298
1437.00,2.5588
1436.00,2.6024
1435.00,2.6510
1434.00,2.7014
1433.00,2.7532
1432.00,2.8032
1431.00,2.8451
1430.00,2.8740
1429.00,2.8890
1428.00,2.8917
1427.00,2.8868
1426.00,2.8827
1425.00,2.8844
1424.00,2.8887
1423.00,2.8903
1422.00,2.8885
1421.00,2.8837
1420.00,2.8698
1419.00,2.8367
1418.00,2.7797
1417.00,2.7065
1416.00,2.6288
1415.00,2.5528
1414.00,2.4820
1413.00,2.4190
1412.00,2.3650
1411.00,2.3198
1410.00,2.2827
1409.00,2.2543
1408.00,2.2362
1407.00,2.2300
1406.00,2.2351
1405.00,2.2476
1404.00,2.2626
1403.00,2.2789
1402.00,2.2986
1401.00,2.3248
1400.00,2.3575
1399.00,2.3926
1398.00,2.4256
1397.00,2.4564
1396.00,2.4869
1395.00,2.5167
1394.00,2.5439
1393.00,2.5687
1392.00,2.5935
1391.00,2.6205
1390.00,2.6512
1389.00,2.6861
1388.00,2.7228
1387.00,2.7558
1386.00,2.7811
1385.00,2.8012
1384.00,2.8208
1383.00,2.8422
1382.00,2.8645
1381.00,2.8868
1380.00,2.9085
1379.00,2.9284
1378.00,2.9470
1377.00,2.9670
1376.00,2.9899
1375.00,3.0133
1374.00,3.0324
1373.00,3.0460
1372.00,3.0586
1371.00,3.0758
1370.00,3.0994
1369.00,3.1253
1368.00,3.1456
1367.00,3.1571
1366.00,3.1666
1365.00,3.1855
1364.00,3.2170
1363.00,3.2505
1362.00,3.2722
1361.00,3.2795
1360.00,3.2814
1359.00,3.2862
1358.00,3.2977
1357.00,3.3174
1356.00,3.3438
1355.00,3.3711
1354.00,3.3939
1353.00,3.4124
1352.00,3.4297
1351.00,3.4455
1350.00,3.4589
1349.00,3.4698
1348.00,3.4758
1347.00,3.4711
1346.00,3.4550
1345.00,3.4373
1344.00,3.4305
1343.00,3.4409
1342.00,3.4677
1341.00,3.5044
1340.00,3.5380
1339.00,3.5503
1338.00,3.5299
1337.00,3.4845
1336.00,3.4349
1335.00,3.3989
1334.00,3.3828
1333.00,3.3833
1332.00,3.3925
1331.00,3.4025
1330.00,3.4096
1329.00,3.4144
1328.00,3.4209
1327.00,3.4333
1326.00,3.4540
1325.00,3.4794
1324.00,3.5024
1323.00,3.5210
1322.00,3.5392
1321.00,3.5579
1320.00,3.5713
1319.00,3.5781
1318.00,3.5884
1317.00,3.6120
1316.00,3.6432
1315.00,3.6683
1314.00,3.6866
1313.00,3.7071
1312.00,3.7237
1311.00,3.7168
1310.00,3.6770
1309.00,3.6187
1308.00,3.5614
1307.00,3.5121
1306.00,3.4720
1305.00,3.4435
1304.00,3.4270
1303.00,3.4186
1302.00,3.4157
1301.00,3.4192
1300.00,3.4308
1299.00,3.4483
1298.00,3.4673
1297.00,3.4826
1296.00,3.4898
1295.00,3.4896
1294.00,3.4899
1293.00,3.4997
1292.00,3.5178
1291.00,3.5337
1290.00,3.5419
1289.00,3.5477
1288.00,3.5567
1287.00,3.5648
1286.00,3.5666
1285.00,3.5639
1284.00,3.5618
1283.00,3.5622
1282.00,3.5656
1281.00,3.5730
1280.00,3.5826
1279.00,3.5895
1278.00,3.5918
1277.00,3.5942
1276.00,3.6008
1275.00,3.6105
1274.00,3.6209
1273.00,3.6348
1272.00,3.6547
1271.00,3.6746
1270.00,3.6818
1269.00,3.6717
1268.00,3.6551
1267.00,3.6476
1266.00,3.6565
1265.00,3.6757
1264.00,3.6920
1263.00,3.6983
1262.00,3.7005
1261.00,3.7051
1260.00,3.7056
1259.00,3.6925
1258.00,3.6739
1257.00,3.6717
1256.00,3.6989
1255.00,3.7427
1254.00,3.7674
1253.00,3.7548
1252.00,3.7269
1251.00,3.7113
1250.00,3.7144
1249.00,3.7252
1248.00,3.7299
1247.00,3.7225
1246.00,3.7054
1245.00,3.6863
1244.00,3.6743
1243.00,3.6798
1242.00,3.7057
1241.00,3.7284
1240.00,3.7186
1239.00,3.6947
1238.00,3.6944
1237.00,3.7315
1236.00,3.7908
1235.00,3.8331
1234.00,3.8306
1233.00,3.7961
1232.00,3.7579
1231.00,3.7340
1230.00,3.7316
1229.00,3.7471
1228.00,3.7668
1227.00,3.7826
1226.00,3.8099
1225.00,3.8738
1224.00,3.9736
1223.00,4.0576
1222.00,4.0712
1221.00,4.0343
1220.00,3.9946
1219.00,3.9716
1218.00,3.9575
1217.00,3.9393
1216.00,3.9134
1215.00,3.8876
1214.00,3.8724
1213.00,3.8660
1212.00,3.8483
1211.00,3.8032
1210.00,3.7509
1209.00,3.7259
1208.00,3.7417
1207.00,3.7822
1206.00,3.8115
1205.00,3.8112
1204.00,3.7923
1203.00,3.7682
1202.00,3.7450
1201.00,3.7254
1200.00,3.7117
1199.00,3.7042
1198.00,3.6989
1197.00,3.6926
1196.00,3.6877
1195.00,3.6841
1194.00,3.6795
1193.00,3.6779
1192.00,3.6839
1191.00,3.6936
1190.00,3.6967
1189.00,3.6917
1188.00,3.6871
1187.00,3.6914
1186.00,3.7063
1185.00,3.7230
1184.00,3.7286
1183.00,3.7164
1182.00,3.6925
1181.00,3.6721
1180.00,3.6634
1179.00,3.6597
1178.00,3.6492
1177.00,3.6269
1176.00,3.5973
1175.00,3.5720
1174.00,3.5613
1173.00,3.5670
1172.00,3.5825
1171.00,3.6026
1170.00,3.6313
1169.00,3.6697
1168.00,3.7037
1167.00,3.7165
1166.00,3.7091
1165.00,3.6996
1164.00,3.7032
1163.00,3.7160
1162.00,3.7181
1161.00,3.6939
1160.00,3.6524
1159.00,3.6147
1158.00,3.5897
1157.00,3.5728
1156.00,3.5593
1155.00,3.5490
1154.00,3.5433
1153.00,3.5402
1152.00,3.5347
1151.00,3.5284
1150.00,3.5283
1149.00,3.5339
1148.00,3.5331
1147.00,3.5161
1146.00,3.4917
1145.00,3.4755
1144.00,3.4689
1143.00,3.4606
1142.00,3.4442
1141.00,3.4247
1140.00,3.4080
1139.00,3.3938
1138.00,3.3778
1137.00,3.3554
1136.00,3.3223
1135.00,3.2802
1134.00,3.2410
1133.00,3.2188
1132.00,3.2188
1131.00,3.2322
1130.00,3.2426
1129.00,3.2393
1128.00,3.2268
1127.00,3.2218
1126.00,3.2409
1125.00,3.2936
1124.00,3.3798
1123.00,3.4917
1122.00,3.6217
1121.00,3.7707
1120.00,3.9327
1119.00,4.0586
1118.00,4.0951
1117.00,4.0667
1116.00,3.9977
1115.00,3.9009
1114.00,3.8162
1113.00,3.7679
1112.00,3.7534
1111.00,3.7518
1110.00,3.7395
1109.00,3.7157
1108.00,3.6942
1107.00,3.6736
1106.00,3.6412
1105.00,3.5963
1104.00,3.5483
1103.00,3.5034
1102.00,3.4621
1101.00,3.4228
1100.00,3.3832
1099.00,3.3402
1098.00,3.2922
1097.00,3.2422
1096.00,3.1971
1095.00,3.1647
1094.00,3.1502
1093.00,3.1526
1092.00,3.1627
1091.00,3.1670
1090.00,3.1565
1089.00,3.1309
1088.00,3.0958
1087.00,3.0577
1086.00,3.0231
1085.00,2.9960
1084.00,2.9763
1083.00,2.9611
1082.00,2.9486
1081.00,2.9393
1080.00,2.9344
1079.00,2.9338
1078.00,2.9378
1077.00,2.9485
1076.00,2.9665
1075.00,2.9873
1074.00,3.0028
1073.00,3.0072
1072.00,3.0024
1071.00,2.9954
1070.00,2.9933
1069.00,2.9996
1068.00,3.0144
1067.00,3.0347
1066.00,3.0565
1065.00,3.0761
1064.00,3.0917
1063.00,3.1048
1062.00,3.1199
1061.00,3.1397
1060.00,3.1624
1059.00,3.1843
1058.00,3.2062
1057.00,3.2330
1056.00,3.2642
1055.00,3.2909
1054.00,3.3043
1053.00,3.3064
1052.00,3.3031
1051.00,3.2938
1050.00,3.2725
1049.00,3.2399
1048.00,3.2037
1047.00,3.1701
1046.00,3.1420
1045.00,3.1226
1044.00,3.1141
1043.00,3.1153
1042.00,3.1232
1041.00,3.1354
1040.00,3.1517
1039.00,3.1734
1038.00,3.2020
1037.00,3.2382
1036.00,3.2794
1035.00,3.3195
1034.00,3.3529
1033.00,3.3804
1032.00,3.4065
1031.00,3.4331
1030.00,3.4612
1029.00,3.4928
1028.00,3.5310
1027.00,3.5718
1026.00,3.6016
1025.00,3.6163
1024.00,3.6327
1023.00,3.6661
1022.00,3.7144
1021.00,3.7552
1020.00,3.7604
1019.00,3.7236
1018.00,3.6664
1017.00,3.6157
1016.00,3.5871
1015.00,3.5834
1014.00,3.6007
1013.00,3.6382
1012.00,3.7029
1011.00,3.7993
1010.00,3.9035
1009.00,3.9499
1008.00,3.9072
1007.00,3.8379
1006.00,3.8061
1005.00,3.8318
1004.00,3.9006
1003.00,3.9762
1002.00,4.0287
1001.00,4.0591
1000.00,4.0865
999.00,4.1277
998.00,4.1648
997.00,4.1496
996.00,4.0866
995.00,4.0183
994.00,3.9632
993.00,3.9219
992.00,3.8895
991.00,3.8719
990.00,3.8914
989.00,3.9657
988.00,4.0869
987.00,4.2166
986.00,4.3057
985.00,4.3293
984.00,4.3336
983.00,4.3651
982.00,4.3827
981.00,4.3729
980.00,4.3422
979.00,4.2476
978.00,4.1575
977.00,4.1517
976.00,4.1984
975.00,4.2272
974.00,4.2309
973.00,4.3409
972.00,4.7204
971.00,4.5087
970.00,4.2325
969.00,4.1966
968.00,4.3091
967.00,4.5169
966.00,4.5103
965.00,4.3447
964.00,4.2967
963.00,4.3371
962.00,4.4044
961.00,4.5550
960.00,4.6435
959.00,4.5550
958.00,4.5851
957.00,4.6089
956.00,4.4635
955.00,4.2863
954.00,4.1530
953.00,4.0700
952.00,4.0121
951.00,3.9700
950.00,3.9577
949.00,3.9889
948.00,4.0743
947.00,4.2234
946.00,4.4305
945.00,4.6615
944.00,4.8821
943.00,4.8559
942.00,4.5815
941.00,4.3746
940.00,4.2311
939.00,4.1193
938.00,4.0419
937.00,4.0108
936.00,4.0376
935.00,4.1309
934.00,4.2629
933.00,4.3325
932.00,4.3096
931.00,4.2794
930.00,4.2645
929.00,4.2670
928.00,4.3144
927.00,4.3530
926.00,4.2664
925.00,4.1120
924.00,4.0032
923.00,3.9815
922.00,4.0473
921.00,4.1685
920.00,4.2667
919.00,4.2418
918.00,4.1407
917.00,4.0917
916.00,4.1265
915.00,4.2182
914.00,4.3129
913.00,4.4082
912.00,4.7016
911.00,4.9027
910.00,4.4556
909.00,4.3481
908.00,4.4379
907.00,4.5514
906.00,4.4517
905.00,4.3617
904.00,4.3781
903.00,4.3363
902.00,4.2453
901.00,4.2786
900.00,4.5835
899.00,4.8605
898.00,4.3495
897.00,4.1781
896.00,4.1675
895.00,4.2622
894.00,4.4513
893.00,4.6964
892.00,4.7930
891.00,4.6320
890.00,4.5875
889.00,4.4744
888.00,4.2938
887.00,4.1478
886.00,4.0463
885.00,4.0381
884.00,4.1490
883.00,4.4530
882.00,5.1634
881.00,4.8798
880.00,4.9012
879.00,4.6911
878.00,4.3248
877.00,4.1331
876.00,4.0722
875.00,4.1459
874.00,4.4476
873.00,5.0014
872.00,4.4505
871.00,4.2984
870.00,4.2849
869.00,4.2969
868.00,4.3691
867.00,4.5454
866.00,4.7116
865.00,4.6405
864.00,4.7887
863.00,4.9652
862.00,4.6594
861.00,4.5873
860.00,4.5191
859.00,4.3998
858.00,4.3825
857.00,4.4908
856.00,4.7618
855.00,5.3158
854.00,4.9957
853.00,4.8600
852.00,5.1022
851.00,5.4324
850.00,5.6165
849.00,6.4288
848.00,5.4241
847.00,4.8094
846.00,4.5595
845.00,4.4851
844.00,4.5302
843.00,4.7033
842.00,4.6867
841.00,4.6742
840.00,5.1700
839.00,4.7279
838.00,4.4521
837.00,4.4219
836.00,4.6745
835.00,4.7891
834.00,4.2100
833.00,3.9822
832.00,3.9024
831.00,3.9081
830.00,3.9769
829.00,4.0895
828.00,4.2320
827.00,4.4463
826.00,4.8695
825.00,4.5825
824.00,4.3040
823.00,4.2563
822.00,4.2922
821.00,4.3389
820.00,4.2810
819.00,4.1293
818.00,4.0420
817.00,4.0474
816.00,4.1553
815.00,4.2654
814.00,4.1704
813.00,4.1120
812.00,4.2092
811.00,4.3470
810.00,4.2799
809.00,4.1894
808.00,4.1272
807.00,4.0847
806.00,4.0883
805.00,4.1278
804.00,4.1947
803.00,4.3457
802.00,4.6483
801.00,5.0184
800.00,4.7322
799.00,4.1982
798.00,4.0130
797.00,4.0085
796.00,4.1046
795.00,4.2065
794.00,4.1787
793.00,4.1176
792.00,4.1247
791.00,4.1862
790.00,4.2301
789.00,4.2053
788.00,4.1326
787.00,4.0566
786.00,4.0222
785.00,4.0521
784.00,4.1160
783.00,4.2118
782.00,4.3809
781.00,4.3421
780.00,4.1404
779.00,4.0137
778.00,3.9600
777.00,3.9979
776.00,4.1613
775.00,4.3241
774.00,4.2062
773.00,4.0915
772.00,4.0596
771.00,4.1020
770.00,4.1678
769.00,4.1801
768.00,4.2134
767.00,4.4257
766.00,4.8136
765.00,4.4311
764.00,4.2975
763.00,4.3633
762.00,4.5984
761.00,4.7077
760.00,4.4861
759.00,4.4122
758.00,4.4191
757.00,4.4141
756.00,4.3464
755.00,4.2415
754.00,4.1915
753.00,4.2598
752.00,4.5657
751.00,5.0007
750.00,4.5167
749.00,4.4097
748.00,4.4229
747.00,4.5300
746.00,4.8799
745.00,4.5423
744.00,4.2905
743.00,4.2794
742.00,4.5274
741.00,5.1999
740.00,4.4897
739.00,4.2692
738.00,4.1917
737.00,4.1876
736.00,4.2190
735.00,4.2291
734.00,4.2073
733.00,4.1609
732.00,4.1147
731.00,4.0802
730.00,4.0615
729.00,4.0712
728.00,4.0814
727.00,4.1808
726.00,4.6635
725.00,4.3733
724.00,4.0717
723.00,4.0227
722.00,4.0394
721.00,3.9770
720.00,3.8858
719.00,3.8673
718.00,3.9256
717.00,3.9759
716.00,3.9397
715.00,3.9028
714.00,3.9046
713.00,3.9415
712.00,4.0365
711.00,4.2777
710.00,4.4792
709.00,4.1180
708.00,3.9779
707.00,4.0283
706.00,4.2561
705.00,4.2107
704.00,3.9638
703.00,3.8909
702.00,3.9645
701.00,4.1452
700.00,4.1955
699.00,4.1091
698.00,4.0678
697.00,4.0480
696.00,4.0969
695.00,4.3044
694.00,4.5029
693.00,4.3151
692.00,4.2031
691.00,4.1069
690.00,3.9943
689.00,3.9440
688.00,3.9941
687.00,4.1350
686.00,4.2494
685.00,4.1804
684.00,4.0780
683.00,4.0368
682.00,4.0444
681.00,4.0848
680.00,4.1425
679.00,4.1811
678.00,4.1210
677.00,3.9812
676.00,3.9046
675.00,3.9369
674.00,4.0375
673.00,4.1095
672.00,4.1127
671.00,4.1567
670.00,4.2110
669.00,3.9904
668.00,3.7989
667.00,3.7624
666.00,3.8558
665.00,4.0255
664.00,4.1120
663.00,4.0862
662.00,4.1149
661.00,4.1880
660.00,4.2368
659.00,4.2332
658.00,4.1583
657.00,4.0603
656.00,4.0068
655.00,4.0280
654.00,4.1112
653.00,4.2566
652.00,4.5320
651.00,4.8266
650.00,4.6316
649.00,4.6578
648.00,4.6758
647.00,4.2882
646.00,4.0556
645.00,3.9130
644.00,3.8072
643.00,3.7437
642.00,3.7252
641.00,3.7607
640.00,3.8668
639.00,4.0106
638.00,4.0903
637.00,4.1307
636.00,4.1876
635.00,4.2505
634.00,4.3508
633.00,4.4862
632.00,4.5505
631.00,4.5361
630.00,4.3412
629.00,4.1227
628.00,4.0016
627.00,3.9882
626.00,4.0916
625.00,4.3219
624.00,4.6199
623.00,4.7635
622.00,4.8180
621.00,4.5894
620.00,4.3000
619.00,4.1320
618.00,4.0536
617.00,3.9991
616.00,3.9255
615.00,3.8637
614.00,3.8381
613.00,3.8384
612.00,3.8563
611.00,3.8995
610.00,3.9944
609.00,4.1715
608.00,4.2632
607.00,4.1208
606.00,3.9848
605.00,3.8814
604.00,3.8171
603.00,3.8025
602.00,3.8381
601.00,3.9124
600.00,3.9915
599.00,4.0303
598.00,4.0168
597.00,3.9941
596.00,4.0392
595.00,4.2101
594.00,4.2314
593.00,4.0235
592.00,3.9060
591.00,3.8494
590.00,3.8214
589.00,3.8141
588.00,3.8357
587.00,3.9051
586.00,4.0699
585.00,4.4409
584.00,4.7244
583.00,4.5749
582.00,4.5504
581.00,4.3061
580.00,4.1446
579.00,4.2372
578.00,4.2698
577.00,3.9504
576.00,3.8296
575.00,3.8478
574.00,3.9386
573.00,4.0066
572.00,3.9604
571.00,3.8947
570.00,3.8729
569.00,3.8825
568.00,3.9127
567.00,3.9552
566.00,3.9675
565.00,3.9074
564.00,3.7819
563.00,3.6533
562.00,3.5608
561.00,3.5145
560.00,3.5237
559.00,3.5989
558.00,3.7263
557.00,3.8257
556.00,3.8547
555.00,3.8787
554.00,3.9222
553.00,3.9808
552.00,4.0509
551.00,4.1069
550.00,4.1203
549.00,4.1179
548.00,4.1046
547.00,4.0387
546.00,3.9168
545.00,3.8135
544.00,3.7861
543.00,3.7853
542.00,3.6939
541.00,3.5593
540.00,3.4689
539.00,3.4385
538.00,3.4570
537.00,3.5180
536.00,3.6388
535.00,3.8392
534.00,4.0025
533.00,4.0174
532.00,4.1402
531.00,4.0394
530.00,3.6659
529.00,3.4685
528.00,3.4196
527.00,3.5052
526.00,3.7337
525.00,3.9936
524.00,3.9242
523.00,3.9123
522.00,4.1240
521.00,4.0588
520.00,3.6919
519.00,3.5053
518.00,3.4394
517.00,3.4753
516.00,3.5946
515.00,3.7050
514.00,3.6772
513.00,3.5848
512.00,3.5238
511.00,3.5128
510.00,3.5353
509.00,3.5458
508.00,3.5023
507.00,3.4591
506.00,3.4547
505.00,3.4762
504.00,3.4882
503.00,3.4755
502.00,3.4775
501.00,3.5035
500.00,3.5243
499.00,3.5277
498.00,3.5207
497.00,3.4851
496.00,3.3952
495.00,3.3018
494.00,3.2766
493.00,3.3310
492.00,3.3950
491.00,3.3972
490.00,3.3993
489.00,3.4338
488.00,3.4167
487.00,3.3559
486.00,3.3394
485.00,3.3613
484.00,3.4221
483.00,3.5426
482.00,3.5554
481.00,3.4333
480.00,3.4304
479.00,3.6635
478.00,4.1718
477.00,3.7017
476.00,3.5500
475.00,3.5930
474.00,3.6797
473.00,3.6335
472.00,3.6796
471.00,4.0230
470.00,4.3132
469.00,3.8259
468.00,3.6825
467.00,3.6353
466.00,3.5280
465.00,3.4771
464.00,3.6210
463.00,3.9120
462.00,3.7826
461.00,3.6740
460.00,3.6489
459.00,3.6790
458.00,3.8112
457.00,4.0349
456.00,3.9627
455.00,3.7078
454.00,3.5131
453.00,3.3651
452.00,3.2809
451.00,3.2588
450.00,3.2629
449.00,3.2902
448.00,3.3533
447.00,3.4176
446.00,3.4176
445.00,3.3722
444.00,3.3699
443.00,3.4523
442.00,3.6693
441.00,4.3155
440.00,3.7440
439.00,3.4562
438.00,3.2988
437.00,3.2123
436.00,3.2400
435.00,3.4673
434.00,4.0798
433.00,3.4457
432.00,3.2771
431.00,3.2969
430.00,3.4434
429.00,3.7462
428.00,3.9317
427.00,3.4826
426.00,3.2451
425.00,3.0819
424.00,2.9952
423.00,2.9848
422.00,3.0331
421.00,3.1251
420.00,3.2702
419.00,3.4851
418.00,3.5233
417.00,3.3230
416.00,3.3145
415.00,3.7657
414.00,3.5071
413.00,3.1438
412.00,3.1153
411.00,3.3368
410.00,3.7096
409.00,3.1380
408.00,2.8720
407.00,2.7578
406.00,2.7438
405.00,2.7700
404.00,2.7507
403.00,2.7099
402.00,2.6844
401.00,2.6794
400.00,2.7211
