Created as New Dataset,Sample 178 By Administrator Date Friday, November 26 2021
cm-1,A
7000.00,0.8124
6999.00,0.8098
6998.00,0.8073
6997.00,0.8050
6996.00,0.8030
6995.00,0.8012
6994.00,0.7993
6993.00,0.7972
6992.00,0.7950
6991.00,0.7930
6990.00,0.7912
6989.00,0.7893
6988.00,0.7874
6987.00,0.7854
6986.00,0.7835
6985.00,0.7816
6984.00,0.7799
6983.00,0.7782
6982.00,0.7765
6981.00,0.7749
6980.00,0.7734
6979.00,0.7721
6978.00,0.7710
6977.00,0.7700
6976.00,0.7691
6975.00,0.7682
6974.00,0.7673
6973.00,0.7666
6972.00,0.7661
6971.00,0.7656
6970.00,0.7650
6969.00,0.7644
6968.00,0.7638
6967.00,0.7634
6966.00,0.7633
6965.00,0.7633
6964.00,0.7634
6963.00,0.7635
6962.00,0.7637
6961.00,0.7642
6960.00,0.7645
6959.00,0.7648
6958.00,0.7650
6957.00,0.7655
6956.00,0.7662
6955.00,0.7671
6954.00,0.7682
6953.00,0.7693
6952.00,0.7703
6951.00,0.7713
6950.00,0.7722
6949.00,0.7733
6948.00,0.7743
6947.00,0.7755
6946.00,0.7768
6945.00,0.7785
6944.00,0.7805
6943.00,0.7825
6942.00,0.7845
6941.00,0.7864
6940.00,0.7883
6939.00,0.7902
6938.00,0.7922
6937.00,0.7944
6936.00,0.7965
6935.00,0.7987
6934.00,0.8011
6933.00,0.8038
6932.00,0.8066
6931.00,0.8094
6930.00,0.8122
6929.00,0.8150
6928.00,0.8179
6927.00,0.8210
6926.00,0.8240
6925.00,0.8271
6924.00,0.8301
6923.00,0.8331
6922.00,0.8362
6921.00,0.8393
6920.00,0.8425
6919.00,0.8458
6918.00,0.8491
6917.00,0.8527
6916.00,0.8565
6915.00,0.8602
6914.00,0.8638
6913.00,0.8674
6912.00,0.8709
6911.00,0.8743
6910.00,0.8778
6909.00,0.8816
6908.00,0.8855
6907.00,0.8895
6906.00,0.8935
6905.00,0.8975
6904.00,0.9014
6903.00,0.9052
6902.00,0.9089
6901.00,0.9126
6900.00,0.9162
6899.00,0.9199
6898.00,0.9239
6897.00,0.9282
6896.00,0.9325
6895.00,0.9367
6894.00,0.9408
6893.00,0.9448
6892.00,0.9488
6891.00,0.9528
6890.00,0.9569
6889.00,0.9611
6888.00,0.9654
6887.00,0.9696
6886.00,0.9737
6885.00,0.9776
6884.00,0.9814
6883.00,0.9851
6882.00,0.9888
6881.00,0.9926
6880.00,0.9967
6879.00,1.0009
6878.00,1.0053
6877.00,1.0094
6876.00,1.0132
6875.00,1.0167
6874.00,1.0203
6873.00,1.0242
6872.00,1.0283
6871.00,1.0323
6870.00,1.0363
6869.00,1.0403
6868.00,1.0443
6867.00,1.0480
6866.00,1.0514
6865.00,1.0547
6864.00,1.0581
6863.00,1.0616
6862.00,1.0653
6861.00,1.0689
6860.00,1.0725
6859.00,1.0759
6858.00,1.0794
6857.00,1.0830
6856.00,1.0864
6855.00,1.0897
6854.00,1.0930
6853.00,1.0964
6852.00,1.0997
6851.00,1.1028
6850.00,1.1056
6849.00,1.1084
6848.00,1.1112
6847.00,1.1143
6846.00,1.1175
6845.00,1.1208
6844.00,1.1239
6843.00,1.1269
6842.00,1.1295
6841.00,1.1318
6840.00,1.1339
6839.00,1.1361
6838.00,1.1384
6837.00,1.1409
6836.00,1.1436
6835.00,1.1465
6834.00,1.1494
6833.00,1.1520
6832.00,1.1544
6831.00,1.1568
6830.00,1.1592
6829.00,1.1614
6828.00,1.1633
6827.00,1.1650
6826.00,1.1668
6825.00,1.1689
6824.00,1.1710
6823.00,1.1729
6822.00,1.1749
6821.00,1.1772
6820.00,1.1796
6819.00,1.1819
6818.00,1.1837
6817.00,1.1850
6816.00,1.1864
6815.00,1.1879
6814.00,1.1897
6813.00,1.1913
6812.00,1.1929
6811.00,1.1942
6810.00,1.1953
6809.00,1.1961
6808.00,1.1966
6807.00,1.1971
6806.00,1.1978
6805.00,1.1989
6804.00,1.2002
6803.00,1.2015
6802.00,1.2028
6801.00,1.2040
6800.00,1.2049
6799.00,1.2054
6798.00,1.2055
6797.00,1.2056
6796.00,1.2059
6795.00,1.2061
6794.00,1.2062
6793.00,1.2064
6792.00,1.2068
6791.00,1.2074
6790.00,1.2079
6789.00,1.2083
6788.00,1.2086
6787.00,1.2086
6786.00,1.2084
6785.00,1.2080
6784.00,1.2077
6783.00,1.2075
6782.00,1.2073
6781.00,1.2072
6780.00,1.2073
6779.00,1.2075
6778.00,1.2075
6777.00,1.2071
6776.00,1.2066
6775.00,1.2061
6774.00,1.2053
6773.00,1.2042
6772.00,1.2030
6771.00,1.2018
6770.00,1.2008
6769.00,1.2000
6768.00,1.1994
6767.00,1.1990
6766.00,1.1983
6765.00,1.1973
6764.00,1.1960
6763.00,1.1945
6762.00,1.1930
6761.00,1.1914
6760.00,1.1899
6759.00,1.1885
6758.00,1.1873
6757.00,1.1859
6756.00,1.1841
6755.00,1.1821
6754.00,1.1801
6753.00,1.1785
6752.00,1.1770
6751.00,1.1755
6750.00,1.1736
6749.00,1.1717
6748.00,1.1698
6747.00,1.1679
6746.00,1.1656
6745.00,1.1629
6744.00,1.1605
6743.00,1.1587
6742.00,1.1573
6741.00,1.1556
6740.00,1.1535
6739.00,1.1513
6738.00,1.1493
6737.00,1.1472
6736.00,1.1447
6735.00,1.1418
6734.00,1.1387
6733.00,1.1357
6732.00,1.1328
6731.00,1.1300
6730.00,1.1272
6729.00,1.1241
6728.00,1.1210
6727.00,1.1182
6726.00,1.1156
6725.00,1.1130
6724.00,1.1099
6723.00,1.1066
6722.00,1.1034
6721.00,1.1002
6720.00,1.0970
6719.00,1.0939
6718.00,1.0907
6717.00,1.0876
6716.00,1.0845
6715.00,1.0815
6714.00,1.0783
6713.00,1.0749
6712.00,1.0711
6711.00,1.0672
6710.00,1.0634
6709.00,1.0597
6708.00,1.0560
6707.00,1.0521
6706.00,1.0482
6705.00,1.0443
6704.00,1.0404
6703.00,1.0364
6702.00,1.0325
6701.00,1.0287
6700.00,1.0249
6699.00,1.0210
6698.00,1.0172
6697.00,1.0135
6696.00,1.0097
6695.00,1.0058
6694.00,1.0018
6693.00,0.9979
6692.00,0.9941
6691.00,0.9902
6690.00,0.9862
6689.00,0.9820
6688.00,0.9778
6687.00,0.9736
6686.00,0.9694
6685.00,0.9653
6684.00,0.9612
6683.00,0.9570
6682.00,0.9529
6681.00,0.9489
6680.00,0.9449
6679.00,0.9409
6678.00,0.9368
6677.00,0.9326
6676.00,0.9285
6675.00,0.9243
6674.00,0.9203
6673.00,0.9162
6672.00,0.9122
6671.00,0.9082
6670.00,0.9043
6669.00,0.9004
6668.00,0.8964
6667.00,0.8925
6666.00,0.8886
6665.00,0.8847
6664.00,0.8807
6663.00,0.8767
6662.00,0.8728
6661.00,0.8689
6660.00,0.8650
6659.00,0.8612
6658.00,0.8575
6657.00,0.8538
6656.00,0.8502
6655.00,0.8465
6654.00,0.8427
6653.00,0.8390
6652.00,0.8353
6651.00,0.8315
6650.00,0.8278
6649.00,0.8242
6648.00,0.8209
6647.00,0.8176
6646.00,0.8143
6645.00,0.8110
6644.00,0.8077
6643.00,0.8045
6642.00,0.8014
6641.00,0.7984
6640.00,0.7955
6639.00,0.7927
6638.00,0.7899
6637.00,0.7871
6636.00,0.7845
6635.00,0.7818
6634.00,0.7791
6633.00,0.7765
6632.00,0.7740
6631.00,0.7715
6630.00,0.7690
6629.00,0.7666
6628.00,0.7641
6627.00,0.7616
6626.00,0.7593
6625.00,0.7571
6624.00,0.7552
6623.00,0.7534
6622.00,0.7516
6621.00,0.7498
6620.00,0.7481
6619.00,0.7463
6618.00,0.7445
6617.00,0.7428
6616.00,0.7412
6615.00,0.7399
6614.00,0.7386
6613.00,0.7374
6612.00,0.7363
6611.00,0.7352
6610.00,0.7342
6609.00,0.7333
6608.00,0.7324
6607.00,0.7315
6606.00,0.7309
6605.00,0.7303
6604.00,0.7298
6603.00,0.7292
6602.00,0.7287
6601.00,0.7284
6600.00,0.7282
6599.00,0.7282
6598.00,0.7283
6597.00,0.7285
6596.00,0.7287
6595.00,0.7289
6594.00,0.7293
6593.00,0.7298
6592.00,0.7304
6591.00,0.7309
6590.00,0.7316
6589.00,0.7325
6588.00,0.7335
6587.00,0.7346
6586.00,0.7357
6585.00,0.7369
6584.00,0.7382
6583.00,0.7396
6582.00,0.7409
6581.00,0.7422
6580.00,0.7437
6579.00,0.7452
6578.00,0.7470
6577.00,0.7490
6576.00,0.7510
6575.00,0.7530
6574.00,0.7552
6573.00,0.7574
6572.00,0.7596
6571.00,0.7618
6570.00,0.7642
6569.00,0.7667
6568.00,0.7693
6567.00,0.7719
6566.00,0.7747
6565.00,0.7774
6564.00,0.7803
6563.00,0.7833
6562.00,0.7864
6561.00,0.7894
6560.00,0.7925
6559.00,0.7957
6558.00,0.7990
6557.00,0.8024
6556.00,0.8057
6555.00,0.8091
6554.00,0.8127
6553.00,0.8165
6552.00,0.8203
6551.00,0.8241
6550.00,0.8280
6549.00,0.8319
6548.00,0.8358
6547.00,0.8396
6546.00,0.8434
6545.00,0.8472
6544.00,0.8511
6543.00,0.8550
6542.00,0.8592
6541.00,0.8635
6540.00,0.8678
6539.00,0.8721
6538.00,0.8763
6537.00,0.8806
6536.00,0.8849
6535.00,0.8893
6534.00,0.8937
6533.00,0.8982
6532.00,0.9026
6531.00,0.9069
6530.00,0.9113
6529.00,0.9156
6528.00,0.9200
6527.00,0.9243
6526.00,0.9288
6525.00,0.9334
6524.00,0.9380
6523.00,0.9426
6522.00,0.9472
6521.00,0.9519
6520.00,0.9565
6519.00,0.9609
6518.00,0.9653
6517.00,0.9698
6516.00,0.9743
6515.00,0.9786
6514.00,0.9831
6513.00,0.9878
6512.00,0.9925
6511.00,0.9973
6510.00,1.0020
6509.00,1.0065
6508.00,1.0108
6507.00,1.0147
6506.00,1.0187
6505.00,1.0229
6504.00,1.0272
6503.00,1.0314
6502.00,1.0356
6501.00,1.0400
6500.00,1.0444
6499.00,1.0487
6498.00,1.0529
6497.00,1.0572
6496.00,1.0614
6495.00,1.0655
6494.00,1.0694
6493.00,1.0732
6492.00,1.0770
6491.00,1.0809
6490.00,1.0849
6489.00,1.0890
6488.00,1.0930
6487.00,1.0969
6486.00,1.1008
6485.00,1.1044
6484.00,1.1080
6483.00,1.1113
6482.00,1.1147
6481.00,1.1182
6480.00,1.1217
6479.00,1.1251
6478.00,1.1284
6477.00,1.1317
6476.00,1.1350
6475.00,1.1382
6474.00,1.1415
6473.00,1.1448
6472.00,1.1480
6471.00,1.1511
6470.00,1.1540
6469.00,1.1569
6468.00,1.1598
6467.00,1.1628
6466.00,1.1658
6465.00,1.1689
6464.00,1.1718
6463.00,1.1745
6462.00,1.1771
6461.00,1.1797
6460.00,1.1822
6459.00,1.1846
6458.00,1.1869
6457.00,1.1892
6456.00,1.1916
6455.00,1.1941
6454.00,1.1964
6453.00,1.1987
6452.00,1.2010
6451.00,1.2033
6450.00,1.2057
6449.00,1.2079
6448.00,1.2099
6447.00,1.2118
6446.00,1.2138
6445.00,1.2157
6444.00,1.2173
6443.00,1.2187
6442.00,1.2200
6441.00,1.2216
6440.00,1.2232
6439.00,1.2248
6438.00,1.2265
6437.00,1.2283
6436.00,1.2299
6435.00,1.2311
6434.00,1.2321
6433.00,1.2332
6432.00,1.2345
6431.00,1.2357
6430.00,1.2367
6429.00,1.2378
6428.00,1.2387
6427.00,1.2395
6426.00,1.2399
6425.00,1.2403
6424.00,1.2410
6423.00,1.2421
6422.00,1.2431
6421.00,1.2438
6420.00,1.2441
6419.00,1.2439
6418.00,1.2435
6417.00,1.2432
6416.00,1.2431
6415.00,1.2434
6414.00,1.2441
6413.00,1.2450
6412.00,1.2458
6411.00,1.2464
6410.00,1.2466
6409.00,1.2464
6408.00,1.2460
6407.00,1.2456
6406.00,1.2452
6405.00,1.2448
6404.00,1.2443
6403.00,1.2439
6402.00,1.2435
6401.00,1.2432
6400.00,1.2427
6399.00,1.2422
6398.00,1.2417
6397.00,1.2411
6396.00,1.2405
6395.00,1.2397
6394.00,1.2388
6393.00,1.2379
6392.00,1.2368
6391.00,1.2356
6390.00,1.2343
6389.00,1.2330
6388.00,1.2317
6387.00,1.2305
6386.00,1.2296
6385.00,1.2288
6384.00,1.2279
6383.00,1.2269
6382.00,1.2257
6381.00,1.2242
6380.00,1.2225
6379.00,1.2206
6378.00,1.2188
6377.00,1.2171
6376.00,1.2154
6375.00,1.2137
6374.00,1.2121
6373.00,1.2104
6372.00,1.2085
6371.00,1.2063
6370.00,1.2039
6369.00,1.2014
6368.00,1.1989
6367.00,1.1964
6366.00,1.1940
6365.00,1.1916
6364.00,1.1891
6363.00,1.1866
6362.00,1.1842
6361.00,1.1819
6360.00,1.1797
6359.00,1.1773
6358.00,1.1749
6357.00,1.1725
6356.00,1.1698
6355.00,1.1669
6354.00,1.1638
6353.00,1.1606
6352.00,1.1573
6351.00,1.1540
6350.00,1.1507
6349.00,1.1475
6348.00,1.1442
6347.00,1.1408
6346.00,1.1374
6345.00,1.1341
6344.00,1.1306
6343.00,1.1270
6342.00,1.1233
6341.00,1.1198
6340.00,1.1164
6339.00,1.1131
6338.00,1.1098
6337.00,1.1065
6336.00,1.1031
6335.00,1.0996
6334.00,1.0958
6333.00,1.0920
6332.00,1.0880
6331.00,1.0839
6330.00,1.0797
6329.00,1.0756
6328.00,1.0715
6327.00,1.0675
6326.00,1.0634
6325.00,1.0594
6324.00,1.0554
6323.00,1.0513
6322.00,1.0471
6321.00,1.0428
6320.00,1.0386
6319.00,1.0346
6318.00,1.0306
6317.00,1.0265
6316.00,1.0224
6315.00,1.0181
6314.00,1.0138
6313.00,1.0094
6312.00,1.0050
6311.00,1.0006
6310.00,0.9964
6309.00,0.9923
6308.00,0.9882
6307.00,0.9840
6306.00,0.9798
6305.00,0.9755
6304.00,0.9712
6303.00,0.9668
6302.00,0.9625
6301.00,0.9583
6300.00,0.9540
6299.00,0.9495
6298.00,0.9450
6297.00,0.9405
6296.00,0.9361
6295.00,0.9317
6294.00,0.9274
6293.00,0.9233
6292.00,0.9194
6291.00,0.9154
6290.00,0.9115
6289.00,0.9075
6288.00,0.9033
6287.00,0.8990
6286.00,0.8947
6285.00,0.8905
6284.00,0.8865
6283.00,0.8825
6282.00,0.8786
6281.00,0.8748
6280.00,0.8711
6279.00,0.8672
6278.00,0.8633
6277.00,0.8594
6276.00,0.8555
6275.00,0.8517
6274.00,0.8479
6273.00,0.8442
6272.00,0.8405
6271.00,0.8370
6270.00,0.8335
6269.00,0.8300
6268.00,0.8266
6267.00,0.8233
6266.00,0.8200
6265.00,0.8169
6264.00,0.8138
6263.00,0.8108
6262.00,0.8078
6261.00,0.8050
6260.00,0.8022
6259.00,0.7993
6258.00,0.7964
6257.00,0.7935
6256.00,0.7905
6255.00,0.7877
6254.00,0.7851
6253.00,0.7825
6252.00,0.7801
6251.00,0.7779
6250.00,0.7757
6249.00,0.7736
6248.00,0.7715
6247.00,0.7695
6246.00,0.7675
6245.00,0.7655
6244.00,0.7637
6243.00,0.7620
6242.00,0.7604
6241.00,0.7589
6240.00,0.7574
6239.00,0.7561
6238.00,0.7549
6237.00,0.7538
6236.00,0.7527
6235.00,0.7517
6234.00,0.7509
6233.00,0.7501
6232.00,0.7495
6231.00,0.7489
6230.00,0.7485
6229.00,0.7483
6228.00,0.7482
6227.00,0.7482
6226.00,0.7483
6225.00,0.7485
6224.00,0.7488
6223.00,0.7490
6222.00,0.7494
6221.00,0.7501
6220.00,0.7509
6219.00,0.7518
6218.00,0.7528
6217.00,0.7538
6216.00,0.7549
6215.00,0.7560
6214.00,0.7573
6213.00,0.7587
6212.00,0.7602
6211.00,0.7619
6210.00,0.7636
6209.00,0.7655
6208.00,0.7675
6207.00,0.7695
6206.00,0.7717
6205.00,0.7740
6204.00,0.7764
6203.00,0.7789
6202.00,0.7815
6201.00,0.7842
6200.00,0.7869
6199.00,0.7896
6198.00,0.7926
6197.00,0.7958
6196.00,0.7991
6195.00,0.8025
6194.00,0.8059
6193.00,0.8094
6192.00,0.8130
6191.00,0.8166
6190.00,0.8201
6189.00,0.8237
6188.00,0.8274
6187.00,0.8311
6186.00,0.8348
6185.00,0.8387
6184.00,0.8427
6183.00,0.8467
6182.00,0.8508
6181.00,0.8550
6180.00,0.8593
6179.00,0.8635
6178.00,0.8677
6177.00,0.8719
6176.00,0.8763
6175.00,0.8808
6174.00,0.8853
6173.00,0.8899
6172.00,0.8947
6171.00,0.8994
6170.00,0.9042
6169.00,0.9090
6168.00,0.9136
6167.00,0.9182
6166.00,0.9227
6165.00,0.9271
6164.00,0.9316
6163.00,0.9362
6162.00,0.9410
6161.00,0.9458
6160.00,0.9508
6159.00,0.9557
6158.00,0.9607
6157.00,0.9656
6156.00,0.9704
6155.00,0.9752
6154.00,0.9799
6153.00,0.9846
6152.00,0.9894
6151.00,0.9942
6150.00,0.9991
6149.00,1.0040
6148.00,1.0088
6147.00,1.0135
6146.00,1.0182
6145.00,1.0227
6144.00,1.0273
6143.00,1.0318
6142.00,1.0364
6141.00,1.0411
6140.00,1.0458
6139.00,1.0506
6138.00,1.0553
6137.00,1.0597
6136.00,1.0640
6135.00,1.0682
6134.00,1.0725
6133.00,1.0767
6132.00,1.0809
6131.00,1.0853
6130.00,1.0898
6129.00,1.0943
6128.00,1.0987
6127.00,1.1029
6126.00,1.1069
6125.00,1.1110
6124.00,1.1149
6123.00,1.1189
6122.00,1.1227
6121.00,1.1264
6120.00,1.1299
6119.00,1.1333
6118.00,1.1369
6117.00,1.1406
6116.00,1.1444
6115.00,1.1480
6114.00,1.1518
6113.00,1.1555
6112.00,1.1591
6111.00,1.1624
6110.00,1.1658
6109.00,1.1693
6108.00,1.1730
6107.00,1.1766
6106.00,1.1799
6105.00,1.1829
6104.00,1.1858
6103.00,1.1885
6102.00,1.1911
6101.00,1.1936
6100.00,1.1960
6099.00,1.1983
6098.00,1.2007
6097.00,1.2032
6096.00,1.2059
6095.00,1.2088
6094.00,1.2116
6093.00,1.2142
6092.00,1.2166
6091.00,1.2188
6090.00,1.2209
6089.00,1.2229
6088.00,1.2247
6087.00,1.2265
6086.00,1.2285
6085.00,1.2307
6084.00,1.2326
6083.00,1.2343
6082.00,1.2360
6081.00,1.2378
6080.00,1.2393
6079.00,1.2405
6078.00,1.2416
6077.00,1.2429
6076.00,1.2445
6075.00,1.2461
6074.00,1.2476
6073.00,1.2492
6072.00,1.2507
6071.00,1.2520
6070.00,1.2531
6069.00,1.2541
6068.00,1.2551
6067.00,1.2561
6066.00,1.2570
6065.00,1.2579
6064.00,1.2586
6063.00,1.2591
6062.00,1.2594
6061.00,1.2596
6060.00,1.2597
6059.00,1.2598
6058.00,1.2599
6057.00,1.2600
6056.00,1.2600
6055.00,1.2600
6054.00,1.2599
6053.00,1.2596
6052.00,1.2591
6051.00,1.2587
6050.00,1.2583
6049.00,1.2580
6048.00,1.2576
6047.00,1.2571
6046.00,1.2567
6045.00,1.2564
6044.00,1.2560
6043.00,1.2557
6042.00,1.2554
6041.00,1.2552
6040.00,1.2548
6039.00,1.2541
6038.00,1.2533
6037.00,1.2524
6036.00,1.2515
6035.00,1.2505
6034.00,1.2493
6033.00,1.2479
6032.00,1.2463
6031.00,1.2445
6030.00,1.2427
6029.00,1.2407
6028.00,1.2388
6027.00,1.2370
6026.00,1.2356
6025.00,1.2342
6024.00,1.2326
6023.00,1.2307
6022.00,1.2288
6021.00,1.2268
6020.00,1.2246
6019.00,1.2222
6018.00,1.2199
6017.00,1.2178
6016.00,1.2159
6015.00,1.2138
6014.00,1.2117
6013.00,1.2094
6012.00,1.2071
6011.00,1.2049
6010.00,1.2028
6009.00,1.2008
6008.00,1.1989
6007.00,1.1972
6006.00,1.1954
6005.00,1.1935
6004.00,1.1915
6003.00,1.1895
6002.00,1.1874
6001.00,1.1855
6000.00,1.1836
5999.00,1.1818
5998.00,1.1801
5997.00,1.1785
5996.00,1.1769
5995.00,1.1752
5994.00,1.1736
5993.00,1.1721
5992.00,1.1707
5991.00,1.1691
5990.00,1.1674
5989.00,1.1656
5988.00,1.1638
5987.00,1.1620
5986.00,1.1601
5985.00,1.1583
5984.00,1.1566
5983.00,1.1549
5982.00,1.1532
5981.00,1.1512
5980.00,1.1489
5979.00,1.1463
5978.00,1.1436
5977.00,1.1409
5976.00,1.1382
5975.00,1.1355
5974.00,1.1329
5973.00,1.1304
5972.00,1.1279
5971.00,1.1254
5970.00,1.1227
5969.00,1.1198
5968.00,1.1165
5967.00,1.1131
5966.00,1.1096
5965.00,1.1062
5964.00,1.1030
5963.00,1.1000
5962.00,1.0970
5961.00,1.0939
5960.00,1.0904
5959.00,1.0866
5958.00,1.0826
5957.00,1.0787
5956.00,1.0750
5955.00,1.0714
5954.00,1.0680
5953.00,1.0645
5952.00,1.0608
5951.00,1.0568
5950.00,1.0526
5949.00,1.0481
5948.00,1.0437
5947.00,1.0392
5946.00,1.0348
5945.00,1.0304
5944.00,1.0259
5943.00,1.0213
5942.00,1.0167
5941.00,1.0122
5940.00,1.0076
5939.00,1.0031
5938.00,0.9985
5937.00,0.9940
5936.00,0.9894
5935.00,0.9848
5934.00,0.9803
5933.00,0.9757
5932.00,0.9712
5931.00,0.9667
5930.00,0.9621
5929.00,0.9574
5928.00,0.9526
5927.00,0.9479
5926.00,0.9432
5925.00,0.9386
5924.00,0.9339
5923.00,0.9294
5922.00,0.9250
5921.00,0.9206
5920.00,0.9161
5919.00,0.9116
5918.00,0.9071
5917.00,0.9026
5916.00,0.8981
5915.00,0.8937
5914.00,0.8894
5913.00,0.8851
5912.00,0.8808
5911.00,0.8764
5910.00,0.8721
5909.00,0.8679
5908.00,0.8638
5907.00,0.8598
5906.00,0.8558
5905.00,0.8518
5904.00,0.8478
5903.00,0.8437
5902.00,0.8397
5901.00,0.8358
5900.00,0.8320
5899.00,0.8283
5898.00,0.8247
5897.00,0.8212
5896.00,0.8177
5895.00,0.8142
5894.00,0.8107
5893.00,0.8073
5892.00,0.8042
5891.00,0.8011
5890.00,0.7982
5889.00,0.7952
5888.00,0.7922
5887.00,0.7893
5886.00,0.7863
5885.00,0.7835
5884.00,0.7809
5883.00,0.7784
5882.00,0.7760
5881.00,0.7737
5880.00,0.7714
5879.00,0.7692
5878.00,0.7670
5877.00,0.7650
5876.00,0.7630
5875.00,0.7612
5874.00,0.7595
5873.00,0.7580
5872.00,0.7565
5871.00,0.7552
5870.00,0.7541
5869.00,0.7531
5868.00,0.7521
5867.00,0.7512
5866.00,0.7503
5865.00,0.7496
5864.00,0.7489
5863.00,0.7484
5862.00,0.7480
5861.00,0.7478
5860.00,0.7476
5859.00,0.7476
5858.00,0.7477
5857.00,0.7480
5856.00,0.7484
5855.00,0.7489
5854.00,0.7495
5853.00,0.7503
5852.00,0.7511
5851.00,0.7521
5850.00,0.7532
5849.00,0.7544
5848.00,0.7558
5847.00,0.7573
5846.00,0.7588
5845.00,0.7604
5844.00,0.7622
5843.00,0.7641
5842.00,0.7661
5841.00,0.7682
5840.00,0.7705
5839.00,0.7728
5838.00,0.7753
5837.00,0.7780
5836.00,0.7807
5835.00,0.7836
5834.00,0.7865
5833.00,0.7896
5832.00,0.7927
5831.00,0.7958
5830.00,0.7992
5829.00,0.8027
5828.00,0.8063
5827.00,0.8099
5826.00,0.8135
5825.00,0.8173
5824.00,0.8211
5823.00,0.8249
5822.00,0.8289
5821.00,0.8330
5820.00,0.8371
5819.00,0.8412
5818.00,0.8453
5817.00,0.8496
5816.00,0.8539
5815.00,0.8583
5814.00,0.8628
5813.00,0.8675
5812.00,0.8721
5811.00,0.8767
5810.00,0.8813
5809.00,0.8860
5808.00,0.8908
5807.00,0.8956
5806.00,0.9004
5805.00,0.9054
5804.00,0.9104
5803.00,0.9154
5802.00,0.9204
5801.00,0.9254
5800.00,0.9304
5799.00,0.9355
5798.00,0.9405
5797.00,0.9455
5796.00,0.9506
5795.00,0.9557
5794.00,0.9610
5793.00,0.9662
5792.00,0.9714
5791.00,0.9766
5790.00,0.9817
5789.00,0.9867
5788.00,0.9918
5787.00,0.9968
5786.00,1.0019
5785.00,1.0071
5784.00,1.0123
5783.00,1.0175
5782.00,1.0227
5781.00,1.0279
5780.00,1.0331
5779.00,1.0382
5778.00,1.0433
5777.00,1.0485
5776.00,1.0538
5775.00,1.0590
5774.00,1.0641
5773.00,1.0691
5772.00,1.0742
5771.00,1.0794
5770.00,1.0846
5769.00,1.0900
5768.00,1.0953
5767.00,1.1005
5766.00,1.1056
5765.00,1.1106
5764.00,1.1154
5763.00,1.1202
5762.00,1.1250
5761.00,1.1297
5760.00,1.1344
5759.00,1.1389
5758.00,1.1434
5757.00,1.1481
5756.00,1.1528
5755.00,1.1576
5754.00,1.1623
5753.00,1.1670
5752.00,1.1715
5751.00,1.1760
5750.00,1.1803
5749.00,1.1845
5748.00,1.1886
5747.00,1.1925
5746.00,1.1963
5745.00,1.2001
5744.00,1.2038
5743.00,1.2076
5742.00,1.2116
5741.00,1.2156
5740.00,1.2196
5739.00,1.2234
5738.00,1.2270
5737.00,1.2305
5736.00,1.2339
5735.00,1.2371
5734.00,1.2403
5733.00,1.2435
5732.00,1.2467
5731.00,1.2498
5730.00,1.2529
5729.00,1.2560
5728.00,1.2593
5727.00,1.2627
5726.00,1.2660
5725.00,1.2690
5724.00,1.2717
5723.00,1.2741
5722.00,1.2762
5721.00,1.2783
5720.00,1.2803
5719.00,1.2825
5718.00,1.2846
5717.00,1.2868
5716.00,1.2889
5715.00,1.2909
5714.00,1.2927
5713.00,1.2944
5712.00,1.2961
5711.00,1.2977
5710.00,1.2993
5709.00,1.3008
5708.00,1.3023
5707.00,1.3039
5706.00,1.3053
5705.00,1.3067
5704.00,1.3079
5703.00,1.3089
5702.00,1.3099
5701.00,1.3106
5700.00,1.3113
5699.00,1.3118
5698.00,1.3124
5697.00,1.3128
5696.00,1.3131
5695.00,1.3131
5694.00,1.3130
5693.00,1.3128
5692.00,1.3128
5691.00,1.3130
5690.00,1.3136
5689.00,1.3143
5688.00,1.3150
5687.00,1.3154
5686.00,1.3157
5685.00,1.3159
5684.00,1.3159
5683.00,1.3159
5682.00,1.3159
5681.00,1.3159
5680.00,1.3159
5679.00,1.3160
5678.00,1.3161
5677.00,1.3163
5676.00,1.3165
5675.00,1.3167
5674.00,1.3168
5673.00,1.3169
5672.00,1.3170
5671.00,1.3172
5670.00,1.3175
5669.00,1.3177
5668.00,1.3178
5667.00,1.3176
5666.00,1.3173
5665.00,1.3170
5664.00,1.3166
5663.00,1.3163
5662.00,1.3160
5661.00,1.3157
5660.00,1.3152
5659.00,1.3147
5658.00,1.3140
5657.00,1.3132
5656.00,1.3124
5655.00,1.3116
5654.00,1.3107
5653.00,1.3098
5652.00,1.3087
5651.00,1.3074
5650.00,1.3058
5649.00,1.3041
5648.00,1.3025
5647.00,1.3012
5646.00,1.3000
5645.00,1.2988
5644.00,1.2973
5643.00,1.2956
5642.00,1.2936
5641.00,1.2915
5640.00,1.2894
5639.00,1.2874
5638.00,1.2856
5637.00,1.2837
5636.00,1.2817
5635.00,1.2795
5634.00,1.2775
5633.00,1.2756
5632.00,1.2737
5631.00,1.2719
5630.00,1.2700
5629.00,1.2680
5628.00,1.2657
5627.00,1.2631
5626.00,1.2603
5625.00,1.2577
5624.00,1.2551
5623.00,1.2526
5622.00,1.2501
5621.00,1.2477
5620.00,1.2450
5619.00,1.2421
5618.00,1.2388
5617.00,1.2355
5616.00,1.2322
5615.00,1.2290
5614.00,1.2258
5613.00,1.2225
5612.00,1.2191
5611.00,1.2156
5610.00,1.2120
5609.00,1.2083
5608.00,1.2046
5607.00,1.2009
5606.00,1.1971
5605.00,1.1932
5604.00,1.1892
5603.00,1.1852
5602.00,1.1811
5601.00,1.1771
5600.00,1.1731
5599.00,1.1692
5598.00,1.1652
5597.00,1.1611
5596.00,1.1568
5595.00,1.1524
5594.00,1.1479
5593.00,1.1435
5592.00,1.1391
5591.00,1.1346
5590.00,1.1302
5589.00,1.1257
5588.00,1.1211
5587.00,1.1165
5586.00,1.1119
5585.00,1.1072
5584.00,1.1024
5583.00,1.0974
5582.00,1.0922
5581.00,1.0871
5580.00,1.0820
5579.00,1.0768
5578.00,1.0718
5577.00,1.0668
5576.00,1.0619
5575.00,1.0568
5574.00,1.0517
5573.00,1.0465
5572.00,1.0412
5571.00,1.0358
5570.00,1.0306
5569.00,1.0254
5568.00,1.0203
5567.00,1.0152
5566.00,1.0102
5565.00,1.0051
5564.00,0.9998
5563.00,0.9945
5562.00,0.9892
5561.00,0.9839
5560.00,0.9786
5559.00,0.9734
5558.00,0.9682
5557.00,0.9630
5556.00,0.9577
5555.00,0.9524
5554.00,0.9470
5553.00,0.9417
5552.00,0.9363
5551.00,0.9310
5550.00,0.9259
5549.00,0.9209
5548.00,0.9159
5547.00,0.9111
5546.00,0.9063
5545.00,0.9015
5544.00,0.8965
5543.00,0.8916
5542.00,0.8867
5541.00,0.8819
5540.00,0.8771
5539.00,0.8725
5538.00,0.8679
5537.00,0.8633
5536.00,0.8587
5535.00,0.8540
5534.00,0.8494
5533.00,0.8448
5532.00,0.8403
5531.00,0.8359
5530.00,0.8317
5529.00,0.8275
5528.00,0.8235
5527.00,0.8195
5526.00,0.8155
5525.00,0.8116
5524.00,0.8077
5523.00,0.8038
5522.00,0.8001
5521.00,0.7965
5520.00,0.7930
5519.00,0.7896
5518.00,0.7863
5517.00,0.7830
5516.00,0.7798
5515.00,0.7767
5514.00,0.7737
5513.00,0.7708
5512.00,0.7680
5511.00,0.7653
5510.00,0.7627
5509.00,0.7603
5508.00,0.7579
5507.00,0.7555
5506.00,0.7533
5505.00,0.7512
5504.00,0.7493
5503.00,0.7475
5502.00,0.7459
5501.00,0.7445
5500.00,0.7433
5499.00,0.7421
5498.00,0.7409
5497.00,0.7400
5496.00,0.7391
5495.00,0.7385
5494.00,0.7380
5493.00,0.7376
5492.00,0.7373
5491.00,0.7371
5490.00,0.7370
5489.00,0.7370
5488.00,0.7373
5487.00,0.7377
5486.00,0.7383
5485.00,0.7392
5484.00,0.7401
5483.00,0.7412
5482.00,0.7425
5481.00,0.7439
5480.00,0.7454
5479.00,0.7471
5478.00,0.7489
5477.00,0.7508
5476.00,0.7529
5475.00,0.7552
5474.00,0.7576
5473.00,0.7602
5472.00,0.7629
5471.00,0.7656
5470.00,0.7685
5469.00,0.7716
5468.00,0.7747
5467.00,0.7779
5466.00,0.7813
5465.00,0.7848
5464.00,0.7884
5463.00,0.7922
5462.00,0.7961
5461.00,0.8002
5460.00,0.8044
5459.00,0.8087
5458.00,0.8131
5457.00,0.8176
5456.00,0.8222
5455.00,0.8268
5454.00,0.8316
5453.00,0.8364
5452.00,0.8413
5451.00,0.8462
5450.00,0.8511
5449.00,0.8562
5448.00,0.8613
5447.00,0.8665
5446.00,0.8718
5445.00,0.8771
5444.00,0.8826
5443.00,0.8881
5442.00,0.8936
5441.00,0.8992
5440.00,0.9049
5439.00,0.9106
5438.00,0.9164
5437.00,0.9223
5436.00,0.9282
5435.00,0.9342
5434.00,0.9401
5433.00,0.9460
5432.00,0.9517
5431.00,0.9573
5430.00,0.9630
5429.00,0.9689
5428.00,0.9748
5427.00,0.9808
5426.00,0.9868
5425.00,0.9929
5424.00,0.9989
5423.00,1.0050
5422.00,1.0112
5421.00,1.0174
5420.00,1.0236
5419.00,1.0298
5418.00,1.0358
5417.00,1.0417
5416.00,1.0475
5415.00,1.0531
5414.00,1.0587
5413.00,1.0643
5412.00,1.0700
5411.00,1.0757
5410.00,1.0815
5409.00,1.0873
5408.00,1.0930
5407.00,1.0987
5406.00,1.1043
5405.00,1.1100
5404.00,1.1157
5403.00,1.1215
5402.00,1.1272
5401.00,1.1330
5400.00,1.1386
5399.00,1.1441
5398.00,1.1493
5397.00,1.1543
5396.00,1.1593
5395.00,1.1642
5394.00,1.1691
5393.00,1.1741
5392.00,1.1790
5391.00,1.1838
5390.00,1.1886
5389.00,1.1934
5388.00,1.1983
5387.00,1.2030
5386.00,1.2078
5385.00,1.2125
5384.00,1.2171
5383.00,1.2217
5382.00,1.2262
5381.00,1.2307
5380.00,1.2350
5379.00,1.2392
5378.00,1.2433
5377.00,1.2472
5376.00,1.2511
5375.00,1.2549
5374.00,1.2586
5373.00,1.2623
5372.00,1.2661
5371.00,1.2699
5370.00,1.2738
5369.00,1.2778
5368.00,1.2816
5367.00,1.2854
5366.00,1.2889
5365.00,1.2922
5364.00,1.2953
5363.00,1.2984
5362.00,1.3015
5361.00,1.3045
5360.00,1.3075
5359.00,1.3105
5358.00,1.3135
5357.00,1.3165
5356.00,1.3195
5355.00,1.3225
5354.00,1.3254
5353.00,1.3281
5352.00,1.3306
5351.00,1.3332
5350.00,1.3358
5349.00,1.3384
5348.00,1.3409
5347.00,1.3433
5346.00,1.3456
5345.00,1.3478
5344.00,1.3499
5343.00,1.3520
5342.00,1.3539
5341.00,1.3557
5340.00,1.3573
5339.00,1.3589
5338.00,1.3605
5337.00,1.3623
5336.00,1.3640
5335.00,1.3657
5334.00,1.3673
5333.00,1.3688
5332.00,1.3703
5331.00,1.3717
5330.00,1.3733
5329.00,1.3749
5328.00,1.3763
5327.00,1.3775
5326.00,1.3787
5325.00,1.3798
5324.00,1.3807
5323.00,1.3815
5322.00,1.3822
5321.00,1.3829
5320.00,1.3836
5319.00,1.3841
5318.00,1.3846
5317.00,1.3850
5316.00,1.3856
5315.00,1.3863
5314.00,1.3872
5313.00,1.3881
5312.00,1.3887
5311.00,1.3891
5310.00,1.3892
5309.00,1.3890
5308.00,1.3889
5307.00,1.3889
5306.00,1.3891
5305.00,1.3892
5304.00,1.3893
5303.00,1.3892
5302.00,1.3889
5301.00,1.3886
5300.00,1.3882
5299.00,1.3878
5298.00,1.3872
5297.00,1.3865
5296.00,1.3857
5295.00,1.3849
5294.00,1.3842
5293.00,1.3836
5292.00,1.3830
5291.00,1.3823
5290.00,1.3814
5289.00,1.3802
5288.00,1.3789
5287.00,1.3775
5286.00,1.3762
5285.00,1.3749
5284.00,1.3735
5283.00,1.3721
5282.00,1.3708
5281.00,1.3694
5280.00,1.3679
5279.00,1.3662
5278.00,1.3646
5277.00,1.3630
5276.00,1.3613
5275.00,1.3596
5274.00,1.3578
5273.00,1.3559
5272.00,1.3539
5271.00,1.3518
5270.00,1.3496
5269.00,1.3475
5268.00,1.3453
5267.00,1.3430
5266.00,1.3405
5265.00,1.3379
5264.00,1.3352
5263.00,1.3325
5262.00,1.3297
5261.00,1.3270
5260.00,1.3243
5259.00,1.3217
5258.00,1.3191
5257.00,1.3165
5256.00,1.3139
5255.00,1.3110
5254.00,1.3079
5253.00,1.3046
5252.00,1.3010
5251.00,1.2973
5250.00,1.2937
5249.00,1.2903
5248.00,1.2869
5247.00,1.2835
5246.00,1.2801
5245.00,1.2766
5244.00,1.2728
5243.00,1.2689
5242.00,1.2649
5241.00,1.2608
5240.00,1.2568
5239.00,1.2529
5238.00,1.2489
5237.00,1.2450
5236.00,1.2409
5235.00,1.2366
5234.00,1.2321
5233.00,1.2276
5232.00,1.2230
5231.00,1.2184
5230.00,1.2137
5229.00,1.2090
5228.00,1.2043
5227.00,1.1996
5226.00,1.1948
5225.00,1.1900
5224.00,1.1852
5223.00,1.1803
5222.00,1.1754
5221.00,1.1705
5220.00,1.1655
5219.00,1.1604
5218.00,1.1551
5217.00,1.1498
5216.00,1.1444
5215.00,1.1390
5214.00,1.1335
5213.00,1.1279
5212.00,1.1224
5211.00,1.1168
5210.00,1.1111
5209.00,1.1055
5208.00,1.0998
5207.00,1.0942
5206.00,1.0885
5205.00,1.0827
5204.00,1.0769
5203.00,1.0710
5202.00,1.0651
5201.00,1.0590
5200.00,1.0530
5199.00,1.0470
5198.00,1.0411
5197.00,1.0352
5196.00,1.0293
5195.00,1.0233
5194.00,1.0172
5193.00,1.0111
5192.00,1.0049
5191.00,0.9988
5190.00,0.9927
5189.00,0.9866
5188.00,0.9807
5187.00,0.9747
5186.00,0.9688
5185.00,0.9628
5184.00,0.9568
5183.00,0.9509
5182.00,0.9450
5181.00,0.9391
5180.00,0.9332
5179.00,0.9274
5178.00,0.9216
5177.00,0.9158
5176.00,0.9100
5175.00,0.9043
5174.00,0.8985
5173.00,0.8928
5172.00,0.8872
5171.00,0.8817
5170.00,0.8763
5169.00,0.8709
5168.00,0.8656
5167.00,0.8602
5166.00,0.8549
5165.00,0.8496
5164.00,0.8443
5163.00,0.8392
5162.00,0.8343
5161.00,0.8294
5160.00,0.8246
5159.00,0.8199
5158.00,0.8152
5157.00,0.8105
5156.00,0.8059
5155.00,0.8014
5154.00,0.7970
5153.00,0.7928
5152.00,0.7886
5151.00,0.7844
5150.00,0.7804
5149.00,0.7766
5148.00,0.7728
5147.00,0.7692
5146.00,0.7657
5145.00,0.7624
5144.00,0.7591
5143.00,0.7560
5142.00,0.7530
5141.00,0.7500
5140.00,0.7472
5139.00,0.7445
5138.00,0.7420
5137.00,0.7396
5136.00,0.7374
5135.00,0.7353
5134.00,0.7334
5133.00,0.7317
5132.00,0.7300
5131.00,0.7286
5130.00,0.7273
5129.00,0.7262
5128.00,0.7252
5127.00,0.7245
5126.00,0.7239
5125.00,0.7236
5124.00,0.7234
5123.00,0.7233
5122.00,0.7234
5121.00,0.7237
5120.00,0.7242
5119.00,0.7249
5118.00,0.7258
5117.00,0.7269
5116.00,0.7281
5115.00,0.7295
5114.00,0.7311
5113.00,0.7329
5112.00,0.7349
5111.00,0.7370
5110.00,0.7394
5109.00,0.7420
5108.00,0.7448
5107.00,0.7476
5106.00,0.7506
5105.00,0.7538
5104.00,0.7571
5103.00,0.7605
5102.00,0.7642
5101.00,0.7680
5100.00,0.7720
5099.00,0.7761
5098.00,0.7804
5097.00,0.7848
5096.00,0.7894
5095.00,0.7941
5094.00,0.7989
5093.00,0.8038
5092.00,0.8088
5091.00,0.8138
5090.00,0.8191
5089.00,0.8245
5088.00,0.8300
5087.00,0.8355
5086.00,0.8412
5085.00,0.8469
5084.00,0.8527
5083.00,0.8586
5082.00,0.8645
5081.00,0.8705
5080.00,0.8766
5079.00,0.8828
5078.00,0.8890
5077.00,0.8953
5076.00,0.9016
5075.00,0.9080
5074.00,0.9144
5073.00,0.9208
5072.00,0.9272
5071.00,0.9338
5070.00,0.9405
5069.00,0.9472
5068.00,0.9539
5067.00,0.9607
5066.00,0.9674
5065.00,0.9740
5064.00,0.9807
5063.00,0.9874
5062.00,0.9942
5061.00,1.0010
5060.00,1.0077
5059.00,1.0144
5058.00,1.0212
5057.00,1.0279
5056.00,1.0347
5055.00,1.0415
5054.00,1.0483
5053.00,1.0550
5052.00,1.0616
5051.00,1.0683
5050.00,1.0750
5049.00,1.0816
5048.00,1.0883
5047.00,1.0950
5046.00,1.1016
5045.00,1.1081
5044.00,1.1146
5043.00,1.1210
5042.00,1.1275
5041.00,1.1340
5040.00,1.1404
5039.00,1.1468
5038.00,1.1530
5037.00,1.1591
5036.00,1.1651
5035.00,1.1710
5034.00,1.1770
5033.00,1.1829
5032.00,1.1888
5031.00,1.1946
5030.00,1.2004
5029.00,1.2061
5028.00,1.2118
5027.00,1.2175
5026.00,1.2231
5025.00,1.2285
5024.00,1.2339
5023.00,1.2393
5022.00,1.2447
5021.00,1.2501
5020.00,1.2554
5019.00,1.2605
5018.00,1.2655
5017.00,1.2704
5016.00,1.2752
5015.00,1.2800
5014.00,1.2848
5013.00,1.2895
5012.00,1.2940
5011.00,1.2984
5010.00,1.3027
5009.00,1.3070
5008.00,1.3114
5007.00,1.3158
5006.00,1.3203
5005.00,1.3249
5004.00,1.3293
5003.00,1.3336
5002.00,1.3377
5001.00,1.3415
5000.00,1.3452
4999.00,1.3488
4998.00,1.3523
4997.00,1.3559
4996.00,1.3593
4995.00,1.3626
4994.00,1.3658
4993.00,1.3690
4992.00,1.3722
4991.00,1.3755
4990.00,1.3790
4989.00,1.3824
4988.00,1.3856
4987.00,1.3887
4986.00,1.3916
4985.00,1.3944
4984.00,1.3972
4983.00,1.4001
4982.00,1.4029
4981.00,1.4057
4980.00,1.4083
4979.00,1.4108
4978.00,1.4132
4977.00,1.4155
4976.00,1.4179
4975.00,1.4202
4974.00,1.4225
4973.00,1.4245
4972.00,1.4265
4971.00,1.4283
4970.00,1.4302
4969.00,1.4322
4968.00,1.4341
4967.00,1.4360
4966.00,1.4377
4965.00,1.4390
4964.00,1.4403
4963.00,1.4417
4962.00,1.4433
4961.00,1.4449
4960.00,1.4465
4959.00,1.4480
4958.00,1.4494
4957.00,1.4507
4956.00,1.4520
4955.00,1.4533
4954.00,1.4544
4953.00,1.4552
4952.00,1.4557
4951.00,1.4562
4950.00,1.4567
4949.00,1.4573
4948.00,1.4580
4947.00,1.4587
4946.00,1.4594
4945.00,1.4601
4944.00,1.4605
4943.00,1.4608
4942.00,1.4610
4941.00,1.4612
4940.00,1.4614
4939.00,1.4617
4938.00,1.4620
4937.00,1.4621
4936.00,1.4619
4935.00,1.4616
4934.00,1.4612
4933.00,1.4608
4932.00,1.4605
4931.00,1.4602
4930.00,1.4600
4929.00,1.4595
4928.00,1.4590
4927.00,1.4585
4926.00,1.4580
4925.00,1.4574
4924.00,1.4567
4923.00,1.4558
4922.00,1.4549
4921.00,1.4539
4920.00,1.4531
4919.00,1.4523
4918.00,1.4513
4917.00,1.4502
4916.00,1.4488
4915.00,1.4473
4914.00,1.4457
4913.00,1.4442
4912.00,1.4427
4911.00,1.4413
4910.00,1.4399
4909.00,1.4383
4908.00,1.4366
4907.00,1.4349
4906.00,1.4330
4905.00,1.4310
4904.00,1.4289
4903.00,1.4267
4902.00,1.4246
4901.00,1.4224
4900.00,1.4200
4899.00,1.4176
4898.00,1.4151
4897.00,1.4125
4896.00,1.4099
4895.00,1.4073
4894.00,1.4048
4893.00,1.4022
4892.00,1.3994
4891.00,1.3966
4890.00,1.3937
4889.00,1.3907
4888.00,1.3876
4887.00,1.3846
4886.00,1.3815
4885.00,1.3783
4884.00,1.3751
4883.00,1.3719
4882.00,1.3685
4881.00,1.3650
4880.00,1.3614
4879.00,1.3577
4878.00,1.3538
4877.00,1.3497
4876.00,1.3455
4875.00,1.3414
4874.00,1.3374
4873.00,1.3335
4872.00,1.3297
4871.00,1.3258
4870.00,1.3218
4869.00,1.3175
4868.00,1.3129
4867.00,1.3081
4866.00,1.3033
4865.00,1.2985
4864.00,1.2936
4863.00,1.2886
4862.00,1.2837
4861.00,1.2787
4860.00,1.2737
4859.00,1.2687
4858.00,1.2637
4857.00,1.2586
4856.00,1.2533
4855.00,1.2478
4854.00,1.2423
4853.00,1.2366
4852.00,1.2310
4851.00,1.2253
4850.00,1.2197
4849.00,1.2140
4848.00,1.2083
4847.00,1.2024
4846.00,1.1964
4845.00,1.1903
4844.00,1.1841
4843.00,1.1779
4842.00,1.1717
4841.00,1.1656
4840.00,1.1594
4839.00,1.1530
4838.00,1.1465
4837.00,1.1400
4836.00,1.1334
4835.00,1.1269
4834.00,1.1204
4833.00,1.1140
4832.00,1.1074
4831.00,1.1008
4830.00,1.0941
4829.00,1.0873
4828.00,1.0805
4827.00,1.0736
4826.00,1.0668
4825.00,1.0600
4824.00,1.0532
4823.00,1.0464
4822.00,1.0396
4821.00,1.0327
4820.00,1.0259
4819.00,1.0192
4818.00,1.0124
4817.00,1.0057
4816.00,0.9989
4815.00,0.9921
4814.00,0.9852
4813.00,0.9784
4812.00,0.9716
4811.00,0.9649
4810.00,0.9582
4809.00,0.9516
4808.00,0.9450
4807.00,0.9385
4806.00,0.9320
4805.00,0.9256
4804.00,0.9192
4803.00,0.9129
4802.00,0.9065
4801.00,0.9002
4800.00,0.8940
4799.00,0.8879
4798.00,0.8819
4797.00,0.8760
4796.00,0.8701
4795.00,0.8644
4794.00,0.8587
4793.00,0.8531
4792.00,0.8475
4791.00,0.8420
4790.00,0.8366
4789.00,0.8313
4788.00,0.8260
4787.00,0.8209
4786.00,0.8158
4785.00,0.8109
4784.00,0.8062
4783.00,0.8016
4782.00,0.7970
4781.00,0.7926
4780.00,0.7883
4779.00,0.7842
4778.00,0.7802
4777.00,0.7764
4776.00,0.7727
4775.00,0.7691
4774.00,0.7657
4773.00,0.7624
4772.00,0.7592
4771.00,0.7562
4770.00,0.7533
4769.00,0.7507
4768.00,0.7482
4767.00,0.7459
4766.00,0.7438
4765.00,0.7420
4764.00,0.7403
4763.00,0.7387
4762.00,0.7374
4761.00,0.7363
4760.00,0.7354
4759.00,0.7347
4758.00,0.7342
4757.00,0.7339
4756.00,0.7338
4755.00,0.7340
4754.00,0.7345
4753.00,0.7352
4752.00,0.7360
4751.00,0.7371
4750.00,0.7383
4749.00,0.7398
4748.00,0.7416
4747.00,0.7437
4746.00,0.7460
4745.00,0.7485
4744.00,0.7512
4743.00,0.7540
4742.00,0.7571
4741.00,0.7604
4740.00,0.7639
4739.00,0.7677
4738.00,0.7717
4737.00,0.7760
4736.00,0.7804
4735.00,0.7849
4734.00,0.7897
4733.00,0.7946
4732.00,0.7996
4731.00,0.8048
4730.00,0.8102
4729.00,0.8158
4728.00,0.8216
4727.00,0.8275
4726.00,0.8335
4725.00,0.8397
4724.00,0.8460
4723.00,0.8524
4722.00,0.8590
4721.00,0.8656
4720.00,0.8723
4719.00,0.8792
4718.00,0.8862
4717.00,0.8933
4716.00,0.9004
4715.00,0.9077
4714.00,0.9150
4713.00,0.9223
4712.00,0.9297
4711.00,0.9371
4710.00,0.9446
4709.00,0.9523
4708.00,0.9600
4707.00,0.9679
4706.00,0.9758
4705.00,0.9837
4704.00,0.9916
4703.00,0.9995
4702.00,1.0074
4701.00,1.0153
4700.00,1.0233
4699.00,1.0313
4698.00,1.0392
4697.00,1.0471
4696.00,1.0550
4695.00,1.0628
4694.00,1.0707
4693.00,1.0785
4692.00,1.0863
4691.00,1.0941
4690.00,1.1019
4689.00,1.1097
4688.00,1.1174
4687.00,1.1251
4686.00,1.1327
4685.00,1.1402
4684.00,1.1476
4683.00,1.1549
4682.00,1.1621
4681.00,1.1692
4680.00,1.1764
4679.00,1.1836
4678.00,1.1908
4677.00,1.1979
4676.00,1.2048
4675.00,1.2115
4674.00,1.2180
4673.00,1.2245
4672.00,1.2310
4671.00,1.2376
4670.00,1.2441
4669.00,1.2506
4668.00,1.2570
4667.00,1.2633
4666.00,1.2694
4665.00,1.2755
4664.00,1.2815
4663.00,1.2874
4662.00,1.2933
4661.00,1.2992
4660.00,1.3050
4659.00,1.3109
4658.00,1.3167
4657.00,1.3224
4656.00,1.3280
4655.00,1.3334
4654.00,1.3387
4653.00,1.3438
4652.00,1.3489
4651.00,1.3540
4650.00,1.3591
4649.00,1.3643
4648.00,1.3693
4647.00,1.3742
4646.00,1.3790
4645.00,1.3837
4644.00,1.3884
4643.00,1.3931
4642.00,1.3977
4641.00,1.4023
4640.00,1.4068
4639.00,1.4111
4638.00,1.4155
4637.00,1.4197
4636.00,1.4239
4635.00,1.4281
4634.00,1.4322
4633.00,1.4363
4632.00,1.4403
4631.00,1.4442
4630.00,1.4481
4629.00,1.4518
4628.00,1.4554
4627.00,1.4589
4626.00,1.4625
4625.00,1.4659
4624.00,1.4692
4623.00,1.4723
4622.00,1.4755
4621.00,1.4787
4620.00,1.4820
4619.00,1.4852
4618.00,1.4882
4617.00,1.4910
4616.00,1.4937
4615.00,1.4962
4614.00,1.4987
4613.00,1.5011
4612.00,1.5034
4611.00,1.5057
4610.00,1.5080
4609.00,1.5103
4608.00,1.5127
4607.00,1.5151
4606.00,1.5174
4605.00,1.5194
4604.00,1.5212
4603.00,1.5228
4602.00,1.5245
4601.00,1.5262
4600.00,1.5282
4599.00,1.5302
4598.00,1.5321
4597.00,1.5337
4596.00,1.5351
4595.00,1.5364
4594.00,1.5377
4593.00,1.5390
4592.00,1.5403
4591.00,1.5418
4590.00,1.5432
4589.00,1.5445
4588.00,1.5455
4587.00,1.5463
4586.00,1.5470
4585.00,1.5475
4584.00,1.5480
4583.00,1.5485
4582.00,1.5493
4581.00,1.5501
4580.00,1.5510
4579.00,1.5517
4578.00,1.5523
4577.00,1.5526
4576.00,1.5529
4575.00,1.5531
4574.00,1.5534
4573.00,1.5535
4572.00,1.5536
4571.00,1.5535
4570.00,1.5533
4569.00,1.5531
4568.00,1.5528
4567.00,1.5524
4566.00,1.5519
4565.00,1.5513
4564.00,1.5506
4563.00,1.5500
4562.00,1.5496
4561.00,1.5493
4560.00,1.5490
4559.00,1.5486
4558.00,1.5480
4557.00,1.5471
4556.00,1.5461
4555.00,1.5451
4554.00,1.5441
4553.00,1.5429
4552.00,1.5416
4551.00,1.5402
4550.00,1.5388
4549.00,1.5374
4548.00,1.5359
4547.00,1.5344
4546.00,1.5327
4545.00,1.5309
4544.00,1.5292
4543.00,1.5275
4542.00,1.5259
4541.00,1.5242
4540.00,1.5223
4539.00,1.5203
4538.00,1.5182
4537.00,1.5162
4536.00,1.5141
4535.00,1.5120
4534.00,1.5097
4533.00,1.5072
4532.00,1.5048
4531.00,1.5023
4530.00,1.5000
4529.00,1.4975
4528.00,1.4947
4527.00,1.4918
4526.00,1.4887
4525.00,1.4856
4524.00,1.4825
4523.00,1.4794
4522.00,1.4764
4521.00,1.4733
4520.00,1.4700
4519.00,1.4666
4518.00,1.4630
4517.00,1.4593
4516.00,1.4556
4515.00,1.4518
4514.00,1.4479
4513.00,1.4440
4512.00,1.4401
4511.00,1.4364
4510.00,1.4328
4509.00,1.4289
4508.00,1.4246
4507.00,1.4200
4506.00,1.4153
4505.00,1.4108
4504.00,1.4064
4503.00,1.4020
4502.00,1.3974
4501.00,1.3924
4500.00,1.3872
4499.00,1.3820
4498.00,1.3769
4497.00,1.3718
4496.00,1.3666
4495.00,1.3613
4494.00,1.3560
4493.00,1.3506
4492.00,1.3450
4491.00,1.3393
4490.00,1.3336
4489.00,1.3279
4488.00,1.3220
4487.00,1.3161
4486.00,1.3100
4485.00,1.3039
4484.00,1.2978
4483.00,1.2916
4482.00,1.2853
4481.00,1.2787
4480.00,1.2720
4479.00,1.2651
4478.00,1.2583
4477.00,1.2516
4476.00,1.2448
4475.00,1.2380
4474.00,1.2312
4473.00,1.2242
4472.00,1.2171
4471.00,1.2098
4470.00,1.2023
4469.00,1.1948
4468.00,1.1872
4467.00,1.1797
4466.00,1.1722
4465.00,1.1647
4464.00,1.1573
4463.00,1.1497
4462.00,1.1421
4461.00,1.1344
4460.00,1.1267
4459.00,1.1190
4458.00,1.1113
4457.00,1.1034
4456.00,1.0955
4455.00,1.0875
4454.00,1.0796
4453.00,1.0718
4452.00,1.0640
4451.00,1.0561
4450.00,1.0483
4449.00,1.0404
4448.00,1.0326
4447.00,1.0248
4446.00,1.0170
4445.00,1.0092
4444.00,1.0014
4443.00,0.9937
4442.00,0.9860
4441.00,0.9783
4440.00,0.9707
4439.00,0.9631
4438.00,0.9556
4437.00,0.9483
4436.00,0.9410
4435.00,0.9339
4434.00,0.9268
4433.00,0.9198
4432.00,0.9128
4431.00,0.9059
4430.00,0.8991
4429.00,0.8924
4428.00,0.8857
4427.00,0.8792
4426.00,0.8727
4425.00,0.8664
4424.00,0.8603
4423.00,0.8542
4422.00,0.8484
4421.00,0.8426
4420.00,0.8370
4419.00,0.8316
4418.00,0.8263
4417.00,0.8211
4416.00,0.8161
4415.00,0.8112
4414.00,0.8065
4413.00,0.8020
4412.00,0.7977
4411.00,0.7935
4410.00,0.7896
4409.00,0.7859
4408.00,0.7824
4407.00,0.7791
4406.00,0.7759
4405.00,0.7730
4404.00,0.7704
4403.00,0.7679
4402.00,0.7658
4401.00,0.7639
4400.00,0.7623
4399.00,0.7609
4398.00,0.7597
4397.00,0.7589
4396.00,0.7583
4395.00,0.7580
4394.00,0.7580
4393.00,0.7582
4392.00,0.7587
4391.00,0.7595
4390.00,0.7605
4389.00,0.7619
4388.00,0.7635
4387.00,0.7653
4386.00,0.7675
4385.00,0.7699
4384.00,0.7725
4383.00,0.7754
4382.00,0.7786
4381.00,0.7820
4380.00,0.7857
4379.00,0.7896
4378.00,0.7937
4377.00,0.7980
4376.00,0.8025
4375.00,0.8072
4374.00,0.8120
4373.00,0.8170
4372.00,0.8221
4371.00,0.8273
4370.00,0.8327
4369.00,0.8382
4368.00,0.8438
4367.00,0.8496
4366.00,0.8553
4365.00,0.8612
4364.00,0.8672
4363.00,0.8733
4362.00,0.8796
4361.00,0.8859
4360.00,0.8924
4359.00,0.8990
4358.00,0.9058
4357.00,0.9128
4356.00,0.9199
4355.00,0.9271
4354.00,0.9345
4353.00,0.9419
4352.00,0.9495
4351.00,0.9571
4350.00,0.9649
4349.00,0.9727
4348.00,0.9807
4347.00,0.9886
4346.00,0.9967
4345.00,1.0048
4344.00,1.0129
4343.00,1.0211
4342.00,1.0294
4341.00,1.0377
4340.00,1.0460
4339.00,1.0543
4338.00,1.0626
4337.00,1.0711
4336.00,1.0795
4335.00,1.0881
4334.00,1.0968
4333.00,1.1055
4332.00,1.1142
4331.00,1.1229
4330.00,1.1317
4329.00,1.1405
4328.00,1.1493
4327.00,1.1581
4326.00,1.1668
4325.00,1.1756
4324.00,1.1843
4323.00,1.1928
4322.00,1.2012
4321.00,1.2095
4320.00,1.2179
4319.00,1.2263
4318.00,1.2348
4317.00,1.2432
4316.00,1.2515
4315.00,1.2595
4314.00,1.2674
4313.00,1.2751
4312.00,1.2828
4311.00,1.2904
4310.00,1.2980
4309.00,1.3056
4308.00,1.3131
4307.00,1.3206
4306.00,1.3279
4305.00,1.3351
4304.00,1.3422
4303.00,1.3492
4302.00,1.3563
4301.00,1.3632
4300.00,1.3701
4299.00,1.3770
4298.00,1.3837
4297.00,1.3903
4296.00,1.3968
4295.00,1.4031
4294.00,1.4094
4293.00,1.4157
4292.00,1.4218
4291.00,1.4278
4290.00,1.4337
4289.00,1.4395
4288.00,1.4453
4287.00,1.4510
4286.00,1.4568
4285.00,1.4624
4284.00,1.4679
4283.00,1.4732
4282.00,1.4784
4281.00,1.4834
4280.00,1.4884
4279.00,1.4933
4278.00,1.4981
4277.00,1.5028
4276.00,1.5075
4275.00,1.5120
4274.00,1.5165
4273.00,1.5208
4272.00,1.5251
4271.00,1.5294
4270.00,1.5337
4269.00,1.5380
4268.00,1.5421
4267.00,1.5461
4266.00,1.5500
4265.00,1.5539
4264.00,1.5576
4263.00,1.5613
4262.00,1.5650
4261.00,1.5686
4260.00,1.5721
4259.00,1.5755
4258.00,1.5789
4257.00,1.5822
4256.00,1.5855
4255.00,1.5886
4254.00,1.5916
4253.00,1.5945
4252.00,1.5976
4251.00,1.6008
4250.00,1.6042
4249.00,1.6074
4248.00,1.6104
4247.00,1.6130
4246.00,1.6156
4245.00,1.6181
4244.00,1.6207
4243.00,1.6234
4242.00,1.6259
4241.00,1.6283
4240.00,1.6306
4239.00,1.6329
4238.00,1.6352
4237.00,1.6374
4236.00,1.6395
4235.00,1.6416
4234.00,1.6436
4233.00,1.6455
4232.00,1.6473
4231.00,1.6490
4230.00,1.6505
4229.00,1.6519
4228.00,1.6532
4227.00,1.6547
4226.00,1.6561
4225.00,1.6575
4224.00,1.6589
4223.00,1.6601
4222.00,1.6610
4221.00,1.6618
4220.00,1.6627
4219.00,1.6636
4218.00,1.6647
4217.00,1.6657
4216.00,1.6665
4215.00,1.6671
4214.00,1.6676
4213.00,1.6682
4212.00,1.6690
4211.00,1.6697
4210.00,1.6703
4209.00,1.6706
4208.00,1.6707
4207.00,1.6708
4206.00,1.6710
4205.00,1.6713
4204.00,1.6716
4203.00,1.6717
4202.00,1.6716
4201.00,1.6715
4200.00,1.6713
4199.00,1.6712
4198.00,1.6710
4197.00,1.6707
4196.00,1.6701
4195.00,1.6694
4194.00,1.6688
4193.00,1.6682
4192.00,1.6676
4191.00,1.6669
4190.00,1.6661
4189.00,1.6650
4188.00,1.6638
4187.00,1.6625
4186.00,1.6613
4185.00,1.6601
4184.00,1.6591
4183.00,1.6581
4182.00,1.6570
4181.00,1.6557
4180.00,1.6543
4179.00,1.6527
4178.00,1.6512
4177.00,1.6498
4176.00,1.6483
4175.00,1.6467
4174.00,1.6450
4173.00,1.6431
4172.00,1.6410
4171.00,1.6388
4170.00,1.6366
4169.00,1.6345
4168.00,1.6325
4167.00,1.6304
4166.00,1.6282
4165.00,1.6257
4164.00,1.6230
4163.00,1.6202
4162.00,1.6173
4161.00,1.6146
4160.00,1.6118
4159.00,1.6090
4158.00,1.6061
4157.00,1.6032
4156.00,1.6003
4155.00,1.5973
4154.00,1.5942
4153.00,1.5910
4152.00,1.5876
4151.00,1.5841
4150.00,1.5806
4149.00,1.5771
4148.00,1.5734
4147.00,1.5697
4146.00,1.5660
4145.00,1.5622
4144.00,1.5583
4143.00,1.5542
4142.00,1.5498
4141.00,1.5453
4140.00,1.5409
4139.00,1.5365
4138.00,1.5320
4137.00,1.5274
4136.00,1.5226
4135.00,1.5178
4134.00,1.5129
4133.00,1.5079
4132.00,1.5029
4131.00,1.4977
4130.00,1.4923
4129.00,1.4869
4128.00,1.4815
4127.00,1.4759
4126.00,1.4703
4125.00,1.4646
4124.00,1.4589
4123.00,1.4532
4122.00,1.4474
4121.00,1.4415
4120.00,1.4353
4119.00,1.4289
4118.00,1.4225
4117.00,1.4161
4116.00,1.4096
4115.00,1.4029
4114.00,1.3960
4113.00,1.3890
4112.00,1.3819
4111.00,1.3748
4110.00,1.3677
4109.00,1.3604
4108.00,1.3530
4107.00,1.3456
4106.00,1.3380
4105.00,1.3303
4104.00,1.3225
4103.00,1.3146
4102.00,1.3065
4101.00,1.2984
4100.00,1.2903
4099.00,1.2822
4098.00,1.2740
4097.00,1.2657
4096.00,1.2573
4095.00,1.2487
4094.00,1.2401
4093.00,1.2314
4092.00,1.2227
4091.00,1.2140
4090.00,1.2052
4089.00,1.1963
4088.00,1.1875
4087.00,1.1786
4086.00,1.1698
4085.00,1.1610
4084.00,1.1521
4083.00,1.1432
4082.00,1.1342
4081.00,1.1252
4080.00,1.1161
4079.00,1.1071
4078.00,1.0981
4077.00,1.0891
4076.00,1.0801
4075.00,1.0711
4074.00,1.0621
4073.00,1.0530
4072.00,1.0441
4071.00,1.0351
4070.00,1.0262
4069.00,1.0174
4068.00,1.0086
4067.00,0.9999
4066.00,0.9912
4065.00,0.9826
4064.00,0.9741
4063.00,0.9657
4062.00,0.9574
4061.00,0.9492
4060.00,0.9412
4059.00,0.9334
4058.00,0.9257
4057.00,0.9182
4056.00,0.9108
4055.00,0.9035
4054.00,0.8964
4053.00,0.8894
4052.00,0.8825
4051.00,0.8759
4050.00,0.8694
4049.00,0.8631
4048.00,0.8570
4047.00,0.8511
4046.00,0.8453
4045.00,0.8398
4044.00,0.8344
4043.00,0.8293
4042.00,0.8243
4041.00,0.8195
4040.00,0.8149
4039.00,0.8105
4038.00,0.8063
4037.00,0.8024
4036.00,0.7987
4035.00,0.7952
4034.00,0.7921
4033.00,0.7893
4032.00,0.7868
4031.00,0.7846
4030.00,0.7828
4029.00,0.7812
4028.00,0.7801
4027.00,0.7793
4026.00,0.7790
4025.00,0.7791
4024.00,0.7796
4023.00,0.7804
4022.00,0.7816
4021.00,0.7832
4020.00,0.7851
4019.00,0.7873
4018.00,0.7899
4017.00,0.7929
4016.00,0.7962
4015.00,0.7998
4014.00,0.8036
4013.00,0.8078
4012.00,0.8122
4011.00,0.8170
4010.00,0.8221
4009.00,0.8275
4008.00,0.8331
4007.00,0.8391
4006.00,0.8453
4005.00,0.8518
4004.00,0.8585
4003.00,0.8656
4002.00,0.8728
4001.00,0.8803
4000.00,0.8881
3999.00,0.8961
3998.00,0.9043
3997.00,0.9127
3996.00,0.9213
3995.00,0.9302
3994.00,0.9392
3993.00,0.9484
3992.00,0.9578
3991.00,0.9674
3990.00,0.9771
3989.00,0.9869
3988.00,0.9969
3987.00,1.0070
3986.00,1.0173
3985.00,1.0277
3984.00,1.0381
3983.00,1.0486
3982.00,1.0592
3981.00,1.0697
3980.00,1.0804
3979.00,1.0910
3978.00,1.1017
3977.00,1.1123
3976.00,1.1229
3975.00,1.1334
3974.00,1.1439
3973.00,1.1544
3972.00,1.1650
3971.00,1.1755
3970.00,1.1861
3969.00,1.1966
3968.00,1.2070
3967.00,1.2173
3966.00,1.2276
3965.00,1.2377
3964.00,1.2477
3963.00,1.2578
3962.00,1.2679
3961.00,1.2779
3960.00,1.2879
3959.00,1.2977
3958.00,1.3074
3957.00,1.3169
3956.00,1.3263
3955.00,1.3356
3954.00,1.3447
3953.00,1.3536
3952.00,1.3624
3951.00,1.3709
3950.00,1.3795
3949.00,1.3880
3948.00,1.3964
3947.00,1.4047
3946.00,1.4128
3945.00,1.4207
3944.00,1.4286
3943.00,1.4364
3942.00,1.4442
3941.00,1.4519
3940.00,1.4596
3939.00,1.4673
3938.00,1.4749
3937.00,1.4825
3936.00,1.4898
3935.00,1.4969
3934.00,1.5036
3933.00,1.5102
3932.00,1.5169
3931.00,1.5235
3930.00,1.5302
3929.00,1.5369
3928.00,1.5435
3927.00,1.5501
3926.00,1.5565
3925.00,1.5628
3924.00,1.5690
3923.00,1.5752
3922.00,1.5812
3921.00,1.5870
3920.00,1.5925
3919.00,1.5979
3918.00,1.6033
3917.00,1.6088
3916.00,1.6145
3915.00,1.6200
3914.00,1.6253
3913.00,1.6305
3912.00,1.6355
3911.00,1.6406
3910.00,1.6457
3909.00,1.6507
3908.00,1.6555
3907.00,1.6601
3906.00,1.6645
3905.00,1.6688
3904.00,1.6730
3903.00,1.6770
3902.00,1.6810
3901.00,1.6851
3900.00,1.6893
3899.00,1.6937
3898.00,1.6981
3897.00,1.7022
3896.00,1.7061
3895.00,1.7100
3894.00,1.7139
3893.00,1.7179
3892.00,1.7219
3891.00,1.7258
3890.00,1.7294
3889.00,1.7325
3888.00,1.7352
3887.00,1.7380
3886.00,1.7411
3885.00,1.7446
3884.00,1.7481
3883.00,1.7513
3882.00,1.7542
3881.00,1.7569
3880.00,1.7597
3879.00,1.7624
3878.00,1.7649
3877.00,1.7671
3876.00,1.7691
3875.00,1.7711
3874.00,1.7735
3873.00,1.7759
3872.00,1.7782
3871.00,1.7803
3870.00,1.7822
3869.00,1.7842
3868.00,1.7862
3867.00,1.7880
3866.00,1.7896
3865.00,1.7913
3864.00,1.7931
3863.00,1.7950
3862.00,1.7967
3861.00,1.7983
3860.00,1.7998
3859.00,1.8012
3858.00,1.8026
3857.00,1.8039
3856.00,1.8050
3855.00,1.8059
3854.00,1.8065
3853.00,1.8071
3852.00,1.8079
3851.00,1.8089
3850.00,1.8097
3849.00,1.8102
3848.00,1.8105
3847.00,1.8108
3846.00,1.8113
3845.00,1.8119
3844.00,1.8126
3843.00,1.8132
3842.00,1.8137
3841.00,1.8139
3840.00,1.8141
3839.00,1.8143
3838.00,1.8146
3837.00,1.8147
3836.00,1.8147
3835.00,1.8144
3834.00,1.8141
3833.00,1.8135
3832.00,1.8128
3831.00,1.8122
3830.00,1.8115
3829.00,1.8108
3828.00,1.8100
3827.00,1.8091
3826.00,1.8083
3825.00,1.8076
3824.00,1.8069
3823.00,1.8060
3822.00,1.8048
3821.00,1.8035
3820.00,1.8021
3819.00,1.8007
3818.00,1.7995
3817.00,1.7982
3816.00,1.7970
3815.00,1.7957
3814.00,1.7945
3813.00,1.7932
3812.00,1.7914
3811.00,1.7894
3810.00,1.7874
3809.00,1.7853
3808.00,1.7831
3807.00,1.7809
3806.00,1.7788
3805.00,1.7767
3804.00,1.7744
3803.00,1.7717
3802.00,1.7689
3801.00,1.7664
3800.00,1.7642
3799.00,1.7621
3798.00,1.7596
3797.00,1.7567
3796.00,1.7535
3795.00,1.7504
3794.00,1.7475
3793.00,1.7445
3792.00,1.7412
3791.00,1.7376
3790.00,1.7341
3789.00,1.7306
3788.00,1.7271
3787.00,1.7234
3786.00,1.7195
3785.00,1.7155
3784.00,1.7115
3783.00,1.7076
3782.00,1.7037
3781.00,1.6996
3780.00,1.6950
3779.00,1.6904
3778.00,1.6861
3777.00,1.6820
3776.00,1.6779
3775.00,1.6734
3774.00,1.6686
3773.00,1.6635
3772.00,1.6581
3771.00,1.6526
3770.00,1.6471
3769.00,1.6417
3768.00,1.6362
3767.00,1.6305
3766.00,1.6247
3765.00,1.6190
3764.00,1.6134
3763.00,1.6077
3762.00,1.6017
3761.00,1.5954
3760.00,1.5890
3759.00,1.5826
3758.00,1.5761
3757.00,1.5697
3756.00,1.5631
3755.00,1.5564
3754.00,1.5495
3753.00,1.5422
3752.00,1.5346
3751.00,1.5268
3750.00,1.5189
3749.00,1.5111
3748.00,1.5035
3747.00,1.4957
3746.00,1.4873
3745.00,1.4785
3744.00,1.4696
3743.00,1.4610
3742.00,1.4525
3741.00,1.4438
3740.00,1.4351
3739.00,1.4266
3738.00,1.4182
3737.00,1.4094
3736.00,1.4001
3735.00,1.3903
3734.00,1.3805
3733.00,1.3705
3732.00,1.3606
3731.00,1.3508
3730.00,1.3412
3729.00,1.3315
3728.00,1.3214
3727.00,1.3112
3726.00,1.3009
3725.00,1.2906
3724.00,1.2802
3723.00,1.2697
3722.00,1.2591
3721.00,1.2486
3720.00,1.2381
3719.00,1.2276
3718.00,1.2172
3717.00,1.2067
3716.00,1.1961
3715.00,1.1855
3714.00,1.1746
3713.00,1.1635
3712.00,1.1522
3711.00,1.1408
3710.00,1.1296
3709.00,1.1189
3708.00,1.1084
3707.00,1.0981
3706.00,1.0878
3705.00,1.0776
3704.00,1.0675
3703.00,1.0574
3702.00,1.0474
3701.00,1.0374
3700.00,1.0274
3699.00,1.0178
3698.00,1.0084
3697.00,0.9994
3696.00,0.9906
3695.00,0.9821
3694.00,0.9740
3693.00,0.9661
3692.00,0.9585
3691.00,0.9510
3690.00,0.9434
3689.00,0.9357
3688.00,0.9276
3687.00,0.9197
3686.00,0.9123
3685.00,0.9055
3684.00,0.8991
3683.00,0.8933
3682.00,0.8880
3681.00,0.8829
3680.00,0.8782
3679.00,0.8740
3678.00,0.8705
3677.00,0.8672
3676.00,0.8634
3675.00,0.8591
3674.00,0.8548
3673.00,0.8517
3672.00,0.8498
3671.00,0.8485
3670.00,0.8474
3669.00,0.8463
3668.00,0.8455
3667.00,0.8455
3666.00,0.8462
3665.00,0.8477
3664.00,0.8497
3663.00,0.8523
3662.00,0.8553
3661.00,0.8586
3660.00,0.8622
3659.00,0.8663
3658.00,0.8709
3657.00,0.8758
3656.00,0.8810
3655.00,0.8863
3654.00,0.8917
3653.00,0.8977
3652.00,0.9042
3651.00,0.9115
3650.00,0.9191
3649.00,0.9269
3648.00,0.9349
3647.00,0.9432
3646.00,0.9520
3645.00,0.9608
3644.00,0.9697
3643.00,0.9788
3642.00,0.9885
3641.00,0.9985
3640.00,1.0087
3639.00,1.0190
3638.00,1.0293
3637.00,1.0398
3636.00,1.0504
3635.00,1.0612
3634.00,1.0721
3633.00,1.0829
3632.00,1.0935
3631.00,1.1040
3630.00,1.1149
3629.00,1.1265
3628.00,1.1388
3627.00,1.1510
3626.00,1.1627
3625.00,1.1740
3624.00,1.1853
3623.00,1.1967
3622.00,1.2081
3621.00,1.2194
3620.00,1.2309
3619.00,1.2427
3618.00,1.2546
3617.00,1.2664
3616.00,1.2778
3615.00,1.2890
3614.00,1.3000
3613.00,1.3112
3612.00,1.3223
3611.00,1.3333
3610.00,1.3441
3609.00,1.3547
3608.00,1.3655
3607.00,1.3764
3606.00,1.3874
3605.00,1.3981
3604.00,1.4087
3603.00,1.4193
3602.00,1.4298
3601.00,1.4404
3600.00,1.4509
3599.00,1.4613
3598.00,1.4714
3597.00,1.4812
3596.00,1.4908
3595.00,1.5004
3594.00,1.5100
3593.00,1.5194
3592.00,1.5286
3591.00,1.5376
3590.00,1.5464
3589.00,1.5550
3588.00,1.5638
3587.00,1.5727
3586.00,1.5815
3585.00,1.5901
3584.00,1.5987
3583.00,1.6072
3582.00,1.6156
3581.00,1.6240
3580.00,1.6324
3579.00,1.6407
3578.00,1.6489
3577.00,1.6569
3576.00,1.6647
3575.00,1.6723
3574.00,1.6797
3573.00,1.6868
3572.00,1.6938
3571.00,1.7008
3570.00,1.7075
3569.00,1.7141
3568.00,1.7205
3567.00,1.7270
3566.00,1.7335
3565.00,1.7401
3564.00,1.7468
3563.00,1.7535
3562.00,1.7599
3561.00,1.7660
3560.00,1.7720
3559.00,1.7780
3558.00,1.7839
3557.00,1.7898
3556.00,1.7957
3555.00,1.8016
3554.00,1.8072
3553.00,1.8127
3552.00,1.8180
3551.00,1.8233
3550.00,1.8283
3549.00,1.8333
3548.00,1.8381
3547.00,1.8428
3546.00,1.8472
3545.00,1.8517
3544.00,1.8562
3543.00,1.8610
3542.00,1.8658
3541.00,1.8705
3540.00,1.8751
3539.00,1.8797
3538.00,1.8839
3537.00,1.8879
3536.00,1.8916
3535.00,1.8952
3534.00,1.8988
3533.00,1.9026
3532.00,1.9065
3531.00,1.9102
3530.00,1.9136
3529.00,1.9168
3528.00,1.9201
3527.00,1.9235
3526.00,1.9267
3525.00,1.9297
3524.00,1.9328
3523.00,1.9360
3522.00,1.9391
3521.00,1.9423
3520.00,1.9454
3519.00,1.9483
3518.00,1.9508
3517.00,1.9532
3516.00,1.9556
3515.00,1.9580
3514.00,1.9604
3513.00,1.9627
3512.00,1.9649
3511.00,1.9670
3510.00,1.9688
3509.00,1.9705
3508.00,1.9721
3507.00,1.9739
3506.00,1.9758
3505.00,1.9779
3504.00,1.9800
3503.00,1.9822
3502.00,1.9840
3501.00,1.9855
3500.00,1.9868
3499.00,1.9878
3498.00,1.9888
3497.00,1.9900
3496.00,1.9914
3495.00,1.9928
3494.00,1.9939
3493.00,1.9950
3492.00,1.9961
3491.00,1.9971
3490.00,1.9979
3489.00,1.9986
3488.00,1.9994
3487.00,2.0001
3486.00,2.0005
3485.00,2.0008
3484.00,2.0012
3483.00,2.0019
3482.00,2.0025
3481.00,2.0030
3480.00,2.0033
3479.00,2.0033
3478.00,2.0030
3477.00,2.0026
3476.00,2.0024
3475.00,2.0026
3474.00,2.0027
3473.00,2.0027
3472.00,2.0025
3471.00,2.0020
3470.00,2.0014
3469.00,2.0008
3468.00,2.0004
3467.00,1.9999
3466.00,1.9991
3465.00,1.9981
3464.00,1.9970
3463.00,1.9959
3462.00,1.9948
3461.00,1.9938
3460.00,1.9929
3459.00,1.9920
3458.00,1.9910
3457.00,1.9898
3456.00,1.9884
3455.00,1.9868
3454.00,1.9852
3453.00,1.9838
3452.00,1.9827
3451.00,1.9816
3450.00,1.9803
3449.00,1.9785
3448.00,1.9763
3447.00,1.9740
3446.00,1.9715
3445.00,1.9690
3444.00,1.9667
3443.00,1.9644
3442.00,1.9620
3441.00,1.9595
3440.00,1.9569
3439.00,1.9543
3438.00,1.9515
3437.00,1.9484
3436.00,1.9453
3435.00,1.9424
3434.00,1.9398
3433.00,1.9371
3432.00,1.9342
3431.00,1.9309
3430.00,1.9274
3429.00,1.9239
3428.00,1.9206
3427.00,1.9175
3426.00,1.9143
3425.00,1.9112
3424.00,1.9080
3423.00,1.9047
3422.00,1.9012
3421.00,1.8976
3420.00,1.8940
3419.00,1.8906
3418.00,1.8872
3417.00,1.8838
3416.00,1.8804
3415.00,1.8770
3414.00,1.8737
3413.00,1.8705
3412.00,1.8676
3411.00,1.8647
3410.00,1.8617
3409.00,1.8585
3408.00,1.8551
3407.00,1.8517
3406.00,1.8482
3405.00,1.8445
3404.00,1.8406
3403.00,1.8366
3402.00,1.8322
3401.00,1.8276
3400.00,1.8227
3399.00,1.8177
3398.00,1.8124
3397.00,1.8070
3396.00,1.8012
3395.00,1.7952
3394.00,1.7886
3393.00,1.7817
3392.00,1.7747
3391.00,1.7677
3390.00,1.7605
3389.00,1.7532
3388.00,1.7455
3387.00,1.7375
3386.00,1.7293
3385.00,1.7211
3384.00,1.7129
3383.00,1.7046
3382.00,1.6961
3381.00,1.6874
3380.00,1.6785
3379.00,1.6694
3378.00,1.6600
3377.00,1.6505
3376.00,1.6411
3375.00,1.6318
3374.00,1.6224
3373.00,1.6130
3372.00,1.6035
3371.00,1.5937
3370.00,1.5837
3369.00,1.5736
3368.00,1.5634
3367.00,1.5532
3366.00,1.5428
3365.00,1.5323
3364.00,1.5218
3363.00,1.5111
3362.00,1.5004
3361.00,1.4896
3360.00,1.4786
3359.00,1.4674
3358.00,1.4560
3357.00,1.4446
3356.00,1.4331
3355.00,1.4216
3354.00,1.4100
3353.00,1.3984
3352.00,1.3868
3351.00,1.3751
3350.00,1.3633
3349.00,1.3515
3348.00,1.3398
3347.00,1.3281
3346.00,1.3164
3345.00,1.3046
3344.00,1.2928
3343.00,1.2811
3342.00,1.2693
3341.00,1.2575
3340.00,1.2457
3339.00,1.2340
3338.00,1.2224
3337.00,1.2110
3336.00,1.1997
3335.00,1.1886
3334.00,1.1775
3333.00,1.1666
3332.00,1.1558
3331.00,1.1452
3330.00,1.1347
3329.00,1.1244
3328.00,1.1143
3327.00,1.1044
3326.00,1.0946
3325.00,1.0851
3324.00,1.0757
3323.00,1.0665
3322.00,1.0576
3321.00,1.0490
3320.00,1.0407
3319.00,1.0328
3318.00,1.0251
3317.00,1.0177
3316.00,1.0106
3315.00,1.0039
3314.00,0.9975
3313.00,0.9914
3312.00,0.9857
3311.00,0.9805
3310.00,0.9757
3309.00,0.9714
3308.00,0.9676
3307.00,0.9641
3306.00,0.9612
3305.00,0.9588
3304.00,0.9570
3303.00,0.9557
3302.00,0.9551
3301.00,0.9549
3300.00,0.9554
3299.00,0.9563
3298.00,0.9578
3297.00,0.9599
3296.00,0.9625
3295.00,0.9658
3294.00,0.9696
3293.00,0.9741
3292.00,0.9791
3291.00,0.9847
3290.00,0.9908
3289.00,0.9975
3288.00,1.0047
3287.00,1.0123
3286.00,1.0204
3285.00,1.0289
3284.00,1.0380
3283.00,1.0475
3282.00,1.0574
3281.00,1.0676
3280.00,1.0783
3279.00,1.0892
3278.00,1.1005
3277.00,1.1120
3276.00,1.1239
3275.00,1.1361
3274.00,1.1484
3273.00,1.1609
3272.00,1.1736
3271.00,1.1865
3270.00,1.1995
3269.00,1.2126
3268.00,1.2259
3267.00,1.2393
3266.00,1.2528
3265.00,1.2662
3264.00,1.2798
3263.00,1.2934
3262.00,1.3070
3261.00,1.3207
3260.00,1.3344
3259.00,1.3480
3258.00,1.3616
3257.00,1.3750
3256.00,1.3884
3255.00,1.4018
3254.00,1.4152
3253.00,1.4284
3252.00,1.4415
3251.00,1.4545
3250.00,1.4672
3249.00,1.4800
3248.00,1.4928
3247.00,1.5055
3246.00,1.5179
3245.00,1.5300
3244.00,1.5420
3243.00,1.5538
3242.00,1.5655
3241.00,1.5772
3240.00,1.5888
3239.00,1.6001
3238.00,1.6112
3237.00,1.6221
3236.00,1.6329
3235.00,1.6436
3234.00,1.6542
3233.00,1.6646
3232.00,1.6749
3231.00,1.6850
3230.00,1.6949
3229.00,1.7047
3228.00,1.7146
3227.00,1.7245
3226.00,1.7341
3225.00,1.7435
3224.00,1.7526
3223.00,1.7615
3222.00,1.7702
3221.00,1.7789
3220.00,1.7875
3219.00,1.7958
3218.00,1.8038
3217.00,1.8118
3216.00,1.8197
3215.00,1.8276
3214.00,1.8355
3213.00,1.8432
3212.00,1.8508
3211.00,1.8583
3210.00,1.8658
3209.00,1.8733
3208.00,1.8808
3207.00,1.8880
3206.00,1.8949
3205.00,1.9014
3204.00,1.9078
3203.00,1.9143
3202.00,1.9207
3201.00,1.9269
3200.00,1.9330
3199.00,1.9393
3198.00,1.9457
3197.00,1.9523
3196.00,1.9588
3195.00,1.9649
3194.00,1.9707
3193.00,1.9763
3192.00,1.9816
3191.00,1.9868
3190.00,1.9917
3189.00,1.9966
3188.00,2.0017
3187.00,2.0069
3186.00,2.0118
3185.00,2.0166
3184.00,2.0210
3183.00,2.0254
3182.00,2.0297
3181.00,2.0342
3180.00,2.0387
3179.00,2.0432
3178.00,2.0474
3177.00,2.0515
3176.00,2.0556
3175.00,2.0597
3174.00,2.0639
3173.00,2.0680
3172.00,2.0718
3171.00,2.0751
3170.00,2.0778
3169.00,2.0808
3168.00,2.0843
3167.00,2.0881
3166.00,2.0916
3165.00,2.0947
3164.00,2.0978
3163.00,2.1012
3162.00,2.1046
3161.00,2.1078
3160.00,2.1106
3159.00,2.1131
3158.00,2.1154
3157.00,2.1178
3156.00,2.1204
3155.00,2.1230
3154.00,2.1253
3153.00,2.1273
3152.00,2.1294
3151.00,2.1315
3150.00,2.1335
3149.00,2.1355
3148.00,2.1376
3147.00,2.1399
3146.00,2.1422
3145.00,2.1443
3144.00,2.1462
3143.00,2.1476
3142.00,2.1484
3141.00,2.1489
3140.00,2.1495
3139.00,2.1504
3138.00,2.1516
3137.00,2.1529
3136.00,2.1542
3135.00,2.1555
3134.00,2.1568
3133.00,2.1580
3132.00,2.1589
3131.00,2.1594
3130.00,2.1596
3129.00,2.1598
3128.00,2.1605
3127.00,2.1614
3126.00,2.1620
3125.00,2.1623
3124.00,2.1622
3123.00,2.1622
3122.00,2.1623
3121.00,2.1624
3120.00,2.1623
3119.00,2.1618
3118.00,2.1612
3117.00,2.1605
3116.00,2.1600
3115.00,2.1594
3114.00,2.1589
3113.00,2.1582
3112.00,2.1573
3111.00,2.1564
3110.00,2.1557
3109.00,2.1552
3108.00,2.1548
3107.00,2.1541
3106.00,2.1531
3105.00,2.1519
3104.00,2.1505
3103.00,2.1488
3102.00,2.1467
3101.00,2.1446
3100.00,2.1426
3099.00,2.1406
3098.00,2.1387
3097.00,2.1368
3096.00,2.1350
3095.00,2.1328
3094.00,2.1302
3093.00,2.1274
3092.00,2.1245
3091.00,2.1217
3090.00,2.1190
3089.00,2.1164
3088.00,2.1141
3087.00,2.1118
3086.00,2.1089
3085.00,2.1057
3084.00,2.1022
3083.00,2.0986
3082.00,2.0950
3081.00,2.0912
3080.00,2.0876
3079.00,2.0839
3078.00,2.0802
3077.00,2.0762
3076.00,2.0718
3075.00,2.0670
3074.00,2.0617
3073.00,2.0563
3072.00,2.0510
3071.00,2.0458
3070.00,2.0408
3069.00,2.0360
3068.00,2.0313
3067.00,2.0264
3066.00,2.0211
3065.00,2.0152
3064.00,2.0091
3063.00,2.0031
3062.00,1.9972
3061.00,1.9911
3060.00,1.9846
3059.00,1.9778
3058.00,1.9707
3057.00,1.9638
3056.00,1.9569
3055.00,1.9498
3054.00,1.9424
3053.00,1.9346
3052.00,1.9266
3051.00,1.9186
3050.00,1.9103
3049.00,1.9017
3048.00,1.8925
3047.00,1.8830
3046.00,1.8734
3045.00,1.8635
3044.00,1.8535
3043.00,1.8431
3042.00,1.8324
3041.00,1.8211
3040.00,1.8093
3039.00,1.7971
3038.00,1.7847
3037.00,1.7723
3036.00,1.7597
3035.00,1.7467
3034.00,1.7334
3033.00,1.7199
3032.00,1.7063
3031.00,1.6926
3030.00,1.6786
3029.00,1.6644
3028.00,1.6499
3027.00,1.6349
3026.00,1.6194
3025.00,1.6033
3024.00,1.5867
3023.00,1.5699
3022.00,1.5527
3021.00,1.5353
3020.00,1.5176
3019.00,1.4997
3018.00,1.4816
3017.00,1.4633
3016.00,1.4449
3015.00,1.4264
3014.00,1.4078
3013.00,1.3893
3012.00,1.3711
3011.00,1.3531
3010.00,1.3354
3009.00,1.3182
3008.00,1.3016
3007.00,1.2857
3006.00,1.2706
3005.00,1.2565
3004.00,1.2435
3003.00,1.2319
3002.00,1.2218
3001.00,1.2134
3000.00,1.2070
2999.00,1.2027
2998.00,1.2008
2997.00,1.2013
2996.00,1.2045
2995.00,1.2107
2994.00,1.2200
2993.00,1.2324
2992.00,1.2481
2991.00,1.2670
2990.00,1.2891
2989.00,1.3143
2988.00,1.3424
2987.00,1.3733
2986.00,1.4068
2985.00,1.4427
2984.00,1.4808
2983.00,1.5209
2982.00,1.5628
2981.00,1.6061
2980.00,1.6505
2979.00,1.6958
2978.00,1.7419
2977.00,1.7887
2976.00,1.8360
2975.00,1.8836
2974.00,1.9311
2973.00,1.9786
2972.00,2.0260
2971.00,2.0729
2970.00,2.1194
2969.00,2.1654
2968.00,2.2109
2967.00,2.2554
2966.00,2.2988
2965.00,2.3415
2964.00,2.3838
2963.00,2.4257
2962.00,2.4663
2961.00,2.5044
2960.00,2.5393
2959.00,2.5711
2958.00,2.5998
2957.00,2.6261
2956.00,2.6507
2955.00,2.6746
2954.00,2.6985
2953.00,2.7222
2952.00,2.7455
2951.00,2.7687
2950.00,2.7929
2949.00,2.8195
2948.00,2.8492
2947.00,2.8818
2946.00,2.9159
2945.00,2.9494
2944.00,2.9793
2943.00,3.0037
2942.00,3.0235
2941.00,3.0411
2940.00,3.0578
2939.00,3.0719
2938.00,3.0814
2937.00,3.0865
2936.00,3.0889
2935.00,3.0878
2934.00,3.0787
2933.00,3.0585
2932.00,3.0292
2931.00,2.9955
2930.00,2.9602
2929.00,2.9229
2928.00,2.8820
2927.00,2.8376
2926.00,2.7918
2925.00,2.7468
2924.00,2.7034
2923.00,2.6610
2922.00,2.6190
2921.00,2.5771
2920.00,2.5352
2919.00,2.4934
2918.00,2.4519
2917.00,2.4112
2916.00,2.3715
2915.00,2.3332
2914.00,2.2964
2913.00,2.2614
2912.00,2.2288
2911.00,2.1987
2910.00,2.1712
2909.00,2.1466
2908.00,2.1246
2907.00,2.1044
2906.00,2.0851
2905.00,2.0662
2904.00,2.0474
2903.00,2.0287
2902.00,2.0101
2901.00,1.9915
2900.00,1.9732
2899.00,1.9556
2898.00,1.9394
2897.00,1.9249
2896.00,1.9118
2895.00,1.8997
2894.00,1.8885
2893.00,1.8785
2892.00,1.8702
2891.00,1.8638
2890.00,1.8595
2889.00,1.8572
2888.00,1.8573
2887.00,1.8599
2886.00,1.8655
2885.00,1.8743
2884.00,1.8864
2883.00,1.9016
2882.00,1.9197
2881.00,1.9403
2880.00,1.9630
2879.00,1.9880
2878.00,2.0151
2877.00,2.0444
2876.00,2.0759
2875.00,2.1092
2874.00,2.1441
2873.00,2.1805
2872.00,2.2183
2871.00,2.2573
2870.00,2.2969
2869.00,2.3365
2868.00,2.3743
2867.00,2.4083
2866.00,2.4372
2865.00,2.4602
2864.00,2.4761
2863.00,2.4831
2862.00,2.4792
2861.00,2.4639
2860.00,2.4383
2859.00,2.4041
2858.00,2.3623
2857.00,2.3140
2856.00,2.2605
2855.00,2.2028
2854.00,2.1422
2853.00,2.0796
2852.00,2.0160
2851.00,1.9524
2850.00,1.8901
2849.00,1.8306
2848.00,1.7755
2847.00,1.7260
2846.00,1.6826
2845.00,1.6460
2844.00,1.6163
2843.00,1.5936
2842.00,1.5776
2841.00,1.5682
2840.00,1.5645
2839.00,1.5661
2838.00,1.5720
2837.00,1.5815
2836.00,1.5939
2835.00,1.6084
2834.00,1.6245
2833.00,1.6416
2832.00,1.6590
2831.00,1.6763
2830.00,1.6930
2829.00,1.7088
2828.00,1.7236
2827.00,1.7374
2826.00,1.7504
2825.00,1.7625
2824.00,1.7741
2823.00,1.7854
2822.00,1.7965
2821.00,1.8077
2820.00,1.8191
2819.00,1.8308
2818.00,1.8429
2817.00,1.8554
2816.00,1.8684
2815.00,1.8817
2814.00,1.8954
2813.00,1.9091
2812.00,1.9227
2811.00,1.9361
2810.00,1.9495
2809.00,1.9628
2808.00,1.9759
2807.00,1.9889
2806.00,2.0019
2805.00,2.0147
2804.00,2.0272
2803.00,2.0392
2802.00,2.0508
2801.00,2.0620
2800.00,2.0729
2799.00,2.0835
2798.00,2.0936
2797.00,2.1028
2796.00,2.1113
2795.00,2.1193
2794.00,2.1270
2793.00,2.1348
2792.00,2.1426
2791.00,2.1505
2790.00,2.1584
2789.00,2.1664
2788.00,2.1742
2787.00,2.1817
2786.00,2.1889
2785.00,2.1957
2784.00,2.2028
2783.00,2.2102
2782.00,2.2180
2781.00,2.2256
2780.00,2.2324
2779.00,2.2383
2778.00,2.2439
2777.00,2.2494
2776.00,2.2552
2775.00,2.2613
2774.00,2.2673
2773.00,2.2732
2772.00,2.2788
2771.00,2.2839
2770.00,2.2886
2769.00,2.2932
2768.00,2.2981
2767.00,2.3031
2766.00,2.3079
2765.00,2.3123
2764.00,2.3162
2763.00,2.3197
2762.00,2.3233
2761.00,2.3273
2760.00,2.3317
2759.00,2.3361
2758.00,2.3402
2757.00,2.3442
2756.00,2.3477
2755.00,2.3505
2754.00,2.3524
2753.00,2.3541
2752.00,2.3563
2751.00,2.3594
2750.00,2.3631
2749.00,2.3669
2748.00,2.3703
2747.00,2.3730
2746.00,2.3750
2745.00,2.3770
2744.00,2.3795
2743.00,2.3823
2742.00,2.3848
2741.00,2.3864
2740.00,2.3874
2739.00,2.3884
2738.00,2.3897
2737.00,2.3915
2736.00,2.3934
2735.00,2.3954
2734.00,2.3973
2733.00,2.3988
2732.00,2.3999
2731.00,2.4006
2730.00,2.4011
2729.00,2.4017
2728.00,2.4026
2727.00,2.4035
2726.00,2.4043
2725.00,2.4051
2724.00,2.4059
2723.00,2.4067
2722.00,2.4073
2721.00,2.4077
2720.00,2.4079
2719.00,2.4080
2718.00,2.4079
2717.00,2.4075
2716.00,2.4069
2715.00,2.4065
2714.00,2.4067
2713.00,2.4071
2712.00,2.4072
2711.00,2.4066
2710.00,2.4057
2709.00,2.4053
2708.00,2.4054
2707.00,2.4053
2706.00,2.4045
2705.00,2.4028
2704.00,2.4008
2703.00,2.3991
2702.00,2.3977
2701.00,2.3966
2700.00,2.3957
2699.00,2.3946
2698.00,2.3933
2697.00,2.3916
2696.00,2.3897
2695.00,2.3882
2694.00,2.3869
2693.00,2.3855
2692.00,2.3834
2691.00,2.3808
2690.00,2.3782
2689.00,2.3761
2688.00,2.3740
2687.00,2.3719
2686.00,2.3699
2685.00,2.3685
2684.00,2.3670
2683.00,2.3646
2682.00,2.3610
2681.00,2.3571
2680.00,2.3538
2679.00,2.3514
2678.00,2.3497
2677.00,2.3483
2676.00,2.3471
2675.00,2.3456
2674.00,2.3434
2673.00,2.3404
2672.00,2.3369
2671.00,2.3334
2670.00,2.3303
2669.00,2.3277
2668.00,2.3253
2667.00,2.3224
2666.00,2.3188
2665.00,2.3146
2664.00,2.3101
2663.00,2.3053
2662.00,2.3004
2661.00,2.2955
2660.00,2.2905
2659.00,2.2853
2658.00,2.2798
2657.00,2.2741
2656.00,2.2683
2655.00,2.2626
2654.00,2.2573
2653.00,2.2522
2652.00,2.2470
2651.00,2.2415
2650.00,2.2356
2649.00,2.2298
2648.00,2.2243
2647.00,2.2189
2646.00,2.2131
2645.00,2.2067
2644.00,2.1999
2643.00,2.1932
2642.00,2.1867
2641.00,2.1803
2640.00,2.1736
2639.00,2.1662
2638.00,2.1584
2637.00,2.1502
2636.00,2.1417
2635.00,2.1327
2634.00,2.1235
2633.00,2.1143
2632.00,2.1056
2631.00,2.0970
2630.00,2.0882
2629.00,2.0792
2628.00,2.0698
2627.00,2.0600
2626.00,2.0499
2625.00,2.0396
2624.00,2.0291
2623.00,2.0183
2622.00,2.0075
2621.00,1.9968
2620.00,1.9860
2619.00,1.9751
2618.00,1.9641
2617.00,1.9530
2616.00,1.9420
2615.00,1.9311
2614.00,1.9200
2613.00,1.9084
2612.00,1.8965
2611.00,1.8841
2610.00,1.8716
2609.00,1.8590
2608.00,1.8463
2607.00,1.8333
2606.00,1.8197
2605.00,1.8055
2604.00,1.7907
2603.00,1.7755
2602.00,1.7597
2601.00,1.7435
2600.00,1.7270
2599.00,1.7103
2598.00,1.6932
2597.00,1.6760
2596.00,1.6586
2595.00,1.6410
2594.00,1.6233
2593.00,1.6055
2592.00,1.5877
2591.00,1.5699
2590.00,1.5523
2589.00,1.5348
2588.00,1.5175
2587.00,1.5002
2586.00,1.4829
2585.00,1.4657
2584.00,1.4486
2583.00,1.4317
2582.00,1.4149
2581.00,1.3983
2580.00,1.3820
2579.00,1.3659
2578.00,1.3501
2577.00,1.3347
2576.00,1.3197
2575.00,1.3051
2574.00,1.2909
2573.00,1.2771
2572.00,1.2637
2571.00,1.2506
2570.00,1.2379
2569.00,1.2256
2568.00,1.2136
2567.00,1.2020
2566.00,1.1906
2565.00,1.1796
2564.00,1.1690
2563.00,1.1590
2562.00,1.1495
2561.00,1.1406
2560.00,1.1325
2559.00,1.1252
2558.00,1.1188
2557.00,1.1135
2556.00,1.1092
2555.00,1.1061
2554.00,1.1042
2553.00,1.1036
2552.00,1.1044
2551.00,1.1065
2550.00,1.1100
2549.00,1.1148
2548.00,1.1210
2547.00,1.1285
2546.00,1.1371
2545.00,1.1467
2544.00,1.1574
2543.00,1.1691
2542.00,1.1816
2541.00,1.1949
2540.00,1.2089
2539.00,1.2237
2538.00,1.2392
2537.00,1.2553
2536.00,1.2719
2535.00,1.2889
2534.00,1.3063
2533.00,1.3240
2532.00,1.3420
2531.00,1.3603
2530.00,1.3787
2529.00,1.3974
2528.00,1.4163
2527.00,1.4352
2526.00,1.4542
2525.00,1.4733
2524.00,1.4925
2523.00,1.5117
2522.00,1.5308
2521.00,1.5499
2520.00,1.5689
2519.00,1.5879
2518.00,1.6069
2517.00,1.6257
2516.00,1.6444
2515.00,1.6631
2514.00,1.6817
2513.00,1.7001
2512.00,1.7183
2511.00,1.7364
2510.00,1.7542
2509.00,1.7718
2508.00,1.7893
2507.00,1.8066
2506.00,1.8236
2505.00,1.8404
2504.00,1.8568
2503.00,1.8729
2502.00,1.8886
2501.00,1.9042
2500.00,1.9196
2499.00,1.9347
2498.00,1.9492
2497.00,1.9634
2496.00,1.9772
2495.00,1.9909
2494.00,2.0044
2493.00,2.0178
2492.00,2.0311
2491.00,2.0443
2490.00,2.0572
2489.00,2.0696
2488.00,2.0815
2487.00,2.0931
2486.00,2.1045
2485.00,2.1160
2484.00,2.1275
2483.00,2.1389
2482.00,2.1499
2481.00,2.1606
2480.00,2.1712
2479.00,2.1817
2478.00,2.1919
2477.00,2.2017
2476.00,2.2115
2475.00,2.2214
2474.00,2.2313
2473.00,2.2411
2472.00,2.2505
2471.00,2.2594
2470.00,2.2679
2469.00,2.2761
2468.00,2.2840
2467.00,2.2914
2466.00,2.2988
2465.00,2.3064
2464.00,2.3145
2463.00,2.3225
2462.00,2.3300
2461.00,2.3370
2460.00,2.3439
2459.00,2.3509
2458.00,2.3581
2457.00,2.3654
2456.00,2.3727
2455.00,2.3800
2454.00,2.3869
2453.00,2.3931
2452.00,2.3986
2451.00,2.4035
2450.00,2.4087
2449.00,2.4149
2448.00,2.4222
2447.00,2.4296
2446.00,2.4358
2445.00,2.4408
2444.00,2.4457
2443.00,2.4514
2442.00,2.4577
2441.00,2.4637
2440.00,2.4690
2439.00,2.4736
2438.00,2.4780
2437.00,2.4824
2436.00,2.4875
2435.00,2.4933
2434.00,2.4991
2433.00,2.5045
2432.00,2.5092
2431.00,2.5136
2430.00,2.5180
2429.00,2.5225
2428.00,2.5272
2427.00,2.5316
2426.00,2.5352
2425.00,2.5382
2424.00,2.5409
2423.00,2.5440
2422.00,2.5474
2421.00,2.5512
2420.00,2.5555
2419.00,2.5601
2418.00,2.5641
2417.00,2.5669
2416.00,2.5689
2415.00,2.5711
2414.00,2.5743
2413.00,2.5777
2412.00,2.5804
2411.00,2.5819
2410.00,2.5831
2409.00,2.5849
2408.00,2.5877
2407.00,2.5910
2406.00,2.5941
2405.00,2.5969
2404.00,2.5995
2403.00,2.6022
2402.00,2.6052
2401.00,2.6084
2400.00,2.6118
2399.00,2.6147
2398.00,2.6170
2397.00,2.6187
2396.00,2.6198
2395.00,2.6205
2394.00,2.6211
2393.00,2.6222
2392.00,2.6240
2391.00,2.6261
2390.00,2.6281
2389.00,2.6298
2388.00,2.6311
2387.00,2.6323
2386.00,2.6335
2385.00,2.6348
2384.00,2.6361
2383.00,2.6373
2382.00,2.6383
2381.00,2.6387
2380.00,2.6384
2379.00,2.6380
2378.00,2.6385
2377.00,2.6410
2376.00,2.6451
2375.00,2.6493
2374.00,2.6522
2373.00,2.6531
2372.00,2.6527
2371.00,2.6522
2370.00,2.6525
2369.00,2.6538
2368.00,2.6553
2367.00,2.6561
2366.00,2.6561
2365.00,2.6558
2364.00,2.6557
2363.00,2.6560
2362.00,2.6567
2361.00,2.6576
2360.00,2.6587
2359.00,2.6591
2358.00,2.6581
2357.00,2.6562
2356.00,2.6546
2355.00,2.6539
2354.00,2.6535
2353.00,2.6528
2352.00,2.6518
2351.00,2.6507
2350.00,2.6498
2349.00,2.6483
2348.00,2.6455
2347.00,2.6417
2346.00,2.6378
2345.00,2.6356
2344.00,2.6355
2343.00,2.6369
2342.00,2.6381
2341.00,2.6380
2340.00,2.6368
2339.00,2.6349
2338.00,2.6324
2337.00,2.6289
2336.00,2.6246
2335.00,2.6201
2334.00,2.6166
2333.00,2.6142
2332.00,2.6126
2331.00,2.6112
2330.00,2.6100
2329.00,2.6083
2328.00,2.6053
2327.00,2.6009
2326.00,2.5963
2325.00,2.5925
2324.00,2.5896
2323.00,2.5872
2322.00,2.5849
2321.00,2.5826
2320.00,2.5799
2319.00,2.5762
2318.00,2.5720
2317.00,2.5680
2316.00,2.5644
2315.00,2.5606
2314.00,2.5564
2313.00,2.5519
2312.00,2.5473
2311.00,2.5423
2310.00,2.5372
2309.00,2.5321
2308.00,2.5273
2307.00,2.5226
2306.00,2.5179
2305.00,2.5135
2304.00,2.5093
2303.00,2.5047
2302.00,2.4992
2301.00,2.4933
2300.00,2.4878
2299.00,2.4830
2298.00,2.4782
2297.00,2.4727
2296.00,2.4666
2295.00,2.4603
2294.00,2.4544
2293.00,2.4486
2292.00,2.4427
2291.00,2.4361
2290.00,2.4290
2289.00,2.4220
2288.00,2.4157
2287.00,2.4096
2286.00,2.4032
2285.00,2.3961
2284.00,2.3885
2283.00,2.3804
2282.00,2.3721
2281.00,2.3639
2280.00,2.3560
2279.00,2.3483
2278.00,2.3405
2277.00,2.3321
2276.00,2.3232
2275.00,2.3139
2274.00,2.3043
2273.00,2.2947
2272.00,2.2853
2271.00,2.2761
2270.00,2.2667
2269.00,2.2567
2268.00,2.2463
2267.00,2.2355
2266.00,2.2246
2265.00,2.2140
2264.00,2.2033
2263.00,2.1924
2262.00,2.1807
2261.00,2.1684
2260.00,2.1558
2259.00,2.1430
2258.00,2.1303
2257.00,2.1177
2256.00,2.1050
2255.00,2.0920
2254.00,2.0785
2253.00,2.0644
2252.00,2.0497
2251.00,2.0348
2250.00,2.0196
2249.00,2.0043
2248.00,1.9886
2247.00,1.9725
2246.00,1.9560
2245.00,1.9392
2244.00,1.9223
2243.00,1.9052
2242.00,1.8878
2241.00,1.8700
2240.00,1.8519
2239.00,1.8336
2238.00,1.8151
2237.00,1.7963
2236.00,1.7772
2235.00,1.7579
2234.00,1.7385
2233.00,1.7190
2232.00,1.6994
2231.00,1.6797
2230.00,1.6600
2229.00,1.6403
2228.00,1.6207
2227.00,1.6012
2226.00,1.5817
2225.00,1.5624
2224.00,1.5433
2223.00,1.5244
2222.00,1.5057
2221.00,1.4875
2220.00,1.4697
2219.00,1.4524
2218.00,1.4355
2217.00,1.4192
2216.00,1.4034
2215.00,1.3882
2214.00,1.3737
2213.00,1.3598
2212.00,1.3466
2211.00,1.3340
2210.00,1.3219
2209.00,1.3106
2208.00,1.3002
2207.00,1.2906
2206.00,1.2820
2205.00,1.2746
2204.00,1.2684
2203.00,1.2634
2202.00,1.2597
2201.00,1.2571
2200.00,1.2559
2199.00,1.2561
2198.00,1.2576
2197.00,1.2607
2196.00,1.2654
2195.00,1.2718
2194.00,1.2797
2193.00,1.2894
2192.00,1.3006
2191.00,1.3134
2190.00,1.3275
2189.00,1.3430
2188.00,1.3597
2187.00,1.3775
2186.00,1.3961
2185.00,1.4154
2184.00,1.4355
2183.00,1.4561
2182.00,1.4773
2181.00,1.4989
2180.00,1.5208
2179.00,1.5428
2178.00,1.5646
2177.00,1.5862
2176.00,1.6072
2175.00,1.6277
2174.00,1.6476
2173.00,1.6671
2172.00,1.6863
2171.00,1.7055
2170.00,1.7248
2169.00,1.7444
2168.00,1.7644
2167.00,1.7847
2166.00,1.8051
2165.00,1.8256
2164.00,1.8461
2163.00,1.8666
2162.00,1.8870
2161.00,1.9071
2160.00,1.9270
2159.00,1.9468
2158.00,1.9664
2157.00,1.9857
2156.00,2.0044
2155.00,2.0226
2154.00,2.0402
2153.00,2.0576
2152.00,2.0750
2151.00,2.0925
2150.00,2.1100
2149.00,2.1270
2148.00,2.1435
2147.00,2.1593
2146.00,2.1748
2145.00,2.1900
2144.00,2.2049
2143.00,2.2195
2142.00,2.2336
2141.00,2.2474
2140.00,2.2607
2139.00,2.2736
2138.00,2.2860
2137.00,2.2982
2136.00,2.3103
2135.00,2.3224
2134.00,2.3346
2133.00,2.3469
2132.00,2.3590
2131.00,2.3708
2130.00,2.3821
2129.00,2.3934
2128.00,2.4045
2127.00,2.4155
2126.00,2.4266
2125.00,2.4378
2124.00,2.4486
2123.00,2.4589
2122.00,2.4684
2121.00,2.4773
2120.00,2.4858
2119.00,2.4943
2118.00,2.5033
2117.00,2.5130
2116.00,2.5226
2115.00,2.5315
2114.00,2.5396
2113.00,2.5478
2112.00,2.5566
2111.00,2.5655
2110.00,2.5737
2109.00,2.5810
2108.00,2.5879
2107.00,2.5944
2106.00,2.6007
2105.00,2.6076
2104.00,2.6155
2103.00,2.6236
2102.00,2.6303
2101.00,2.6352
2100.00,2.6397
2099.00,2.6454
2098.00,2.6527
2097.00,2.6605
2096.00,2.6680
2095.00,2.6749
2094.00,2.6816
2093.00,2.6883
2092.00,2.6946
2091.00,2.6998
2090.00,2.7040
2089.00,2.7077
2088.00,2.7117
2087.00,2.7164
2086.00,2.7217
2085.00,2.7271
2084.00,2.7323
2083.00,2.7372
2082.00,2.7423
2081.00,2.7480
2080.00,2.7545
2079.00,2.7611
2078.00,2.7668
2077.00,2.7712
2076.00,2.7749
2075.00,2.7782
2074.00,2.7811
2073.00,2.7836
2072.00,2.7863
2071.00,2.7900
2070.00,2.7951
2069.00,2.8012
2068.00,2.8075
2067.00,2.8124
2066.00,2.8151
2065.00,2.8162
2064.00,2.8173
2063.00,2.8196
2062.00,2.8232
2061.00,2.8275
2060.00,2.8322
2059.00,2.8366
2058.00,2.8402
2057.00,2.8431
2056.00,2.8459
2055.00,2.8490
2054.00,2.8513
2053.00,2.8518
2052.00,2.8514
2051.00,2.8519
2050.00,2.8540
2049.00,2.8567
2048.00,2.8591
2047.00,2.8616
2046.00,2.8645
2045.00,2.8670
2044.00,2.8684
2043.00,2.8692
2042.00,2.8705
2041.00,2.8727
2040.00,2.8751
2039.00,2.8773
2038.00,2.8793
2037.00,2.8812
2036.00,2.8829
2035.00,2.8846
2034.00,2.8867
2033.00,2.8891
2032.00,2.8919
2031.00,2.8947
2030.00,2.8972
2029.00,2.8993
2028.00,2.9009
2027.00,2.9021
2026.00,2.9024
2025.00,2.9021
2024.00,2.9020
2023.00,2.9030
2022.00,2.9048
2021.00,2.9061
2020.00,2.9056
2019.00,2.9038
2018.00,2.9021
2017.00,2.9018
2016.00,2.9029
2015.00,2.9043
2014.00,2.9055
2013.00,2.9062
2012.00,2.9064
2011.00,2.9065
2010.00,2.9063
2009.00,2.9057
2008.00,2.9050
2007.00,2.9047
2006.00,2.9049
2005.00,2.9053
2004.00,2.9058
2003.00,2.9064
2002.00,2.9065
2001.00,2.9050
2000.00,2.9017
1999.00,2.8981
1998.00,2.8959
1997.00,2.8955
1996.00,2.8963
1995.00,2.8966
1994.00,2.8957
1993.00,2.8928
1992.00,2.8881
1991.00,2.8827
1990.00,2.8787
1989.00,2.8775
1988.00,2.8786
1987.00,2.8798
1986.00,2.8794
1985.00,2.8774
1984.00,2.8751
1983.00,2.8737
1982.00,2.8740
1981.00,2.8751
1980.00,2.8756
1979.00,2.8745
1978.00,2.8720
1977.00,2.8694
1976.00,2.8671
1975.00,2.8641
1974.00,2.8599
1973.00,2.8551
1972.00,2.8513
1971.00,2.8487
1970.00,2.8468
1969.00,2.8447
1968.00,2.8417
1967.00,2.8372
1966.00,2.8314
1965.00,2.8259
1964.00,2.8223
1963.00,2.8202
1962.00,2.8175
1961.00,2.8124
1960.00,2.8057
1959.00,2.7992
1958.00,2.7939
1957.00,2.7895
1956.00,2.7856
1955.00,2.7821
1954.00,2.7788
1953.00,2.7755
1952.00,2.7720
1951.00,2.7682
1950.00,2.7642
1949.00,2.7595
1948.00,2.7534
1947.00,2.7461
1946.00,2.7377
1945.00,2.7286
1944.00,2.7193
1943.00,2.7099
1942.00,2.7010
1941.00,2.6931
1940.00,2.6869
1939.00,2.6824
1938.00,2.6788
1937.00,2.6747
1936.00,2.6697
1935.00,2.6636
1934.00,2.6565
1933.00,2.6489
1932.00,2.6411
1931.00,2.6335
1930.00,2.6259
1929.00,2.6178
1928.00,2.6091
1927.00,2.6004
1926.00,2.5913
1925.00,2.5810
1924.00,2.5686
1923.00,2.5545
1922.00,2.5402
1921.00,2.5272
1920.00,2.5161
1919.00,2.5060
1918.00,2.4959
1917.00,2.4850
1916.00,2.4735
1915.00,2.4622
1914.00,2.4519
1913.00,2.4426
1912.00,2.4333
1911.00,2.4222
1910.00,2.4085
1909.00,2.3927
1908.00,2.3764
1907.00,2.3609
1906.00,2.3464
1905.00,2.3327
1904.00,2.3189
1903.00,2.3043
1902.00,2.2886
1901.00,2.2718
1900.00,2.2542
1899.00,2.2359
1898.00,2.2168
1897.00,2.1967
1896.00,2.1755
1895.00,2.1533
1894.00,2.1308
1893.00,2.1087
1892.00,2.0869
1891.00,2.0642
1890.00,2.0400
1889.00,2.0147
1888.00,1.9897
1887.00,1.9662
1886.00,1.9443
1885.00,1.9231
1884.00,1.9017
1883.00,1.8796
1882.00,1.8568
1881.00,1.8340
1880.00,1.8116
1879.00,1.7896
1878.00,1.7681
1877.00,1.7473
1876.00,1.7275
1875.00,1.7086
1874.00,1.6904
1873.00,1.6727
1872.00,1.6547
1871.00,1.6353
1870.00,1.6139
1869.00,1.5913
1868.00,1.5688
1867.00,1.5478
1866.00,1.5298
1865.00,1.5157
1864.00,1.5045
1863.00,1.4945
1862.00,1.4843
1861.00,1.4740
1860.00,1.4649
1859.00,1.4581
1858.00,1.4541
1857.00,1.4534
1856.00,1.4562
1855.00,1.4621
1854.00,1.4707
1853.00,1.4820
1852.00,1.4960
1851.00,1.5125
1850.00,1.5307
1849.00,1.5506
1848.00,1.5717
1847.00,1.5930
1846.00,1.6149
1845.00,1.6400
1844.00,1.6703
1843.00,1.7041
1842.00,1.7376
1841.00,1.7702
1840.00,1.8038
1839.00,1.8395
1838.00,1.8754
1837.00,1.9093
1836.00,1.9411
1835.00,1.9721
1834.00,2.0032
1833.00,2.0331
1832.00,2.0606
1831.00,2.0864
1830.00,2.1119
1829.00,2.1382
1828.00,2.1644
1827.00,2.1892
1826.00,2.2134
1825.00,2.2387
1824.00,2.2656
1823.00,2.2928
1822.00,2.3198
1821.00,2.3471
1820.00,2.3744
1819.00,2.3999
1818.00,2.4228
1817.00,2.4442
1816.00,2.4654
1815.00,2.4867
1814.00,2.5075
1813.00,2.5271
1812.00,2.5448
1811.00,2.5597
1810.00,2.5719
1809.00,2.5831
1808.00,2.5951
1807.00,2.6085
1806.00,2.6227
1805.00,2.6363
1804.00,2.6472
1803.00,2.6539
1802.00,2.6570
1801.00,2.6606
1800.00,2.6689
1799.00,2.6827
1798.00,2.6996
1797.00,2.7161
1796.00,2.7299
1795.00,2.7410
1794.00,2.7517
1793.00,2.7641
1792.00,2.7776
1791.00,2.7900
1790.00,2.8020
1789.00,2.8170
1788.00,2.8357
1787.00,2.8547
1786.00,2.8711
1785.00,2.8852
1784.00,2.8985
1783.00,2.9110
1782.00,2.9221
1781.00,2.9325
1780.00,2.9437
1779.00,2.9553
1778.00,2.9677
1777.00,2.9813
1776.00,2.9950
1775.00,3.0059
1774.00,3.0132
1773.00,3.0201
1772.00,3.0299
1771.00,3.0406
1770.00,3.0491
1769.00,3.0562
1768.00,3.0642
1767.00,3.0734
1766.00,3.0827
1765.00,3.0918
1764.00,3.1012
1763.00,3.1105
1762.00,3.1181
1761.00,3.1213
1760.00,3.1200
1759.00,3.1174
1758.00,3.1185
1757.00,3.1262
1756.00,3.1390
1755.00,3.1519
1754.00,3.1612
1753.00,3.1675
1752.00,3.1709
1751.00,3.1693
1750.00,3.1619
1749.00,3.1526
1748.00,3.1467
1747.00,3.1458
1746.00,3.1479
1745.00,3.1506
1744.00,3.1522
1743.00,3.1505
1742.00,3.1456
1741.00,3.1397
1740.00,3.1347
1739.00,3.1294
1738.00,3.1210
1737.00,3.1073
1736.00,3.0903
1735.00,3.0734
1734.00,3.0591
1733.00,3.0487
1732.00,3.0439
1731.00,3.0509
1730.00,3.0784
1729.00,3.1325
1728.00,3.2155
1727.00,3.3271
1726.00,3.4651
1725.00,3.6257
1724.00,3.7966
1723.00,3.9605
1722.00,4.1041
1721.00,4.2273
1720.00,4.3404
1719.00,4.5398
1718.00,4.9907
1717.00,5.0381
1716.00,4.7917
1715.00,4.7680
1714.00,4.7521
1713.00,4.7764
1712.00,4.8259
1711.00,4.9535
1710.00,5.2982
1709.00,5.0470
1708.00,4.6684
1707.00,4.5135
1706.00,4.4671
1705.00,4.4973
1704.00,4.5270
1703.00,4.4173
1702.00,4.1769
1701.00,3.9106
1700.00,3.6919
1699.00,3.5326
1698.00,3.3980
1697.00,3.2562
1696.00,3.1048
1695.00,2.9619
1694.00,2.8375
1693.00,2.7245
1692.00,2.6185
1691.00,2.5232
1690.00,2.4434
1689.00,2.3814
1688.00,2.3389
1687.00,2.3174
1686.00,2.3182
1685.00,2.3420
1684.00,2.3850
1683.00,2.4355
1682.00,2.4828
1681.00,2.5276
1680.00,2.5743
1679.00,2.6218
1678.00,2.6645
1677.00,2.6995
1676.00,2.7287
1675.00,2.7542
1674.00,2.7757
1673.00,2.7916
1672.00,2.8033
1671.00,2.8143
1670.00,2.8273
1669.00,2.8432
1668.00,2.8622
1667.00,2.8830
1666.00,2.9033
1665.00,2.9212
1664.00,2.9370
1663.00,2.9525
1662.00,2.9692
1661.00,2.9871
1660.00,3.0058
1659.00,3.0238
1658.00,3.0389
1657.00,3.0489
1656.00,3.0518
1655.00,3.0485
1654.00,3.0459
1653.00,3.0529
1652.00,3.0701
1651.00,3.0879
1650.00,3.0956
1649.00,3.0949
1648.00,3.0941
1647.00,3.0966
1646.00,3.1035
1645.00,3.1150
1644.00,3.1277
1643.00,3.1377
1642.00,3.1458
1641.00,3.1561
1640.00,3.1689
1639.00,3.1784
1638.00,3.1805
1637.00,3.1781
1636.00,3.1770
1635.00,3.1799
1634.00,3.1863
1633.00,3.1941
1632.00,3.2005
1631.00,3.2058
1630.00,3.2113
1629.00,3.2183
1628.00,3.2253
1627.00,3.2278
1626.00,3.2229
1625.00,3.2144
1624.00,3.2080
1623.00,3.2054
1622.00,3.2045
1621.00,3.2044
1620.00,3.2070
1619.00,3.2125
1618.00,3.2190
1617.00,3.2236
1616.00,3.2254
1615.00,3.2246
1614.00,3.2223
1613.00,3.2209
1612.00,3.2213
1611.00,3.2223
1610.00,3.2218
1609.00,3.2211
1608.00,3.2235
1607.00,3.2287
1606.00,3.2324
1605.00,3.2312
1604.00,3.2271
1603.00,3.2239
1602.00,3.2242
1601.00,3.2275
1600.00,3.2317
1599.00,3.2354
1598.00,3.2378
1597.00,3.2380
1596.00,3.2339
1595.00,3.2264
1594.00,3.2193
1593.00,3.2162
1592.00,3.2162
1591.00,3.2151
1590.00,3.2109
1589.00,3.2073
1588.00,3.2088
1587.00,3.2152
1586.00,3.2208
1585.00,3.2191
1584.00,3.2093
1583.00,3.1969
1582.00,3.1883
1581.00,3.1865
1580.00,3.1885
1579.00,3.1891
1578.00,3.1867
1577.00,3.1843
1576.00,3.1829
1575.00,3.1801
1574.00,3.1738
1573.00,3.1658
1572.00,3.1608
1571.00,3.1616
1570.00,3.1654
1569.00,3.1651
1568.00,3.1557
1567.00,3.1385
1566.00,3.1203
1565.00,3.1086
1564.00,3.1067
1563.00,3.1116
1562.00,3.1164
1561.00,3.1152
1560.00,3.1037
1559.00,3.0831
1558.00,3.0610
1557.00,3.0504
1556.00,3.0517
1555.00,3.0522
1554.00,3.0489
1553.00,3.0451
1552.00,3.0419
1551.00,3.0371
1550.00,3.0309
1549.00,3.0246
1548.00,3.0184
1547.00,3.0095
1546.00,2.9948
1545.00,2.9750
1544.00,2.9538
1543.00,2.9353
1542.00,2.9228
1541.00,2.9161
1540.00,2.9125
1539.00,2.9101
1538.00,2.9090
1537.00,2.9064
1536.00,2.8994
1535.00,2.8908
1534.00,2.8815
1533.00,2.8703
1532.00,2.8563
1531.00,2.8419
1530.00,2.8305
1529.00,2.8219
1528.00,2.8131
1527.00,2.8010
1526.00,2.7852
1525.00,2.7687
1524.00,2.7552
1523.00,2.7450
1522.00,2.7362
1521.00,2.7273
1520.00,2.7177
1519.00,2.7088
1518.00,2.7005
1517.00,2.6917
1516.00,2.6805
1515.00,2.6673
1514.00,2.6538
1513.00,2.6402
1512.00,2.6246
1511.00,2.6040
1510.00,2.5764
1509.00,2.5428
1508.00,2.5057
1507.00,2.4688
1506.00,2.4394
1505.00,2.4274
1504.00,2.4272
1503.00,2.4222
1502.00,2.4087
1501.00,2.3899
1500.00,2.3672
1499.00,2.3414
1498.00,2.3127
1497.00,2.2823
1496.00,2.2529
1495.00,2.2276
1494.00,2.2071
1493.00,2.1890
1492.00,2.1717
1491.00,2.1540
1490.00,2.1352
1489.00,2.1167
1488.00,2.1036
1487.00,2.0989
1486.00,2.0988
1485.00,2.0972
1484.00,2.0922
1483.00,2.0842
1482.00,2.0748
1481.00,2.0660
1480.00,2.0588
1479.00,2.0535
1478.00,2.0491
1477.00,2.0455
1476.00,2.0434
1475.00,2.0455
1474.00,2.0557
1473.00,2.0781
1472.00,2.1139
1471.00,2.1608
1470.00,2.2154
1469.00,2.2740
1468.00,2.3337
1467.00,2.3921
1466.00,2.4469
1465.00,2.4956
1464.00,2.5355
1463.00,2.5651
1462.00,2.5872
1461.00,2.6068
1460.00,2.6279
1459.00,2.6531
1458.00,2.6869
1457.00,2.7371
1456.00,2.8092
1455.00,2.8992
1454.00,2.9952
1453.00,3.0890
1452.00,3.1738
1451.00,3.2342
1450.00,3.2536
1449.00,3.2249
1448.00,3.1513
1447.00,3.0475
1446.00,2.9332
1445.00,2.8238
1444.00,2.7266
1443.00,2.6458
1442.00,2.5863
1441.00,2.5509
1440.00,2.5386
1439.00,2.5461
1438.00,2.5705
1437.00,2.6110
1436.00,2.6647
1435.00,2.7260
1434.00,2.7881
1433.00,2.8452
1432.00,2.8920
1431.00,2.9232
1430.00,2.9368
1429.00,2.9374
1428.00,2.9323
1427.00,2.9273
1426.00,2.9250
1425.00,2.9262
1424.00,2.9282
1423.00,2.9258
1422.00,2.9153
1421.00,2.8934
1420.00,2.8545
1419.00,2.7955
1418.00,2.7238
1417.00,2.6549
1416.00,2.5999
1415.00,2.5599
1414.00,2.5315
1413.00,2.5109
1412.00,2.4962
1411.00,2.4880
1410.00,2.4881
1409.00,2.4970
1408.00,2.5133
1407.00,2.5343
1406.00,2.5573
1405.00,2.5813
1404.00,2.6080
1403.00,2.6375
1402.00,2.6671
1401.00,2.6932
1400.00,2.7147
1399.00,2.7328
1398.00,2.7495
1397.00,2.7664
1396.00,2.7850
1395.00,2.8066
1394.00,2.8323
1393.00,2.8614
1392.00,2.8915
1391.00,2.9197
1390.00,2.9447
1389.00,2.9668
1388.00,2.9863
1387.00,3.0031
1386.00,3.0179
1385.00,3.0320
1384.00,3.0461
1383.00,3.0606
1382.00,3.0773
1381.00,3.0971
1380.00,3.1173
1379.00,3.1330
1378.00,3.1414
1377.00,3.1451
1376.00,3.1485
1375.00,3.1539
1374.00,3.1630
1373.00,3.1781
1372.00,3.1987
1371.00,3.2196
1370.00,3.2360
1369.00,3.2487
1368.00,3.2622
1367.00,3.2777
1366.00,3.2924
1365.00,3.3040
1364.00,3.3127
1363.00,3.3199
1362.00,3.3268
1361.00,3.3358
1360.00,3.3498
1359.00,3.3700
1358.00,3.3956
1357.00,3.4233
1356.00,3.4477
1355.00,3.4647
1354.00,3.4758
1353.00,3.4871
1352.00,3.5029
1351.00,3.5213
1350.00,3.5365
1349.00,3.5446
1348.00,3.5457
1347.00,3.5428
1346.00,3.5404
1345.00,3.5419
1344.00,3.5458
1343.00,3.5455
1342.00,3.5365
1341.00,3.5207
1340.00,3.5053
1339.00,3.4965
1338.00,3.4944
1337.00,3.4924
1336.00,3.4839
1335.00,3.4708
1334.00,3.4600
1333.00,3.4545
1332.00,3.4518
1331.00,3.4518
1330.00,3.4599
1329.00,3.4813
1328.00,3.5116
1327.00,3.5375
1326.00,3.5485
1325.00,3.5473
1324.00,3.5443
1323.00,3.5471
1322.00,3.5589
1321.00,3.5775
1320.00,3.5939
1319.00,3.5990
1318.00,3.5962
1317.00,3.5980
1316.00,3.6106
1315.00,3.6303
1314.00,3.6547
1313.00,3.6853
1312.00,3.7135
1311.00,3.7125
1310.00,3.6692
1309.00,3.6072
1308.00,3.5546
1307.00,3.5198
1306.00,3.4984
1305.00,3.4865
1304.00,3.4846
1303.00,3.4922
1302.00,3.5042
1301.00,3.5137
1300.00,3.5161
1299.00,3.5113
1298.00,3.5054
1297.00,3.5069
1296.00,3.5189
1295.00,3.5352
1294.00,3.5453
1293.00,3.5473
1292.00,3.5480
1291.00,3.5503
1290.00,3.5504
1289.00,3.5467
1288.00,3.5452
1287.00,3.5533
1286.00,3.5743
1285.00,3.6053
1284.00,3.6381
1283.00,3.6590
1282.00,3.6544
1281.00,3.6278
1280.00,3.6009
1279.00,3.5923
1278.00,3.6037
1277.00,3.6229
1276.00,3.6362
1275.00,3.6389
1274.00,3.6331
1273.00,3.6212
1272.00,3.6066
1271.00,3.5958
1270.00,3.5943
1269.00,3.6028
1268.00,3.6197
1267.00,3.6427
1266.00,3.6663
1265.00,3.6789
1264.00,3.6741
1263.00,3.6622
1262.00,3.6588
1261.00,3.6661
1260.00,3.6725
1259.00,3.6720
1258.00,3.6744
1257.00,3.6902
1256.00,3.7130
1255.00,3.7267
1254.00,3.7269
1253.00,3.7227
1252.00,3.7172
1251.00,3.7019
1250.00,3.6761
1249.00,3.6548
1248.00,3.6502
1247.00,3.6579
1246.00,3.6664
1245.00,3.6724
1244.00,3.6769
1243.00,3.6748
1242.00,3.6645
1241.00,3.6558
1240.00,3.6593
1239.00,3.6748
1238.00,3.6904
1237.00,3.6947
1236.00,3.6907
1235.00,3.6900
1234.00,3.7004
1233.00,3.7178
1232.00,3.7299
1231.00,3.7320
1230.00,3.7320
1229.00,3.7389
1228.00,3.7526
1227.00,3.7646
1226.00,3.7697
1225.00,3.7768
1224.00,3.8017
1223.00,3.8490
1222.00,3.9010
1221.00,3.9351
1220.00,3.9490
1219.00,3.9498
1218.00,3.9412
1217.00,3.9191
1216.00,3.8782
1215.00,3.8319
1214.00,3.8010
1213.00,3.7926
1212.00,3.7979
1211.00,3.8004
1210.00,3.7883
1209.00,3.7638
1208.00,3.7362
1207.00,3.7062
1206.00,3.6764
1205.00,3.6551
1204.00,3.6412
1203.00,3.6339
1202.00,3.6417
1201.00,3.6672
1200.00,3.6980
1199.00,3.7156
1198.00,3.7113
1197.00,3.6878
1196.00,3.6567
1195.00,3.6352
1194.00,3.6341
1193.00,3.6522
1192.00,3.6802
1191.00,3.7094
1190.00,3.7383
1189.00,3.7657
1188.00,3.7806
1187.00,3.7701
1186.00,3.7383
1185.00,3.7001
1184.00,3.6618
1183.00,3.6218
1182.00,3.5863
1181.00,3.5681
1180.00,3.5730
1179.00,3.5905
1178.00,3.6019
1177.00,3.5981
1176.00,3.5813
1175.00,3.5628
1174.00,3.5566
1173.00,3.5637
1172.00,3.5677
1171.00,3.5524
1170.00,3.5259
1169.00,3.5121
1168.00,3.5223
1167.00,3.5437
1166.00,3.5511
1165.00,3.5332
1164.00,3.5021
1163.00,3.4741
1162.00,3.4567
1161.00,3.4482
1160.00,3.4407
1159.00,3.4269
1158.00,3.4070
1157.00,3.3874
1156.00,3.3749
1155.00,3.3717
1154.00,3.3747
1153.00,3.3780
1152.00,3.3762
1151.00,3.3651
1150.00,3.3435
1149.00,3.3164
1148.00,3.2919
1147.00,3.2745
1146.00,3.2631
1145.00,3.2506
1144.00,3.2282
1143.00,3.1947
1142.00,3.1592
1141.00,3.1315
1140.00,3.1129
1139.00,3.0975
1138.00,3.0804
1137.00,3.0617
1136.00,3.0423
1135.00,3.0195
1134.00,2.9917
1133.00,2.9631
1132.00,2.9404
1131.00,2.9278
1130.00,2.9269
1129.00,2.9405
1128.00,2.9726
1127.00,3.0264
1126.00,3.1026
1125.00,3.2005
1124.00,3.3188
1123.00,3.4539
1122.00,3.5952
1121.00,3.7228
1120.00,3.8055
1119.00,3.8284
1118.00,3.8141
1117.00,3.7819
1116.00,3.7466
1115.00,3.7203
1114.00,3.7007
1113.00,3.6790
1112.00,3.6468
1111.00,3.5971
1110.00,3.5289
1109.00,3.4519
1108.00,3.3788
1107.00,3.3174
1106.00,3.2694
1105.00,3.2323
1104.00,3.2009
1103.00,3.1679
1102.00,3.1274
1101.00,3.0808
1100.00,3.0342
1099.00,2.9925
1098.00,2.9578
1097.00,2.9311
1096.00,2.9127
1095.00,2.9011
1094.00,2.8934
1093.00,2.8874
1092.00,2.8826
1091.00,2.8787
1090.00,2.8751
1089.00,2.8725
1088.00,2.8726
1087.00,2.8757
1086.00,2.8789
1085.00,2.8800
1084.00,2.8809
1083.00,2.8854
1082.00,2.8958
1081.00,2.9119
1080.00,2.9337
1079.00,2.9606
1078.00,2.9891
1077.00,3.0144
1076.00,3.0356
1075.00,3.0566
1074.00,3.0801
1073.00,3.1050
1072.00,3.1298
1071.00,3.1551
1070.00,3.1793
1069.00,3.1951
1068.00,3.2004
1067.00,3.2061
1066.00,3.2275
1065.00,3.2681
1064.00,3.3145
1063.00,3.3469
1062.00,3.3604
1061.00,3.3686
1060.00,3.3875
1059.00,3.4218
1058.00,3.4607
1057.00,3.4838
1056.00,3.4804
1055.00,3.4630
1054.00,3.4545
1053.00,3.4679
1052.00,3.4951
1051.00,3.5099
1050.00,3.4954
1049.00,3.4594
1048.00,3.4116
1047.00,3.3634
1046.00,3.3333
1045.00,3.3317
1044.00,3.3537
1043.00,3.3829
1042.00,3.4064
1041.00,3.4211
1040.00,3.4305
1039.00,3.4406
1038.00,3.4562
1037.00,3.4779
1036.00,3.5013
1035.00,3.5213
1034.00,3.5403
1033.00,3.5689
1032.00,3.6168
1031.00,3.6802
1030.00,3.7364
1029.00,3.7646
1028.00,3.7689
1027.00,3.7668
1026.00,3.7637
1025.00,3.7585
1024.00,3.7544
1023.00,3.7536
1022.00,3.7584
1021.00,3.7720
1020.00,3.7951
1019.00,3.8228
1018.00,3.8399
1017.00,3.8391
1016.00,3.8412
1015.00,3.8655
1014.00,3.8998
1013.00,3.9052
1012.00,3.8664
1011.00,3.8161
1010.00,3.7896
1009.00,3.8009
1008.00,3.8470
1007.00,3.9098
1006.00,3.9655
1005.00,4.0022
1004.00,4.0225
1003.00,4.0311
1002.00,4.0304
1001.00,4.0285
1000.00,4.0415
999.00,4.0771
998.00,4.1244
997.00,4.1866
996.00,4.2553
995.00,4.2307
994.00,4.1128
993.00,4.0022
992.00,3.9391
991.00,3.9211
990.00,3.9270
989.00,3.9419
988.00,3.9708
987.00,4.0245
986.00,4.0832
985.00,4.1031
984.00,4.0960
983.00,4.0622
982.00,3.9798
981.00,3.9055
980.00,3.8833
979.00,3.9145
978.00,3.9824
977.00,4.0618
976.00,4.1291
975.00,4.1585
974.00,4.1259
973.00,4.0680
972.00,4.0612
971.00,4.1601
970.00,4.3844
969.00,4.5786
968.00,4.4612
967.00,4.2864
966.00,4.1801
965.00,4.1201
964.00,4.0554
963.00,3.9984
962.00,3.9866
961.00,4.0335
960.00,4.1263
959.00,4.2298
958.00,4.2957
957.00,4.3420
956.00,4.4573
955.00,4.7301
954.00,5.1287
953.00,4.4043
952.00,4.1230
951.00,3.9978
950.00,3.9754
949.00,4.0433
948.00,4.1866
947.00,4.3312
946.00,4.3671
945.00,4.2729
944.00,4.1379
943.00,4.0596
942.00,4.0303
941.00,4.0288
940.00,4.0614
939.00,4.1252
938.00,4.1725
937.00,4.1745
936.00,4.1940
935.00,4.2685
934.00,4.3766
933.00,4.4692
932.00,4.6154
931.00,5.2440
930.00,4.6553
929.00,4.3131
928.00,4.1547
927.00,4.1131
926.00,4.2019
925.00,4.4566
924.00,5.0989
923.00,4.9302
922.00,4.6098
921.00,4.5247
920.00,4.4587
919.00,4.2506
918.00,4.0979
917.00,4.0681
916.00,4.1044
915.00,4.1126
914.00,4.0982
913.00,4.1247
912.00,4.2163
911.00,4.3752
910.00,4.5607
909.00,4.5982
908.00,4.4645
907.00,4.3696
906.00,4.3571
905.00,4.3637
904.00,4.3607
903.00,4.3802
902.00,4.3490
901.00,4.2159
900.00,4.0907
899.00,4.0538
898.00,4.1438
897.00,4.3842
896.00,4.6452
895.00,4.6709
894.00,4.8857
893.00,5.2829
892.00,4.6622
891.00,4.5890
890.00,4.8103
889.00,4.7804
888.00,4.5960
887.00,4.5746
886.00,4.5530
885.00,4.5184
884.00,4.4349
883.00,4.2891
882.00,4.1996
881.00,4.2439
880.00,4.4499
879.00,4.6078
878.00,4.4252
877.00,4.2645
876.00,4.2140
875.00,4.3321
874.00,4.7722
873.00,4.6887
872.00,4.3570
871.00,4.2919
870.00,4.3131
869.00,4.3022
868.00,4.2460
867.00,4.1915
866.00,4.1820
865.00,4.3254
864.00,4.8621
863.00,4.5874
862.00,4.2648
861.00,4.2350
860.00,4.3345
859.00,4.3960
858.00,4.3239
857.00,4.2798
856.00,4.3316
855.00,4.4831
854.00,4.7231
853.00,4.6468
852.00,4.3412
851.00,4.2443
850.00,4.3179
849.00,4.4233
848.00,4.4443
847.00,4.4506
846.00,4.4062
845.00,4.3178
844.00,4.2310
843.00,4.2005
842.00,4.2588
841.00,4.4618
840.00,4.9976
839.00,4.8838
838.00,4.5741
837.00,4.5844
836.00,4.8213
835.00,4.7283
834.00,4.4592
833.00,4.3530
832.00,4.4033
831.00,4.6877
830.00,4.7239
829.00,4.5445
828.00,4.5607
827.00,4.4941
826.00,4.4078
825.00,4.3803
824.00,4.3679
823.00,4.3665
822.00,4.4362
821.00,4.5079
820.00,4.4174
819.00,4.3500
818.00,4.3512
817.00,4.3527
816.00,4.3548
815.00,4.4340
814.00,4.5820
813.00,4.5446
812.00,4.7134
811.00,4.9816
810.00,4.2737
809.00,4.0886
808.00,4.0983
807.00,4.2609
806.00,4.7072
805.00,5.2972
804.00,4.9732
803.00,4.9186
802.00,4.9311
801.00,4.8527
800.00,4.6227
799.00,4.3774
798.00,4.2039
797.00,4.0928
796.00,4.0529
795.00,4.1042
794.00,4.2540
793.00,4.4185
792.00,4.5362
791.00,4.7095
790.00,4.6029
789.00,4.3081
788.00,4.1449
787.00,4.0931
786.00,4.1036
785.00,4.1159
784.00,4.1352
783.00,4.1772
782.00,4.1844
781.00,4.1916
780.00,4.2704
779.00,4.3933
778.00,4.4996
777.00,4.5374
776.00,4.6684
775.00,4.8598
774.00,4.5119
773.00,4.2647
772.00,4.1555
771.00,4.0531
770.00,3.9487
769.00,3.9125
768.00,3.9561
767.00,4.0590
766.00,4.1686
765.00,4.3772
764.00,4.7490
763.00,4.6705
762.00,4.9289
761.00,4.6069
760.00,4.1733
759.00,4.0004
758.00,3.9230
757.00,3.9110
756.00,3.9393
755.00,3.9671
754.00,3.9627
753.00,3.9505
752.00,3.9664
751.00,4.0179
750.00,4.0923
749.00,4.1465
748.00,4.1358
747.00,4.1022
746.00,4.0936
745.00,4.0918
744.00,4.0641
743.00,4.0287
742.00,4.0307
741.00,4.0841
740.00,4.1645
739.00,4.2108
738.00,4.1761
737.00,4.1201
736.00,4.0993
735.00,4.1335
734.00,4.2206
733.00,4.3150
732.00,4.4040
731.00,4.5008
730.00,4.3801
729.00,4.1426
728.00,4.0519
727.00,4.1404
726.00,4.3849
725.00,4.6210
724.00,4.6375
723.00,4.4621
722.00,4.2461
721.00,4.0664
720.00,3.9327
719.00,3.8612
718.00,3.8610
717.00,3.9221
716.00,3.9725
715.00,3.9864
714.00,4.0487
713.00,4.2824
712.00,4.4303
711.00,4.3498
710.00,4.6097
709.00,4.3214
708.00,4.0061
707.00,3.9525
706.00,3.9424
705.00,3.8983
704.00,3.8868
703.00,3.9336
702.00,3.9674
701.00,3.9212
700.00,3.8390
699.00,3.7951
698.00,3.8041
697.00,3.8333
696.00,3.8475
695.00,3.8521
694.00,3.8636
693.00,3.8771
692.00,3.9031
691.00,3.9757
690.00,4.0060
689.00,3.9249
688.00,3.9204
687.00,4.0397
686.00,4.0561
685.00,3.9392
684.00,3.8967
683.00,3.9483
682.00,4.0763
681.00,4.2601
680.00,4.4044
679.00,4.3321
678.00,4.1718
677.00,4.1463
676.00,4.3371
675.00,4.4801
674.00,4.3074
673.00,4.2389
672.00,4.1785
671.00,4.0703
670.00,4.0081
669.00,3.9402
668.00,3.8192
667.00,3.7360
666.00,3.7328
665.00,3.7821
664.00,3.8537
663.00,3.9322
662.00,4.0286
661.00,4.1499
660.00,4.2205
659.00,4.1404
658.00,4.0011
657.00,3.9429
656.00,4.0050
655.00,4.2840
654.00,4.4563
653.00,4.3963
652.00,4.5810
651.00,4.2005
650.00,4.0027
649.00,4.0380
648.00,4.1369
647.00,4.1802
646.00,4.2376
645.00,4.4221
644.00,4.2472
643.00,3.9793
642.00,3.8562
641.00,3.8617
640.00,3.9609
639.00,4.1504
638.00,4.4336
637.00,4.3424
636.00,4.1552
635.00,4.1899
634.00,4.2395
633.00,4.0916
632.00,3.9743
631.00,3.9316
630.00,3.9132
629.00,3.9205
628.00,3.9080
627.00,3.8232
626.00,3.7050
625.00,3.6229
624.00,3.6209
623.00,3.7056
622.00,3.8405
621.00,3.9408
620.00,3.9354
619.00,3.8810
618.00,3.8657
617.00,3.8907
616.00,4.0038
615.00,4.2553
614.00,4.2004
613.00,3.9611
612.00,3.8485
611.00,3.7916
610.00,3.7549
609.00,3.7526
608.00,3.8232
607.00,4.0063
606.00,4.2213
605.00,4.1706
604.00,3.9654
603.00,3.8401
602.00,3.8263
601.00,3.9618
600.00,4.4100
599.00,4.6310
598.00,4.3050
597.00,4.4376
596.00,4.9246
595.00,5.2157
594.00,4.7206
593.00,4.2958
592.00,4.0655
591.00,3.9875
590.00,3.9810
589.00,3.9578
588.00,3.9209
587.00,3.8703
586.00,3.8168
585.00,3.8223
584.00,3.9220
583.00,4.1430
582.00,4.5674
581.00,4.6625
580.00,4.4057
579.00,4.2703
578.00,4.3822
577.00,4.8045
576.00,4.4235
575.00,4.1802
574.00,4.0383
573.00,3.8740
572.00,3.7522
571.00,3.6781
570.00,3.7035
569.00,3.8416
568.00,3.9719
567.00,3.9518
566.00,3.8356
565.00,3.7170
564.00,3.6872
563.00,3.7287
562.00,3.7429
561.00,3.6838
560.00,3.6229
559.00,3.6181
558.00,3.6481
557.00,3.6577
556.00,3.6416
555.00,3.6577
554.00,3.7326
553.00,3.7808
552.00,3.7670
551.00,3.8208
550.00,3.9907
549.00,4.1396
548.00,4.1438
547.00,4.0563
546.00,4.0550
545.00,4.0972
544.00,4.3255
543.00,4.8996
542.00,4.2012
541.00,3.9158
540.00,3.8183
539.00,3.8047
538.00,3.8386
537.00,3.8112
536.00,3.8776
535.00,4.1347
534.00,4.5465
533.00,4.4401
532.00,3.9827
531.00,3.8026
530.00,3.8568
529.00,4.0488
528.00,4.0652
527.00,3.9668
526.00,3.9641
525.00,4.1242
524.00,4.3931
523.00,4.2817
522.00,4.2188
521.00,4.1432
520.00,3.9701
519.00,3.7850
518.00,3.6168
517.00,3.5335
516.00,3.5377
515.00,3.5636
514.00,3.5272
513.00,3.4973
512.00,3.5533
511.00,3.9005
510.00,4.1532
509.00,3.6396
508.00,3.5176
507.00,3.5435
506.00,3.5857
505.00,3.6131
504.00,3.5762
503.00,3.5451
502.00,3.5418
501.00,3.5996
500.00,3.6682
499.00,3.6370
498.00,3.5604
497.00,3.5523
496.00,3.6667
495.00,3.8783
494.00,3.8995
493.00,3.7611
492.00,3.7209
491.00,3.7644
490.00,3.7614
489.00,3.6573
488.00,3.5481
487.00,3.4936
486.00,3.4846
485.00,3.5530
484.00,3.6989
483.00,3.6564
482.00,3.5033
481.00,3.4489
480.00,3.4605
479.00,3.4970
478.00,3.5298
477.00,3.5508
476.00,3.5728
475.00,3.5869
474.00,3.6108
473.00,3.6789
472.00,3.7467
471.00,3.8021
470.00,3.9223
469.00,4.0558
468.00,3.9708
467.00,3.9219
466.00,4.0654
465.00,4.0361
464.00,3.7781
463.00,3.8555
462.00,4.4223
461.00,4.2146
460.00,3.8996
459.00,3.6476
458.00,3.4492
457.00,3.3347
456.00,3.2679
455.00,3.2651
454.00,3.3369
453.00,3.4586
452.00,3.5644
451.00,3.5659
450.00,3.4177
449.00,3.2975
448.00,3.2395
447.00,3.2070
446.00,3.1985
445.00,3.2086
444.00,3.2260
443.00,3.2336
442.00,3.2519
441.00,3.3081
440.00,3.3502
439.00,3.2944
438.00,3.1702
437.00,3.0611
436.00,3.0098
435.00,3.0160
434.00,3.0401
433.00,3.0371
432.00,3.0041
431.00,2.9732
430.00,2.9813
429.00,3.0434
428.00,3.1427
427.00,3.2718
426.00,3.4163
425.00,3.4754
424.00,3.3472
423.00,3.2474
422.00,3.1687
421.00,3.2085
420.00,3.6032
419.00,3.3500
418.00,2.9872
417.00,2.9291
416.00,2.9453
415.00,2.9599
414.00,3.0130
413.00,3.1577
412.00,3.3423
411.00,3.1886
410.00,2.9436
409.00,2.8268
408.00,2.8012
407.00,2.8032
406.00,2.7800
405.00,2.7543
404.00,2.7609
403.00,2.7986
402.00,2.8016
401.00,2.7058
400.00,2.5898
