Created as New Dataset,Sample 179 By Administrator Date Friday, November 26 2021
cm-1,A
7000.00,0.8787
6999.00,0.8820
6998.00,0.8851
6997.00,0.8884
6996.00,0.8918
6995.00,0.8953
6994.00,0.8989
6993.00,0.9023
6992.00,0.9056
6991.00,0.9090
6990.00,0.9126
6989.00,0.9163
6988.00,0.9201
6987.00,0.9239
6986.00,0.9278
6985.00,0.9316
6984.00,0.9353
6983.00,0.9387
6982.00,0.9420
6981.00,0.9454
6980.00,0.9490
6979.00,0.9527
6978.00,0.9565
6977.00,0.9603
6976.00,0.9641
6975.00,0.9679
6974.00,0.9717
6973.00,0.9755
6972.00,0.9794
6971.00,0.9835
6970.00,0.9876
6969.00,0.9916
6968.00,0.9954
6967.00,0.9989
6966.00,1.0022
6965.00,1.0054
6964.00,1.0088
6963.00,1.0124
6962.00,1.0163
6961.00,1.0200
6960.00,1.0236
6959.00,1.0273
6958.00,1.0311
6957.00,1.0348
6956.00,1.0381
6955.00,1.0410
6954.00,1.0439
6953.00,1.0472
6952.00,1.0508
6951.00,1.0542
6950.00,1.0575
6949.00,1.0609
6948.00,1.0643
6947.00,1.0675
6946.00,1.0706
6945.00,1.0736
6944.00,1.0767
6943.00,1.0801
6942.00,1.0837
6941.00,1.0876
6940.00,1.0915
6939.00,1.0949
6938.00,1.0978
6937.00,1.1003
6936.00,1.1026
6935.00,1.1050
6934.00,1.1074
6933.00,1.1101
6932.00,1.1130
6931.00,1.1160
6930.00,1.1188
6929.00,1.1215
6928.00,1.1241
6927.00,1.1265
6926.00,1.1289
6925.00,1.1312
6924.00,1.1337
6923.00,1.1362
6922.00,1.1386
6921.00,1.1408
6920.00,1.1430
6919.00,1.1453
6918.00,1.1478
6917.00,1.1502
6916.00,1.1526
6915.00,1.1549
6914.00,1.1571
6913.00,1.1592
6912.00,1.1608
6911.00,1.1618
6910.00,1.1626
6909.00,1.1634
6908.00,1.1643
6907.00,1.1655
6906.00,1.1669
6905.00,1.1685
6904.00,1.1704
6903.00,1.1724
6902.00,1.1746
6901.00,1.1765
6900.00,1.1780
6899.00,1.1790
6898.00,1.1796
6897.00,1.1803
6896.00,1.1812
6895.00,1.1822
6894.00,1.1832
6893.00,1.1839
6892.00,1.1844
6891.00,1.1848
6890.00,1.1856
6889.00,1.1865
6888.00,1.1873
6887.00,1.1878
6886.00,1.1885
6885.00,1.1894
6884.00,1.1901
6883.00,1.1902
6882.00,1.1899
6881.00,1.1898
6880.00,1.1901
6879.00,1.1905
6878.00,1.1907
6877.00,1.1908
6876.00,1.1909
6875.00,1.1909
6874.00,1.1908
6873.00,1.1903
6872.00,1.1898
6871.00,1.1891
6870.00,1.1885
6869.00,1.1878
6868.00,1.1870
6867.00,1.1862
6866.00,1.1855
6865.00,1.1851
6864.00,1.1851
6863.00,1.1851
6862.00,1.1849
6861.00,1.1846
6860.00,1.1842
6859.00,1.1834
6858.00,1.1824
6857.00,1.1812
6856.00,1.1801
6855.00,1.1789
6854.00,1.1775
6853.00,1.1758
6852.00,1.1745
6851.00,1.1735
6850.00,1.1725
6849.00,1.1712
6848.00,1.1695
6847.00,1.1677
6846.00,1.1662
6845.00,1.1648
6844.00,1.1632
6843.00,1.1611
6842.00,1.1590
6841.00,1.1573
6840.00,1.1559
6839.00,1.1545
6838.00,1.1528
6837.00,1.1510
6836.00,1.1492
6835.00,1.1474
6834.00,1.1456
6833.00,1.1438
6832.00,1.1420
6831.00,1.1401
6830.00,1.1379
6829.00,1.1355
6828.00,1.1332
6827.00,1.1308
6826.00,1.1284
6825.00,1.1258
6824.00,1.1235
6823.00,1.1215
6822.00,1.1199
6821.00,1.1182
6820.00,1.1163
6819.00,1.1140
6818.00,1.1113
6817.00,1.1084
6816.00,1.1055
6815.00,1.1026
6814.00,1.0994
6813.00,1.0963
6812.00,1.0932
6811.00,1.0904
6810.00,1.0875
6809.00,1.0847
6808.00,1.0819
6807.00,1.0791
6806.00,1.0763
6805.00,1.0731
6804.00,1.0699
6803.00,1.0667
6802.00,1.0635
6801.00,1.0602
6800.00,1.0568
6799.00,1.0535
6798.00,1.0504
6797.00,1.0472
6796.00,1.0437
6795.00,1.0400
6794.00,1.0364
6793.00,1.0330
6792.00,1.0297
6791.00,1.0262
6790.00,1.0228
6789.00,1.0195
6788.00,1.0163
6787.00,1.0128
6786.00,1.0091
6785.00,1.0053
6784.00,1.0014
6783.00,0.9976
6782.00,0.9938
6781.00,0.9901
6780.00,0.9863
6779.00,0.9826
6778.00,0.9788
6777.00,0.9751
6776.00,0.9713
6775.00,0.9674
6774.00,0.9635
6773.00,0.9597
6772.00,0.9560
6771.00,0.9523
6770.00,0.9486
6769.00,0.9448
6768.00,0.9412
6767.00,0.9376
6766.00,0.9340
6765.00,0.9304
6764.00,0.9267
6763.00,0.9230
6762.00,0.9193
6761.00,0.9156
6760.00,0.9119
6759.00,0.9081
6758.00,0.9043
6757.00,0.9007
6756.00,0.8973
6755.00,0.8941
6754.00,0.8908
6753.00,0.8874
6752.00,0.8839
6751.00,0.8805
6750.00,0.8771
6749.00,0.8736
6748.00,0.8701
6747.00,0.8665
6746.00,0.8631
6745.00,0.8598
6744.00,0.8566
6743.00,0.8535
6742.00,0.8503
6741.00,0.8471
6740.00,0.8440
6739.00,0.8409
6738.00,0.8378
6737.00,0.8349
6736.00,0.8320
6735.00,0.8290
6734.00,0.8262
6733.00,0.8236
6732.00,0.8212
6731.00,0.8187
6730.00,0.8161
6729.00,0.8133
6728.00,0.8105
6727.00,0.8077
6726.00,0.8049
6725.00,0.8021
6724.00,0.7994
6723.00,0.7967
6722.00,0.7941
6721.00,0.7915
6720.00,0.7891
6719.00,0.7868
6718.00,0.7846
6717.00,0.7825
6716.00,0.7804
6715.00,0.7785
6714.00,0.7767
6713.00,0.7749
6712.00,0.7731
6711.00,0.7712
6710.00,0.7694
6709.00,0.7677
6708.00,0.7661
6707.00,0.7644
6706.00,0.7627
6705.00,0.7611
6704.00,0.7596
6703.00,0.7581
6702.00,0.7567
6701.00,0.7555
6700.00,0.7543
6699.00,0.7533
6698.00,0.7523
6697.00,0.7513
6696.00,0.7502
6695.00,0.7492
6694.00,0.7482
6693.00,0.7474
6692.00,0.7467
6691.00,0.7461
6690.00,0.7456
6689.00,0.7453
6688.00,0.7450
6687.00,0.7446
6686.00,0.7443
6685.00,0.7440
6684.00,0.7438
6683.00,0.7438
6682.00,0.7438
6681.00,0.7441
6680.00,0.7444
6679.00,0.7448
6678.00,0.7452
6677.00,0.7457
6676.00,0.7461
6675.00,0.7466
6674.00,0.7472
6673.00,0.7479
6672.00,0.7485
6671.00,0.7492
6670.00,0.7500
6669.00,0.7511
6668.00,0.7523
6667.00,0.7536
6666.00,0.7550
6665.00,0.7565
6664.00,0.7579
6663.00,0.7594
6662.00,0.7609
6661.00,0.7625
6660.00,0.7641
6659.00,0.7658
6658.00,0.7677
6657.00,0.7698
6656.00,0.7721
6655.00,0.7743
6654.00,0.7763
6653.00,0.7784
6652.00,0.7806
6651.00,0.7827
6650.00,0.7849
6649.00,0.7871
6648.00,0.7896
6647.00,0.7922
6646.00,0.7950
6645.00,0.7978
6644.00,0.8007
6643.00,0.8036
6642.00,0.8067
6641.00,0.8097
6640.00,0.8128
6639.00,0.8160
6638.00,0.8192
6637.00,0.8224
6636.00,0.8257
6635.00,0.8291
6634.00,0.8325
6633.00,0.8359
6632.00,0.8394
6631.00,0.8429
6630.00,0.8465
6629.00,0.8501
6628.00,0.8538
6627.00,0.8575
6626.00,0.8613
6625.00,0.8650
6624.00,0.8687
6623.00,0.8724
6622.00,0.8762
6621.00,0.8800
6620.00,0.8837
6619.00,0.8874
6618.00,0.8913
6617.00,0.8954
6616.00,0.8996
6615.00,0.9037
6614.00,0.9078
6613.00,0.9119
6612.00,0.9161
6611.00,0.9204
6610.00,0.9245
6609.00,0.9285
6608.00,0.9323
6607.00,0.9362
6606.00,0.9404
6605.00,0.9446
6604.00,0.9488
6603.00,0.9531
6602.00,0.9575
6601.00,0.9620
6600.00,0.9664
6599.00,0.9705
6598.00,0.9746
6597.00,0.9788
6596.00,0.9831
6595.00,0.9873
6594.00,0.9915
6593.00,0.9958
6592.00,1.0001
6591.00,1.0043
6590.00,1.0083
6589.00,1.0122
6588.00,1.0162
6587.00,1.0203
6586.00,1.0244
6585.00,1.0283
6584.00,1.0322
6583.00,1.0362
6582.00,1.0403
6581.00,1.0444
6580.00,1.0482
6579.00,1.0520
6578.00,1.0559
6577.00,1.0600
6576.00,1.0639
6575.00,1.0675
6574.00,1.0712
6573.00,1.0751
6572.00,1.0792
6571.00,1.0831
6570.00,1.0868
6569.00,1.0904
6568.00,1.0940
6567.00,1.0975
6566.00,1.1011
6565.00,1.1046
6564.00,1.1081
6563.00,1.1116
6562.00,1.1151
6561.00,1.1184
6560.00,1.1215
6559.00,1.1246
6558.00,1.1276
6557.00,1.1307
6556.00,1.1338
6555.00,1.1369
6554.00,1.1398
6553.00,1.1425
6552.00,1.1451
6551.00,1.1478
6550.00,1.1506
6549.00,1.1535
6548.00,1.1564
6547.00,1.1592
6546.00,1.1621
6545.00,1.1649
6544.00,1.1676
6543.00,1.1702
6542.00,1.1729
6541.00,1.1755
6540.00,1.1780
6539.00,1.1803
6538.00,1.1827
6537.00,1.1850
6536.00,1.1870
6535.00,1.1887
6534.00,1.1903
6533.00,1.1921
6532.00,1.1939
6531.00,1.1957
6530.00,1.1976
6529.00,1.1998
6528.00,1.2021
6527.00,1.2043
6526.00,1.2060
6525.00,1.2076
6524.00,1.2089
6523.00,1.2102
6522.00,1.2113
6521.00,1.2124
6520.00,1.2138
6519.00,1.2155
6518.00,1.2173
6517.00,1.2186
6516.00,1.2196
6515.00,1.2203
6514.00,1.2211
6513.00,1.2219
6512.00,1.2225
6511.00,1.2228
6510.00,1.2232
6509.00,1.2238
6508.00,1.2246
6507.00,1.2255
6506.00,1.2262
6505.00,1.2270
6504.00,1.2280
6503.00,1.2291
6502.00,1.2302
6501.00,1.2310
6500.00,1.2314
6499.00,1.2314
6498.00,1.2312
6497.00,1.2308
6496.00,1.2303
6495.00,1.2299
6494.00,1.2297
6493.00,1.2297
6492.00,1.2296
6491.00,1.2294
6490.00,1.2291
6489.00,1.2288
6488.00,1.2287
6487.00,1.2284
6486.00,1.2278
6485.00,1.2271
6484.00,1.2264
6483.00,1.2259
6482.00,1.2256
6481.00,1.2252
6480.00,1.2247
6479.00,1.2242
6478.00,1.2237
6477.00,1.2230
6476.00,1.2218
6475.00,1.2202
6474.00,1.2187
6473.00,1.2175
6472.00,1.2163
6471.00,1.2151
6470.00,1.2139
6469.00,1.2125
6468.00,1.2110
6467.00,1.2095
6466.00,1.2082
6465.00,1.2069
6464.00,1.2055
6463.00,1.2040
6462.00,1.2023
6461.00,1.2004
6460.00,1.1984
6459.00,1.1963
6458.00,1.1943
6457.00,1.1925
6456.00,1.1906
6455.00,1.1884
6454.00,1.1860
6453.00,1.1835
6452.00,1.1810
6451.00,1.1787
6450.00,1.1764
6449.00,1.1741
6448.00,1.1717
6447.00,1.1693
6446.00,1.1670
6445.00,1.1647
6444.00,1.1623
6443.00,1.1597
6442.00,1.1572
6441.00,1.1548
6440.00,1.1523
6439.00,1.1494
6438.00,1.1464
6437.00,1.1432
6436.00,1.1400
6435.00,1.1369
6434.00,1.1338
6433.00,1.1309
6432.00,1.1278
6431.00,1.1247
6430.00,1.1216
6429.00,1.1185
6428.00,1.1154
6427.00,1.1120
6426.00,1.1086
6425.00,1.1055
6424.00,1.1025
6423.00,1.0993
6422.00,1.0960
6421.00,1.0925
6420.00,1.0890
6419.00,1.0854
6418.00,1.0818
6417.00,1.0784
6416.00,1.0750
6415.00,1.0716
6414.00,1.0682
6413.00,1.0648
6412.00,1.0611
6411.00,1.0574
6410.00,1.0536
6409.00,1.0500
6408.00,1.0464
6407.00,1.0427
6406.00,1.0387
6405.00,1.0347
6404.00,1.0308
6403.00,1.0270
6402.00,1.0232
6401.00,1.0195
6400.00,1.0159
6399.00,1.0124
6398.00,1.0088
6397.00,1.0049
6396.00,1.0010
6395.00,0.9972
6394.00,0.9935
6393.00,0.9899
6392.00,0.9863
6391.00,0.9826
6390.00,0.9787
6389.00,0.9747
6388.00,0.9708
6387.00,0.9668
6386.00,0.9629
6385.00,0.9591
6384.00,0.9554
6383.00,0.9517
6382.00,0.9478
6381.00,0.9439
6380.00,0.9401
6379.00,0.9363
6378.00,0.9326
6377.00,0.9290
6376.00,0.9256
6375.00,0.9222
6374.00,0.9186
6373.00,0.9150
6372.00,0.9113
6371.00,0.9076
6370.00,0.9039
6369.00,0.9002
6368.00,0.8965
6367.00,0.8928
6366.00,0.8893
6365.00,0.8859
6364.00,0.8826
6363.00,0.8793
6362.00,0.8760
6361.00,0.8727
6360.00,0.8694
6359.00,0.8661
6358.00,0.8629
6357.00,0.8598
6356.00,0.8569
6355.00,0.8540
6354.00,0.8511
6353.00,0.8482
6352.00,0.8451
6351.00,0.8420
6350.00,0.8390
6349.00,0.8360
6348.00,0.8332
6347.00,0.8304
6346.00,0.8277
6345.00,0.8251
6344.00,0.8224
6343.00,0.8196
6342.00,0.8167
6341.00,0.8140
6340.00,0.8115
6339.00,0.8090
6338.00,0.8067
6337.00,0.8046
6336.00,0.8025
6335.00,0.8004
6334.00,0.7983
6333.00,0.7961
6332.00,0.7940
6331.00,0.7918
6330.00,0.7898
6329.00,0.7879
6328.00,0.7862
6327.00,0.7845
6326.00,0.7828
6325.00,0.7813
6324.00,0.7798
6323.00,0.7783
6322.00,0.7769
6321.00,0.7758
6320.00,0.7747
6319.00,0.7736
6318.00,0.7724
6317.00,0.7713
6316.00,0.7702
6315.00,0.7693
6314.00,0.7684
6313.00,0.7678
6312.00,0.7673
6311.00,0.7670
6310.00,0.7667
6309.00,0.7665
6308.00,0.7664
6307.00,0.7663
6306.00,0.7663
6305.00,0.7664
6304.00,0.7666
6303.00,0.7668
6302.00,0.7671
6301.00,0.7676
6300.00,0.7681
6299.00,0.7687
6298.00,0.7694
6297.00,0.7701
6296.00,0.7709
6295.00,0.7717
6294.00,0.7727
6293.00,0.7738
6292.00,0.7751
6291.00,0.7766
6290.00,0.7781
6289.00,0.7796
6288.00,0.7813
6287.00,0.7830
6286.00,0.7849
6285.00,0.7870
6284.00,0.7892
6283.00,0.7915
6282.00,0.7938
6281.00,0.7962
6280.00,0.7985
6279.00,0.8008
6278.00,0.8033
6277.00,0.8058
6276.00,0.8086
6275.00,0.8115
6274.00,0.8145
6273.00,0.8175
6272.00,0.8205
6271.00,0.8236
6270.00,0.8267
6269.00,0.8299
6268.00,0.8331
6267.00,0.8364
6266.00,0.8398
6265.00,0.8433
6264.00,0.8469
6263.00,0.8504
6262.00,0.8541
6261.00,0.8578
6260.00,0.8616
6259.00,0.8655
6258.00,0.8695
6257.00,0.8734
6256.00,0.8771
6255.00,0.8808
6254.00,0.8847
6253.00,0.8886
6252.00,0.8926
6251.00,0.8966
6250.00,0.9009
6249.00,0.9053
6248.00,0.9098
6247.00,0.9142
6246.00,0.9186
6245.00,0.9231
6244.00,0.9276
6243.00,0.9321
6242.00,0.9365
6241.00,0.9407
6240.00,0.9448
6239.00,0.9490
6238.00,0.9533
6237.00,0.9578
6236.00,0.9623
6235.00,0.9669
6234.00,0.9715
6233.00,0.9762
6232.00,0.9807
6231.00,0.9851
6230.00,0.9894
6229.00,0.9938
6228.00,0.9981
6227.00,1.0023
6226.00,1.0064
6225.00,1.0107
6224.00,1.0152
6223.00,1.0197
6222.00,1.0243
6221.00,1.0290
6220.00,1.0336
6219.00,1.0382
6218.00,1.0427
6217.00,1.0472
6216.00,1.0515
6215.00,1.0558
6214.00,1.0600
6213.00,1.0642
6212.00,1.0684
6211.00,1.0726
6210.00,1.0766
6209.00,1.0807
6208.00,1.0847
6207.00,1.0887
6206.00,1.0928
6205.00,1.0969
6204.00,1.1008
6203.00,1.1047
6202.00,1.1086
6201.00,1.1124
6200.00,1.1161
6199.00,1.1195
6198.00,1.1230
6197.00,1.1267
6196.00,1.1307
6195.00,1.1346
6194.00,1.1384
6193.00,1.1419
6192.00,1.1453
6191.00,1.1485
6190.00,1.1517
6189.00,1.1549
6188.00,1.1582
6187.00,1.1614
6186.00,1.1645
6185.00,1.1676
6184.00,1.1704
6183.00,1.1731
6182.00,1.1756
6181.00,1.1783
6180.00,1.1812
6179.00,1.1841
6178.00,1.1869
6177.00,1.1897
6176.00,1.1926
6175.00,1.1955
6174.00,1.1983
6173.00,1.2009
6172.00,1.2032
6171.00,1.2054
6170.00,1.2074
6169.00,1.2092
6168.00,1.2110
6167.00,1.2129
6166.00,1.2148
6165.00,1.2168
6164.00,1.2186
6163.00,1.2202
6162.00,1.2218
6161.00,1.2234
6160.00,1.2249
6159.00,1.2265
6158.00,1.2281
6157.00,1.2298
6156.00,1.2315
6155.00,1.2333
6154.00,1.2349
6153.00,1.2364
6152.00,1.2377
6151.00,1.2389
6150.00,1.2401
6149.00,1.2411
6148.00,1.2421
6147.00,1.2430
6146.00,1.2439
6145.00,1.2449
6144.00,1.2458
6143.00,1.2466
6142.00,1.2474
6141.00,1.2481
6140.00,1.2487
6139.00,1.2491
6138.00,1.2492
6137.00,1.2494
6136.00,1.2498
6135.00,1.2503
6134.00,1.2509
6133.00,1.2514
6132.00,1.2518
6131.00,1.2519
6130.00,1.2517
6129.00,1.2511
6128.00,1.2504
6127.00,1.2499
6126.00,1.2496
6125.00,1.2494
6124.00,1.2493
6123.00,1.2491
6122.00,1.2488
6121.00,1.2485
6120.00,1.2479
6119.00,1.2471
6118.00,1.2462
6117.00,1.2452
6116.00,1.2442
6115.00,1.2430
6114.00,1.2418
6113.00,1.2406
6112.00,1.2395
6111.00,1.2386
6110.00,1.2376
6109.00,1.2366
6108.00,1.2356
6107.00,1.2348
6106.00,1.2339
6105.00,1.2327
6104.00,1.2310
6103.00,1.2292
6102.00,1.2275
6101.00,1.2257
6100.00,1.2238
6099.00,1.2219
6098.00,1.2202
6097.00,1.2185
6096.00,1.2166
6095.00,1.2141
6094.00,1.2113
6093.00,1.2087
6092.00,1.2063
6091.00,1.2041
6090.00,1.2018
6089.00,1.1997
6088.00,1.1975
6087.00,1.1952
6086.00,1.1925
6085.00,1.1898
6084.00,1.1871
6083.00,1.1843
6082.00,1.1816
6081.00,1.1789
6080.00,1.1762
6079.00,1.1734
6078.00,1.1707
6077.00,1.1680
6076.00,1.1653
6075.00,1.1626
6074.00,1.1598
6073.00,1.1569
6072.00,1.1540
6071.00,1.1509
6070.00,1.1477
6069.00,1.1445
6068.00,1.1414
6067.00,1.1381
6066.00,1.1348
6065.00,1.1313
6064.00,1.1279
6063.00,1.1245
6062.00,1.1211
6061.00,1.1176
6060.00,1.1142
6059.00,1.1110
6058.00,1.1077
6057.00,1.1044
6056.00,1.1012
6055.00,1.0980
6054.00,1.0949
6053.00,1.0916
6052.00,1.0884
6051.00,1.0851
6050.00,1.0817
6049.00,1.0783
6048.00,1.0749
6047.00,1.0715
6046.00,1.0679
6045.00,1.0643
6044.00,1.0607
6043.00,1.0570
6042.00,1.0534
6041.00,1.0499
6040.00,1.0464
6039.00,1.0430
6038.00,1.0397
6037.00,1.0366
6036.00,1.0336
6035.00,1.0305
6034.00,1.0273
6033.00,1.0240
6032.00,1.0206
6031.00,1.0171
6030.00,1.0134
6029.00,1.0096
6028.00,1.0059
6027.00,1.0024
6026.00,0.9990
6025.00,0.9956
6024.00,0.9922
6023.00,0.9888
6022.00,0.9854
6021.00,0.9819
6020.00,0.9784
6019.00,0.9748
6018.00,0.9713
6017.00,0.9677
6016.00,0.9642
6015.00,0.9605
6014.00,0.9567
6013.00,0.9529
6012.00,0.9492
6011.00,0.9456
6010.00,0.9422
6009.00,0.9388
6008.00,0.9354
6007.00,0.9319
6006.00,0.9284
6005.00,0.9249
6004.00,0.9214
6003.00,0.9180
6002.00,0.9146
6001.00,0.9112
6000.00,0.9077
5999.00,0.9041
5998.00,0.9004
5997.00,0.8967
5996.00,0.8932
5995.00,0.8898
5994.00,0.8865
5993.00,0.8833
5992.00,0.8801
5991.00,0.8769
5990.00,0.8736
5989.00,0.8704
5988.00,0.8672
5987.00,0.8639
5986.00,0.8607
5985.00,0.8575
5984.00,0.8543
5983.00,0.8512
5982.00,0.8480
5981.00,0.8449
5980.00,0.8418
5979.00,0.8388
5978.00,0.8357
5977.00,0.8327
5976.00,0.8298
5975.00,0.8269
5974.00,0.8240
5973.00,0.8213
5972.00,0.8187
5971.00,0.8160
5970.00,0.8134
5969.00,0.8109
5968.00,0.8084
5967.00,0.8058
5966.00,0.8033
5965.00,0.8007
5964.00,0.7982
5963.00,0.7957
5962.00,0.7934
5961.00,0.7912
5960.00,0.7891
5959.00,0.7870
5958.00,0.7850
5957.00,0.7830
5956.00,0.7810
5955.00,0.7790
5954.00,0.7772
5953.00,0.7754
5952.00,0.7738
5951.00,0.7722
5950.00,0.7706
5949.00,0.7692
5948.00,0.7679
5947.00,0.7667
5946.00,0.7656
5945.00,0.7645
5944.00,0.7636
5943.00,0.7628
5942.00,0.7622
5941.00,0.7616
5940.00,0.7612
5939.00,0.7607
5938.00,0.7603
5937.00,0.7600
5936.00,0.7598
5935.00,0.7597
5934.00,0.7598
5933.00,0.7600
5932.00,0.7602
5931.00,0.7605
5930.00,0.7609
5929.00,0.7614
5928.00,0.7621
5927.00,0.7630
5926.00,0.7639
5925.00,0.7650
5924.00,0.7662
5923.00,0.7674
5922.00,0.7686
5921.00,0.7700
5920.00,0.7714
5919.00,0.7730
5918.00,0.7747
5917.00,0.7765
5916.00,0.7784
5915.00,0.7805
5914.00,0.7826
5913.00,0.7849
5912.00,0.7873
5911.00,0.7897
5910.00,0.7923
5909.00,0.7949
5908.00,0.7976
5907.00,0.8004
5906.00,0.8033
5905.00,0.8064
5904.00,0.8096
5903.00,0.8128
5902.00,0.8160
5901.00,0.8193
5900.00,0.8227
5899.00,0.8262
5898.00,0.8299
5897.00,0.8338
5896.00,0.8378
5895.00,0.8418
5894.00,0.8458
5893.00,0.8499
5892.00,0.8540
5891.00,0.8581
5890.00,0.8623
5889.00,0.8666
5888.00,0.8708
5887.00,0.8752
5886.00,0.8795
5885.00,0.8840
5884.00,0.8885
5883.00,0.8929
5882.00,0.8974
5881.00,0.9020
5880.00,0.9066
5879.00,0.9114
5878.00,0.9162
5877.00,0.9211
5876.00,0.9260
5875.00,0.9309
5874.00,0.9358
5873.00,0.9407
5872.00,0.9456
5871.00,0.9505
5870.00,0.9553
5869.00,0.9602
5868.00,0.9652
5867.00,0.9702
5866.00,0.9752
5865.00,0.9803
5864.00,0.9854
5863.00,0.9904
5862.00,0.9955
5861.00,1.0005
5860.00,1.0054
5859.00,1.0103
5858.00,1.0152
5857.00,1.0202
5856.00,1.0251
5855.00,1.0300
5854.00,1.0348
5853.00,1.0397
5852.00,1.0446
5851.00,1.0495
5850.00,1.0544
5849.00,1.0593
5848.00,1.0641
5847.00,1.0688
5846.00,1.0735
5845.00,1.0781
5844.00,1.0827
5843.00,1.0872
5842.00,1.0918
5841.00,1.0964
5840.00,1.1010
5839.00,1.1057
5838.00,1.1102
5837.00,1.1147
5836.00,1.1191
5835.00,1.1233
5834.00,1.1275
5833.00,1.1318
5832.00,1.1361
5831.00,1.1405
5830.00,1.1448
5829.00,1.1490
5828.00,1.1528
5827.00,1.1565
5826.00,1.1602
5825.00,1.1639
5824.00,1.1679
5823.00,1.1719
5822.00,1.1758
5821.00,1.1796
5820.00,1.1833
5819.00,1.1868
5818.00,1.1902
5817.00,1.1936
5816.00,1.1970
5815.00,1.2003
5814.00,1.2034
5813.00,1.2064
5812.00,1.2094
5811.00,1.2125
5810.00,1.2158
5809.00,1.2191
5808.00,1.2225
5807.00,1.2257
5806.00,1.2286
5805.00,1.2315
5804.00,1.2344
5803.00,1.2374
5802.00,1.2404
5801.00,1.2433
5800.00,1.2461
5799.00,1.2486
5798.00,1.2510
5797.00,1.2531
5796.00,1.2553
5795.00,1.2576
5794.00,1.2600
5793.00,1.2625
5792.00,1.2649
5791.00,1.2673
5790.00,1.2696
5789.00,1.2718
5788.00,1.2738
5787.00,1.2755
5786.00,1.2772
5785.00,1.2789
5784.00,1.2808
5783.00,1.2826
5782.00,1.2845
5781.00,1.2864
5780.00,1.2882
5779.00,1.2899
5778.00,1.2914
5777.00,1.2930
5776.00,1.2946
5775.00,1.2963
5774.00,1.2979
5773.00,1.2994
5772.00,1.3009
5771.00,1.3022
5770.00,1.3033
5769.00,1.3043
5768.00,1.3053
5767.00,1.3064
5766.00,1.3076
5765.00,1.3088
5764.00,1.3098
5763.00,1.3107
5762.00,1.3115
5761.00,1.3122
5760.00,1.3130
5759.00,1.3135
5758.00,1.3140
5757.00,1.3146
5756.00,1.3150
5755.00,1.3152
5754.00,1.3153
5753.00,1.3154
5752.00,1.3157
5751.00,1.3160
5750.00,1.3162
5749.00,1.3165
5748.00,1.3169
5747.00,1.3175
5746.00,1.3180
5745.00,1.3183
5744.00,1.3185
5743.00,1.3185
5742.00,1.3183
5741.00,1.3178
5740.00,1.3172
5739.00,1.3168
5738.00,1.3162
5737.00,1.3155
5736.00,1.3146
5735.00,1.3139
5734.00,1.3131
5733.00,1.3123
5732.00,1.3115
5731.00,1.3108
5730.00,1.3098
5729.00,1.3085
5728.00,1.3070
5727.00,1.3056
5726.00,1.3043
5725.00,1.3030
5724.00,1.3018
5723.00,1.3006
5722.00,1.2992
5721.00,1.2975
5720.00,1.2956
5719.00,1.2936
5718.00,1.2916
5717.00,1.2896
5716.00,1.2875
5715.00,1.2851
5714.00,1.2827
5713.00,1.2802
5712.00,1.2778
5711.00,1.2754
5710.00,1.2731
5709.00,1.2706
5708.00,1.2680
5707.00,1.2652
5706.00,1.2621
5705.00,1.2589
5704.00,1.2558
5703.00,1.2527
5702.00,1.2498
5701.00,1.2470
5700.00,1.2441
5699.00,1.2411
5698.00,1.2381
5697.00,1.2349
5696.00,1.2317
5695.00,1.2284
5694.00,1.2252
5693.00,1.2220
5692.00,1.2186
5691.00,1.2152
5690.00,1.2118
5689.00,1.2084
5688.00,1.2051
5687.00,1.2016
5686.00,1.1982
5685.00,1.1947
5684.00,1.1912
5683.00,1.1875
5682.00,1.1837
5681.00,1.1799
5680.00,1.1761
5679.00,1.1724
5678.00,1.1687
5677.00,1.1650
5676.00,1.1612
5675.00,1.1575
5674.00,1.1537
5673.00,1.1498
5672.00,1.1458
5671.00,1.1417
5670.00,1.1375
5669.00,1.1334
5668.00,1.1293
5667.00,1.1252
5666.00,1.1211
5665.00,1.1171
5664.00,1.1129
5663.00,1.1087
5662.00,1.1043
5661.00,1.1000
5660.00,1.0956
5659.00,1.0912
5658.00,1.0868
5657.00,1.0823
5656.00,1.0778
5655.00,1.0732
5654.00,1.0686
5653.00,1.0639
5652.00,1.0593
5651.00,1.0547
5650.00,1.0502
5649.00,1.0455
5648.00,1.0409
5647.00,1.0362
5646.00,1.0315
5645.00,1.0269
5644.00,1.0224
5643.00,1.0178
5642.00,1.0133
5641.00,1.0087
5640.00,1.0041
5639.00,0.9993
5638.00,0.9945
5637.00,0.9898
5636.00,0.9850
5635.00,0.9802
5634.00,0.9756
5633.00,0.9710
5632.00,0.9664
5631.00,0.9619
5630.00,0.9573
5629.00,0.9528
5628.00,0.9483
5627.00,0.9438
5626.00,0.9393
5625.00,0.9349
5624.00,0.9305
5623.00,0.9261
5622.00,0.9217
5621.00,0.9173
5620.00,0.9128
5619.00,0.9084
5618.00,0.9041
5617.00,0.8999
5616.00,0.8958
5615.00,0.8917
5614.00,0.8877
5613.00,0.8836
5612.00,0.8795
5611.00,0.8752
5610.00,0.8710
5609.00,0.8669
5608.00,0.8629
5607.00,0.8590
5606.00,0.8552
5605.00,0.8515
5604.00,0.8477
5603.00,0.8441
5602.00,0.8405
5601.00,0.8369
5600.00,0.8334
5599.00,0.8298
5598.00,0.8263
5597.00,0.8229
5596.00,0.8195
5595.00,0.8163
5594.00,0.8131
5593.00,0.8100
5592.00,0.8070
5591.00,0.8039
5590.00,0.8010
5589.00,0.7980
5588.00,0.7951
5587.00,0.7923
5586.00,0.7896
5585.00,0.7870
5584.00,0.7845
5583.00,0.7821
5582.00,0.7798
5581.00,0.7777
5580.00,0.7756
5579.00,0.7735
5578.00,0.7715
5577.00,0.7697
5576.00,0.7679
5575.00,0.7662
5574.00,0.7646
5573.00,0.7631
5572.00,0.7618
5571.00,0.7605
5570.00,0.7594
5569.00,0.7584
5568.00,0.7576
5567.00,0.7569
5566.00,0.7563
5565.00,0.7557
5564.00,0.7552
5563.00,0.7548
5562.00,0.7546
5561.00,0.7545
5560.00,0.7547
5559.00,0.7550
5558.00,0.7554
5557.00,0.7558
5556.00,0.7562
5555.00,0.7567
5554.00,0.7573
5553.00,0.7581
5552.00,0.7591
5551.00,0.7602
5550.00,0.7615
5549.00,0.7630
5548.00,0.7646
5547.00,0.7664
5546.00,0.7683
5545.00,0.7703
5544.00,0.7724
5543.00,0.7746
5542.00,0.7768
5541.00,0.7791
5540.00,0.7815
5539.00,0.7841
5538.00,0.7869
5537.00,0.7898
5536.00,0.7930
5535.00,0.7961
5534.00,0.7993
5533.00,0.8026
5532.00,0.8059
5531.00,0.8093
5530.00,0.8129
5529.00,0.8167
5528.00,0.8205
5527.00,0.8244
5526.00,0.8284
5525.00,0.8325
5524.00,0.8366
5523.00,0.8409
5522.00,0.8453
5521.00,0.8497
5520.00,0.8541
5519.00,0.8587
5518.00,0.8633
5517.00,0.8680
5516.00,0.8728
5515.00,0.8777
5514.00,0.8826
5513.00,0.8877
5512.00,0.8928
5511.00,0.8980
5510.00,0.9033
5509.00,0.9085
5508.00,0.9137
5507.00,0.9189
5506.00,0.9241
5505.00,0.9294
5504.00,0.9347
5503.00,0.9401
5502.00,0.9455
5501.00,0.9510
5500.00,0.9565
5499.00,0.9620
5498.00,0.9674
5497.00,0.9729
5496.00,0.9784
5495.00,0.9841
5494.00,0.9898
5493.00,0.9954
5492.00,1.0010
5491.00,1.0066
5490.00,1.0123
5489.00,1.0180
5488.00,1.0236
5487.00,1.0292
5486.00,1.0347
5485.00,1.0403
5484.00,1.0458
5483.00,1.0515
5482.00,1.0573
5481.00,1.0630
5480.00,1.0687
5479.00,1.0742
5478.00,1.0796
5477.00,1.0851
5476.00,1.0904
5475.00,1.0958
5474.00,1.1011
5473.00,1.1065
5472.00,1.1117
5471.00,1.1169
5470.00,1.1221
5469.00,1.1272
5468.00,1.1324
5467.00,1.1375
5466.00,1.1425
5465.00,1.1474
5464.00,1.1522
5463.00,1.1571
5462.00,1.1620
5461.00,1.1669
5460.00,1.1719
5459.00,1.1768
5458.00,1.1818
5457.00,1.1865
5456.00,1.1910
5455.00,1.1953
5454.00,1.1996
5453.00,1.2038
5452.00,1.2079
5451.00,1.2120
5450.00,1.2161
5449.00,1.2203
5448.00,1.2244
5447.00,1.2287
5446.00,1.2329
5445.00,1.2371
5444.00,1.2411
5443.00,1.2450
5442.00,1.2488
5441.00,1.2525
5440.00,1.2560
5439.00,1.2595
5438.00,1.2631
5437.00,1.2668
5436.00,1.2704
5435.00,1.2739
5434.00,1.2772
5433.00,1.2803
5432.00,1.2833
5431.00,1.2862
5430.00,1.2892
5429.00,1.2922
5428.00,1.2954
5427.00,1.2986
5426.00,1.3018
5425.00,1.3046
5424.00,1.3071
5423.00,1.3094
5422.00,1.3119
5421.00,1.3147
5420.00,1.3174
5419.00,1.3199
5418.00,1.3223
5417.00,1.3246
5416.00,1.3268
5415.00,1.3289
5414.00,1.3308
5413.00,1.3329
5412.00,1.3350
5411.00,1.3370
5410.00,1.3390
5409.00,1.3409
5408.00,1.3427
5407.00,1.3445
5406.00,1.3461
5405.00,1.3477
5404.00,1.3493
5403.00,1.3509
5402.00,1.3527
5401.00,1.3544
5400.00,1.3560
5399.00,1.3572
5398.00,1.3581
5397.00,1.3589
5396.00,1.3598
5395.00,1.3607
5394.00,1.3617
5393.00,1.3627
5392.00,1.3638
5391.00,1.3647
5390.00,1.3655
5389.00,1.3663
5388.00,1.3671
5387.00,1.3680
5386.00,1.3686
5385.00,1.3690
5384.00,1.3693
5383.00,1.3695
5382.00,1.3698
5381.00,1.3701
5380.00,1.3704
5379.00,1.3707
5378.00,1.3708
5377.00,1.3707
5376.00,1.3704
5375.00,1.3703
5374.00,1.3702
5373.00,1.3701
5372.00,1.3700
5371.00,1.3698
5370.00,1.3696
5369.00,1.3694
5368.00,1.3691
5367.00,1.3686
5366.00,1.3679
5365.00,1.3670
5364.00,1.3661
5363.00,1.3653
5362.00,1.3645
5361.00,1.3638
5360.00,1.3629
5359.00,1.3618
5358.00,1.3605
5357.00,1.3593
5356.00,1.3581
5355.00,1.3570
5354.00,1.3558
5353.00,1.3546
5352.00,1.3531
5351.00,1.3515
5350.00,1.3498
5349.00,1.3480
5348.00,1.3462
5347.00,1.3444
5346.00,1.3426
5345.00,1.3406
5344.00,1.3386
5343.00,1.3365
5342.00,1.3344
5341.00,1.3324
5340.00,1.3304
5339.00,1.3283
5338.00,1.3259
5337.00,1.3235
5336.00,1.3214
5335.00,1.3194
5334.00,1.3173
5333.00,1.3151
5332.00,1.3127
5331.00,1.3101
5330.00,1.3073
5329.00,1.3044
5328.00,1.3013
5327.00,1.2982
5326.00,1.2952
5325.00,1.2922
5324.00,1.2892
5323.00,1.2860
5322.00,1.2828
5321.00,1.2796
5320.00,1.2765
5319.00,1.2734
5318.00,1.2702
5317.00,1.2668
5316.00,1.2631
5315.00,1.2593
5314.00,1.2555
5313.00,1.2517
5312.00,1.2479
5311.00,1.2442
5310.00,1.2404
5309.00,1.2364
5308.00,1.2324
5307.00,1.2283
5306.00,1.2241
5305.00,1.2199
5304.00,1.2157
5303.00,1.2115
5302.00,1.2072
5301.00,1.2028
5300.00,1.1982
5299.00,1.1936
5298.00,1.1890
5297.00,1.1843
5296.00,1.1796
5295.00,1.1749
5294.00,1.1702
5293.00,1.1654
5292.00,1.1605
5291.00,1.1556
5290.00,1.1508
5289.00,1.1458
5288.00,1.1409
5287.00,1.1358
5286.00,1.1307
5285.00,1.1256
5284.00,1.1205
5283.00,1.1154
5282.00,1.1103
5281.00,1.1052
5280.00,1.1000
5279.00,1.0946
5278.00,1.0893
5277.00,1.0840
5276.00,1.0788
5275.00,1.0734
5274.00,1.0680
5273.00,1.0626
5272.00,1.0571
5271.00,1.0517
5270.00,1.0463
5269.00,1.0409
5268.00,1.0355
5267.00,1.0301
5266.00,1.0247
5265.00,1.0193
5264.00,1.0140
5263.00,1.0086
5262.00,1.0033
5261.00,0.9980
5260.00,0.9926
5259.00,0.9872
5258.00,0.9818
5257.00,0.9765
5256.00,0.9712
5255.00,0.9659
5254.00,0.9605
5253.00,0.9552
5252.00,0.9501
5251.00,0.9450
5250.00,0.9399
5249.00,0.9347
5248.00,0.9295
5247.00,0.9243
5246.00,0.9192
5245.00,0.9143
5244.00,0.9093
5243.00,0.9043
5242.00,0.8993
5241.00,0.8944
5240.00,0.8897
5239.00,0.8850
5238.00,0.8804
5237.00,0.8759
5236.00,0.8714
5235.00,0.8669
5234.00,0.8624
5233.00,0.8578
5232.00,0.8533
5231.00,0.8489
5230.00,0.8445
5229.00,0.8403
5228.00,0.8362
5227.00,0.8322
5226.00,0.8281
5225.00,0.8239
5224.00,0.8198
5223.00,0.8157
5222.00,0.8118
5221.00,0.8081
5220.00,0.8044
5219.00,0.8009
5218.00,0.7975
5217.00,0.7942
5216.00,0.7909
5215.00,0.7878
5214.00,0.7846
5213.00,0.7816
5212.00,0.7787
5211.00,0.7759
5210.00,0.7732
5209.00,0.7705
5208.00,0.7679
5207.00,0.7652
5206.00,0.7625
5205.00,0.7598
5204.00,0.7574
5203.00,0.7552
5202.00,0.7532
5201.00,0.7515
5200.00,0.7499
5199.00,0.7485
5198.00,0.7470
5197.00,0.7457
5196.00,0.7445
5195.00,0.7434
5194.00,0.7425
5193.00,0.7418
5192.00,0.7413
5191.00,0.7408
5190.00,0.7404
5189.00,0.7402
5188.00,0.7401
5187.00,0.7402
5186.00,0.7405
5185.00,0.7410
5184.00,0.7415
5183.00,0.7421
5182.00,0.7430
5181.00,0.7440
5180.00,0.7452
5179.00,0.7466
5178.00,0.7482
5177.00,0.7499
5176.00,0.7517
5175.00,0.7536
5174.00,0.7557
5173.00,0.7580
5172.00,0.7605
5171.00,0.7631
5170.00,0.7658
5169.00,0.7687
5168.00,0.7716
5167.00,0.7747
5166.00,0.7779
5165.00,0.7813
5164.00,0.7849
5163.00,0.7885
5162.00,0.7923
5161.00,0.7962
5160.00,0.8003
5159.00,0.8044
5158.00,0.8087
5157.00,0.8131
5156.00,0.8176
5155.00,0.8222
5154.00,0.8270
5153.00,0.8319
5152.00,0.8368
5151.00,0.8419
5150.00,0.8470
5149.00,0.8522
5148.00,0.8576
5147.00,0.8629
5146.00,0.8683
5145.00,0.8738
5144.00,0.8794
5143.00,0.8851
5142.00,0.8908
5141.00,0.8967
5140.00,0.9026
5139.00,0.9085
5138.00,0.9145
5137.00,0.9205
5136.00,0.9266
5135.00,0.9327
5134.00,0.9389
5133.00,0.9452
5132.00,0.9516
5131.00,0.9579
5130.00,0.9643
5129.00,0.9706
5128.00,0.9770
5127.00,0.9833
5126.00,0.9897
5125.00,0.9960
5124.00,1.0024
5123.00,1.0087
5122.00,1.0150
5121.00,1.0214
5120.00,1.0278
5119.00,1.0344
5118.00,1.0409
5117.00,1.0475
5116.00,1.0539
5115.00,1.0603
5114.00,1.0666
5113.00,1.0728
5112.00,1.0791
5111.00,1.0853
5110.00,1.0915
5109.00,1.0977
5108.00,1.1039
5107.00,1.1101
5106.00,1.1163
5105.00,1.1225
5104.00,1.1287
5103.00,1.1347
5102.00,1.1406
5101.00,1.1465
5100.00,1.1525
5099.00,1.1586
5098.00,1.1647
5097.00,1.1707
5096.00,1.1766
5095.00,1.1823
5094.00,1.1877
5093.00,1.1931
5092.00,1.1985
5091.00,1.2039
5090.00,1.2092
5089.00,1.2146
5088.00,1.2199
5087.00,1.2252
5086.00,1.2304
5085.00,1.2356
5084.00,1.2408
5083.00,1.2458
5082.00,1.2508
5081.00,1.2555
5080.00,1.2603
5079.00,1.2650
5078.00,1.2697
5077.00,1.2744
5076.00,1.2789
5075.00,1.2834
5074.00,1.2878
5073.00,1.2921
5072.00,1.2963
5071.00,1.3005
5070.00,1.3047
5069.00,1.3087
5068.00,1.3127
5067.00,1.3166
5066.00,1.3206
5065.00,1.3245
5064.00,1.3284
5063.00,1.3322
5062.00,1.3358
5061.00,1.3394
5060.00,1.3429
5059.00,1.3464
5058.00,1.3498
5057.00,1.3531
5056.00,1.3563
5055.00,1.3594
5054.00,1.3625
5053.00,1.3655
5052.00,1.3685
5051.00,1.3713
5050.00,1.3742
5049.00,1.3771
5048.00,1.3800
5047.00,1.3829
5046.00,1.3856
5045.00,1.3881
5044.00,1.3904
5043.00,1.3927
5042.00,1.3951
5041.00,1.3975
5040.00,1.3998
5039.00,1.4020
5038.00,1.4040
5037.00,1.4059
5036.00,1.4079
5035.00,1.4101
5034.00,1.4124
5033.00,1.4145
5032.00,1.4164
5031.00,1.4179
5030.00,1.4193
5029.00,1.4206
5028.00,1.4220
5027.00,1.4234
5026.00,1.4250
5025.00,1.4266
5024.00,1.4283
5023.00,1.4297
5022.00,1.4309
5021.00,1.4319
5020.00,1.4326
5019.00,1.4333
5018.00,1.4342
5017.00,1.4352
5016.00,1.4363
5015.00,1.4375
5014.00,1.4386
5013.00,1.4396
5012.00,1.4403
5011.00,1.4408
5010.00,1.4412
5009.00,1.4415
5008.00,1.4417
5007.00,1.4418
5006.00,1.4421
5005.00,1.4423
5004.00,1.4425
5003.00,1.4426
5002.00,1.4427
5001.00,1.4426
5000.00,1.4425
4999.00,1.4423
4998.00,1.4422
4997.00,1.4420
4996.00,1.4419
4995.00,1.4416
4994.00,1.4411
4993.00,1.4403
4992.00,1.4394
4991.00,1.4384
4990.00,1.4377
4989.00,1.4370
4988.00,1.4364
4987.00,1.4357
4986.00,1.4349
4985.00,1.4340
4984.00,1.4330
4983.00,1.4320
4982.00,1.4308
4981.00,1.4295
4980.00,1.4279
4979.00,1.4262
4978.00,1.4245
4977.00,1.4230
4976.00,1.4215
4975.00,1.4202
4974.00,1.4188
4973.00,1.4174
4972.00,1.4158
4971.00,1.4139
4970.00,1.4118
4969.00,1.4095
4968.00,1.4070
4967.00,1.4046
4966.00,1.4023
4965.00,1.4001
4964.00,1.3979
4963.00,1.3958
4962.00,1.3935
4961.00,1.3911
4960.00,1.3886
4959.00,1.3861
4958.00,1.3834
4957.00,1.3806
4956.00,1.3776
4955.00,1.3745
4954.00,1.3715
4953.00,1.3685
4952.00,1.3655
4951.00,1.3624
4950.00,1.3593
4949.00,1.3560
4948.00,1.3527
4947.00,1.3493
4946.00,1.3459
4945.00,1.3423
4944.00,1.3386
4943.00,1.3347
4942.00,1.3307
4941.00,1.3267
4940.00,1.3228
4939.00,1.3188
4938.00,1.3148
4937.00,1.3107
4936.00,1.3066
4935.00,1.3023
4934.00,1.2978
4933.00,1.2934
4932.00,1.2889
4931.00,1.2843
4930.00,1.2797
4929.00,1.2749
4928.00,1.2699
4927.00,1.2651
4926.00,1.2603
4925.00,1.2556
4924.00,1.2509
4923.00,1.2460
4922.00,1.2410
4921.00,1.2357
4920.00,1.2304
4919.00,1.2250
4918.00,1.2196
4917.00,1.2142
4916.00,1.2087
4915.00,1.2033
4914.00,1.1978
4913.00,1.1923
4912.00,1.1867
4911.00,1.1810
4910.00,1.1752
4909.00,1.1694
4908.00,1.1635
4907.00,1.1575
4906.00,1.1516
4905.00,1.1457
4904.00,1.1399
4903.00,1.1340
4902.00,1.1281
4901.00,1.1221
4900.00,1.1160
4899.00,1.1100
4898.00,1.1039
4897.00,1.0979
4896.00,1.0918
4895.00,1.0857
4894.00,1.0796
4893.00,1.0734
4892.00,1.0673
4891.00,1.0611
4890.00,1.0550
4889.00,1.0488
4888.00,1.0427
4887.00,1.0366
4886.00,1.0305
4885.00,1.0246
4884.00,1.0186
4883.00,1.0126
4882.00,1.0066
4881.00,1.0005
4880.00,0.9944
4879.00,0.9884
4878.00,0.9824
4877.00,0.9765
4876.00,0.9707
4875.00,0.9648
4874.00,0.9590
4873.00,0.9533
4872.00,0.9475
4871.00,0.9417
4870.00,0.9361
4869.00,0.9305
4868.00,0.9251
4867.00,0.9197
4866.00,0.9143
4865.00,0.9089
4864.00,0.9035
4863.00,0.8983
4862.00,0.8931
4861.00,0.8879
4860.00,0.8827
4859.00,0.8775
4858.00,0.8724
4857.00,0.8674
4856.00,0.8626
4855.00,0.8578
4854.00,0.8532
4853.00,0.8486
4852.00,0.8441
4851.00,0.8396
4850.00,0.8352
4849.00,0.8309
4848.00,0.8266
4847.00,0.8224
4846.00,0.8183
4845.00,0.8142
4844.00,0.8103
4843.00,0.8064
4842.00,0.8027
4841.00,0.7991
4840.00,0.7956
4839.00,0.7921
4838.00,0.7888
4837.00,0.7856
4836.00,0.7825
4835.00,0.7796
4834.00,0.7767
4833.00,0.7740
4832.00,0.7715
4831.00,0.7691
4830.00,0.7668
4829.00,0.7646
4828.00,0.7626
4827.00,0.7607
4826.00,0.7589
4825.00,0.7573
4824.00,0.7558
4823.00,0.7546
4822.00,0.7536
4821.00,0.7528
4820.00,0.7522
4819.00,0.7517
4818.00,0.7513
4817.00,0.7511
4816.00,0.7511
4815.00,0.7512
4814.00,0.7515
4813.00,0.7521
4812.00,0.7528
4811.00,0.7538
4810.00,0.7549
4809.00,0.7563
4808.00,0.7579
4807.00,0.7597
4806.00,0.7617
4805.00,0.7638
4804.00,0.7660
4803.00,0.7685
4802.00,0.7712
4801.00,0.7741
4800.00,0.7771
4799.00,0.7804
4798.00,0.7838
4797.00,0.7874
4796.00,0.7912
4795.00,0.7952
4794.00,0.7993
4793.00,0.8036
4792.00,0.8080
4791.00,0.8126
4790.00,0.8173
4789.00,0.8223
4788.00,0.8274
4787.00,0.8326
4786.00,0.8379
4785.00,0.8434
4784.00,0.8490
4783.00,0.8547
4782.00,0.8604
4781.00,0.8664
4780.00,0.8723
4779.00,0.8784
4778.00,0.8846
4777.00,0.8909
4776.00,0.8974
4775.00,0.9039
4774.00,0.9106
4773.00,0.9173
4772.00,0.9241
4771.00,0.9311
4770.00,0.9381
4769.00,0.9451
4768.00,0.9521
4767.00,0.9591
4766.00,0.9662
4765.00,0.9733
4764.00,0.9804
4763.00,0.9876
4762.00,0.9949
4761.00,1.0021
4760.00,1.0094
4759.00,1.0167
4758.00,1.0240
4757.00,1.0313
4756.00,1.0387
4755.00,1.0460
4754.00,1.0534
4753.00,1.0608
4752.00,1.0681
4751.00,1.0755
4750.00,1.0828
4749.00,1.0901
4748.00,1.0974
4747.00,1.1047
4746.00,1.1120
4745.00,1.1193
4744.00,1.1265
4743.00,1.1338
4742.00,1.1410
4741.00,1.1481
4740.00,1.1551
4739.00,1.1621
4738.00,1.1691
4737.00,1.1760
4736.00,1.1828
4735.00,1.1897
4734.00,1.1965
4733.00,1.2032
4732.00,1.2100
4731.00,1.2166
4730.00,1.2232
4729.00,1.2296
4728.00,1.2360
4727.00,1.2422
4726.00,1.2485
4725.00,1.2548
4724.00,1.2611
4723.00,1.2673
4722.00,1.2734
4721.00,1.2794
4720.00,1.2853
4719.00,1.2912
4718.00,1.2969
4717.00,1.3027
4716.00,1.3083
4715.00,1.3139
4714.00,1.3193
4713.00,1.3246
4712.00,1.3299
4711.00,1.3350
4710.00,1.3401
4709.00,1.3453
4708.00,1.3503
4707.00,1.3553
4706.00,1.3601
4705.00,1.3650
4704.00,1.3697
4703.00,1.3745
4702.00,1.3791
4701.00,1.3836
4700.00,1.3880
4699.00,1.3924
4698.00,1.3968
4697.00,1.4010
4696.00,1.4051
4695.00,1.4091
4694.00,1.4130
4693.00,1.4169
4692.00,1.4207
4691.00,1.4247
4690.00,1.4286
4689.00,1.4325
4688.00,1.4364
4687.00,1.4400
4686.00,1.4433
4685.00,1.4465
4684.00,1.4497
4683.00,1.4529
4682.00,1.4561
4681.00,1.4593
4680.00,1.4624
4679.00,1.4654
4678.00,1.4682
4677.00,1.4709
4676.00,1.4736
4675.00,1.4762
4674.00,1.4788
4673.00,1.4813
4672.00,1.4838
4671.00,1.4862
4670.00,1.4885
4669.00,1.4908
4668.00,1.4931
4667.00,1.4954
4666.00,1.4977
4665.00,1.4999
4664.00,1.5020
4663.00,1.5039
4662.00,1.5057
4661.00,1.5075
4660.00,1.5091
4659.00,1.5107
4658.00,1.5121
4657.00,1.5134
4656.00,1.5147
4655.00,1.5162
4654.00,1.5176
4653.00,1.5190
4652.00,1.5203
4651.00,1.5214
4650.00,1.5223
4649.00,1.5231
4648.00,1.5240
4647.00,1.5251
4646.00,1.5263
4645.00,1.5275
4644.00,1.5286
4643.00,1.5295
4642.00,1.5301
4641.00,1.5306
4640.00,1.5310
4639.00,1.5313
4638.00,1.5317
4637.00,1.5320
4636.00,1.5322
4635.00,1.5323
4634.00,1.5325
4633.00,1.5326
4632.00,1.5327
4631.00,1.5327
4630.00,1.5328
4629.00,1.5327
4628.00,1.5327
4627.00,1.5327
4626.00,1.5325
4625.00,1.5321
4624.00,1.5315
4623.00,1.5308
4622.00,1.5301
4621.00,1.5294
4620.00,1.5288
4619.00,1.5282
4618.00,1.5276
4617.00,1.5269
4616.00,1.5261
4615.00,1.5252
4614.00,1.5242
4613.00,1.5231
4612.00,1.5220
4611.00,1.5208
4610.00,1.5194
4609.00,1.5179
4608.00,1.5162
4607.00,1.5144
4606.00,1.5127
4605.00,1.5111
4604.00,1.5096
4603.00,1.5080
4602.00,1.5062
4601.00,1.5043
4600.00,1.5025
4599.00,1.5007
4598.00,1.4990
4597.00,1.4972
4596.00,1.4951
4595.00,1.4928
4594.00,1.4903
4593.00,1.4877
4592.00,1.4852
4591.00,1.4827
4590.00,1.4801
4589.00,1.4774
4588.00,1.4746
4587.00,1.4717
4586.00,1.4688
4585.00,1.4658
4584.00,1.4629
4583.00,1.4598
4582.00,1.4566
4581.00,1.4534
4580.00,1.4500
4579.00,1.4466
4578.00,1.4431
4577.00,1.4395
4576.00,1.4358
4575.00,1.4321
4574.00,1.4284
4573.00,1.4246
4572.00,1.4208
4571.00,1.4169
4570.00,1.4130
4569.00,1.4088
4568.00,1.4045
4567.00,1.3999
4566.00,1.3953
4565.00,1.3907
4564.00,1.3861
4563.00,1.3815
4562.00,1.3770
4561.00,1.3723
4560.00,1.3675
4559.00,1.3625
4558.00,1.3573
4557.00,1.3520
4556.00,1.3468
4555.00,1.3416
4554.00,1.3364
4553.00,1.3311
4552.00,1.3257
4551.00,1.3200
4550.00,1.3143
4549.00,1.3086
4548.00,1.3029
4547.00,1.2971
4546.00,1.2912
4545.00,1.2852
4544.00,1.2791
4543.00,1.2730
4542.00,1.2669
4541.00,1.2608
4540.00,1.2546
4539.00,1.2484
4538.00,1.2421
4537.00,1.2355
4536.00,1.2289
4535.00,1.2223
4534.00,1.2156
4533.00,1.2089
4532.00,1.2021
4531.00,1.1953
4530.00,1.1884
4529.00,1.1815
4528.00,1.1746
4527.00,1.1677
4526.00,1.1608
4525.00,1.1538
4524.00,1.1468
4523.00,1.1397
4522.00,1.1326
4521.00,1.1254
4520.00,1.1182
4519.00,1.1110
4518.00,1.1038
4517.00,1.0967
4516.00,1.0895
4515.00,1.0824
4514.00,1.0754
4513.00,1.0683
4512.00,1.0613
4511.00,1.0543
4510.00,1.0473
4509.00,1.0404
4508.00,1.0334
4507.00,1.0265
4506.00,1.0196
4505.00,1.0126
4504.00,1.0057
4503.00,0.9987
4502.00,0.9919
4501.00,0.9851
4500.00,0.9784
4499.00,0.9717
4498.00,0.9651
4497.00,0.9585
4496.00,0.9519
4495.00,0.9455
4494.00,0.9391
4493.00,0.9328
4492.00,0.9265
4491.00,0.9204
4490.00,0.9143
4489.00,0.9083
4488.00,0.9023
4487.00,0.8963
4486.00,0.8905
4485.00,0.8847
4484.00,0.8790
4483.00,0.8733
4482.00,0.8677
4481.00,0.8623
4480.00,0.8570
4479.00,0.8517
4478.00,0.8466
4477.00,0.8416
4476.00,0.8366
4475.00,0.8317
4474.00,0.8270
4473.00,0.8223
4472.00,0.8178
4471.00,0.8134
4470.00,0.8091
4469.00,0.8049
4468.00,0.8008
4467.00,0.7969
4466.00,0.7931
4465.00,0.7895
4464.00,0.7861
4463.00,0.7828
4462.00,0.7796
4461.00,0.7767
4460.00,0.7739
4459.00,0.7713
4458.00,0.7689
4457.00,0.7667
4456.00,0.7646
4455.00,0.7628
4454.00,0.7612
4453.00,0.7598
4452.00,0.7586
4451.00,0.7576
4450.00,0.7569
4449.00,0.7563
4448.00,0.7560
4447.00,0.7560
4446.00,0.7562
4445.00,0.7566
4444.00,0.7573
4443.00,0.7583
4442.00,0.7595
4441.00,0.7610
4440.00,0.7628
4439.00,0.7647
4438.00,0.7669
4437.00,0.7694
4436.00,0.7721
4435.00,0.7750
4434.00,0.7782
4433.00,0.7816
4432.00,0.7853
4431.00,0.7893
4430.00,0.7935
4429.00,0.7979
4428.00,0.8025
4427.00,0.8074
4426.00,0.8124
4425.00,0.8177
4424.00,0.8232
4423.00,0.8288
4422.00,0.8346
4421.00,0.8405
4420.00,0.8467
4419.00,0.8530
4418.00,0.8596
4417.00,0.8663
4416.00,0.8731
4415.00,0.8802
4414.00,0.8873
4413.00,0.8946
4412.00,0.9020
4411.00,0.9095
4410.00,0.9171
4409.00,0.9248
4408.00,0.9326
4407.00,0.9405
4406.00,0.9486
4405.00,0.9567
4404.00,0.9650
4403.00,0.9733
4402.00,0.9817
4401.00,0.9901
4400.00,0.9986
4399.00,1.0071
4398.00,1.0157
4397.00,1.0242
4396.00,1.0328
4395.00,1.0414
4394.00,1.0500
4393.00,1.0587
4392.00,1.0674
4391.00,1.0761
4390.00,1.0847
4389.00,1.0933
4388.00,1.1019
4387.00,1.1105
4386.00,1.1191
4385.00,1.1278
4384.00,1.1363
4383.00,1.1449
4382.00,1.1533
4381.00,1.1616
4380.00,1.1698
4379.00,1.1779
4378.00,1.1860
4377.00,1.1940
4376.00,1.2021
4375.00,1.2101
4374.00,1.2180
4373.00,1.2258
4372.00,1.2335
4371.00,1.2410
4370.00,1.2484
4369.00,1.2558
4368.00,1.2631
4367.00,1.2703
4366.00,1.2774
4365.00,1.2844
4364.00,1.2913
4363.00,1.2980
4362.00,1.3047
4361.00,1.3114
4360.00,1.3181
4359.00,1.3248
4358.00,1.3314
4357.00,1.3380
4356.00,1.3444
4355.00,1.3507
4354.00,1.3568
4353.00,1.3629
4352.00,1.3690
4351.00,1.3751
4350.00,1.3812
4349.00,1.3874
4348.00,1.3935
4347.00,1.3995
4346.00,1.4053
4345.00,1.4110
4344.00,1.4167
4343.00,1.4222
4342.00,1.4276
4341.00,1.4330
4340.00,1.4383
4339.00,1.4437
4338.00,1.4489
4337.00,1.4539
4336.00,1.4588
4335.00,1.4638
4334.00,1.4687
4333.00,1.4737
4332.00,1.4786
4331.00,1.4835
4330.00,1.4882
4329.00,1.4929
4328.00,1.4975
4327.00,1.5021
4326.00,1.5068
4325.00,1.5115
4324.00,1.5159
4323.00,1.5201
4322.00,1.5242
4321.00,1.5283
4320.00,1.5323
4319.00,1.5363
4318.00,1.5402
4317.00,1.5440
4316.00,1.5476
4315.00,1.5511
4314.00,1.5546
4313.00,1.5581
4312.00,1.5615
4311.00,1.5649
4310.00,1.5682
4309.00,1.5713
4308.00,1.5744
4307.00,1.5773
4306.00,1.5802
4305.00,1.5830
4304.00,1.5859
4303.00,1.5888
4302.00,1.5917
4301.00,1.5945
4300.00,1.5971
4299.00,1.5996
4298.00,1.6020
4297.00,1.6044
4296.00,1.6068
4295.00,1.6091
4294.00,1.6113
4293.00,1.6134
4292.00,1.6154
4291.00,1.6174
4290.00,1.6195
4289.00,1.6216
4288.00,1.6238
4287.00,1.6258
4286.00,1.6276
4285.00,1.6292
4284.00,1.6307
4283.00,1.6320
4282.00,1.6332
4281.00,1.6343
4280.00,1.6353
4279.00,1.6364
4278.00,1.6376
4277.00,1.6388
4276.00,1.6400
4275.00,1.6413
4274.00,1.6425
4273.00,1.6437
4272.00,1.6446
4271.00,1.6453
4270.00,1.6458
4269.00,1.6463
4268.00,1.6470
4267.00,1.6477
4266.00,1.6484
4265.00,1.6490
4264.00,1.6495
4263.00,1.6498
4262.00,1.6499
4261.00,1.6500
4260.00,1.6500
4259.00,1.6500
4258.00,1.6499
4257.00,1.6498
4256.00,1.6496
4255.00,1.6494
4254.00,1.6491
4253.00,1.6488
4252.00,1.6482
4251.00,1.6476
4250.00,1.6469
4249.00,1.6463
4248.00,1.6457
4247.00,1.6451
4246.00,1.6444
4245.00,1.6435
4244.00,1.6425
4243.00,1.6415
4242.00,1.6406
4241.00,1.6397
4240.00,1.6388
4239.00,1.6378
4238.00,1.6366
4237.00,1.6352
4236.00,1.6337
4235.00,1.6321
4234.00,1.6304
4233.00,1.6287
4232.00,1.6270
4231.00,1.6254
4230.00,1.6238
4229.00,1.6220
4228.00,1.6200
4227.00,1.6180
4226.00,1.6159
4225.00,1.6137
4224.00,1.6113
4223.00,1.6090
4222.00,1.6066
4221.00,1.6043
4220.00,1.6020
4219.00,1.5996
4218.00,1.5970
4217.00,1.5945
4216.00,1.5921
4215.00,1.5896
4214.00,1.5869
4213.00,1.5840
4212.00,1.5807
4211.00,1.5772
4210.00,1.5737
4209.00,1.5701
4208.00,1.5666
4207.00,1.5631
4206.00,1.5598
4205.00,1.5564
4204.00,1.5530
4203.00,1.5493
4202.00,1.5455
4201.00,1.5415
4200.00,1.5375
4199.00,1.5335
4198.00,1.5295
4197.00,1.5253
4196.00,1.5209
4195.00,1.5164
4194.00,1.5118
4193.00,1.5072
4192.00,1.5026
4191.00,1.4979
4190.00,1.4930
4189.00,1.4881
4188.00,1.4831
4187.00,1.4781
4186.00,1.4729
4185.00,1.4676
4184.00,1.4623
4183.00,1.4570
4182.00,1.4516
4181.00,1.4461
4180.00,1.4404
4179.00,1.4347
4178.00,1.4288
4177.00,1.4229
4176.00,1.4168
4175.00,1.4106
4174.00,1.4043
4173.00,1.3981
4172.00,1.3919
4171.00,1.3855
4170.00,1.3789
4169.00,1.3721
4168.00,1.3651
4167.00,1.3581
4166.00,1.3511
4165.00,1.3441
4164.00,1.3373
4163.00,1.3303
4162.00,1.3233
4161.00,1.3162
4160.00,1.3089
4159.00,1.3016
4158.00,1.2942
4157.00,1.2867
4156.00,1.2792
4155.00,1.2716
4154.00,1.2640
4153.00,1.2564
4152.00,1.2487
4151.00,1.2410
4150.00,1.2333
4149.00,1.2255
4148.00,1.2176
4147.00,1.2097
4146.00,1.2017
4145.00,1.1937
4144.00,1.1857
4143.00,1.1777
4142.00,1.1696
4141.00,1.1615
4140.00,1.1535
4139.00,1.1454
4138.00,1.1374
4137.00,1.1293
4136.00,1.1212
4135.00,1.1131
4134.00,1.1051
4133.00,1.0972
4132.00,1.0893
4131.00,1.0815
4130.00,1.0737
4129.00,1.0659
4128.00,1.0581
4127.00,1.0504
4126.00,1.0427
4125.00,1.0351
4124.00,1.0275
4123.00,1.0200
4122.00,1.0125
4121.00,1.0051
4120.00,0.9978
4119.00,0.9905
4118.00,0.9832
4117.00,0.9760
4116.00,0.9689
4115.00,0.9619
4114.00,0.9550
4113.00,0.9481
4112.00,0.9413
4111.00,0.9347
4110.00,0.9281
4109.00,0.9215
4108.00,0.9151
4107.00,0.9089
4106.00,0.9027
4105.00,0.8967
4104.00,0.8907
4103.00,0.8849
4102.00,0.8791
4101.00,0.8735
4100.00,0.8680
4099.00,0.8627
4098.00,0.8575
4097.00,0.8525
4096.00,0.8476
4095.00,0.8429
4094.00,0.8383
4093.00,0.8339
4092.00,0.8297
4091.00,0.8258
4090.00,0.8221
4089.00,0.8187
4088.00,0.8155
4087.00,0.8126
4086.00,0.8098
4085.00,0.8073
4084.00,0.8050
4083.00,0.8029
4082.00,0.8011
4081.00,0.7994
4080.00,0.7980
4079.00,0.7969
4078.00,0.7960
4077.00,0.7955
4076.00,0.7952
4075.00,0.7953
4074.00,0.7955
4073.00,0.7960
4072.00,0.7968
4071.00,0.7979
4070.00,0.7993
4069.00,0.8011
4068.00,0.8031
4067.00,0.8056
4066.00,0.8083
4065.00,0.8114
4064.00,0.8148
4063.00,0.8186
4062.00,0.8227
4061.00,0.8271
4060.00,0.8319
4059.00,0.8369
4058.00,0.8421
4057.00,0.8477
4056.00,0.8535
4055.00,0.8596
4054.00,0.8660
4053.00,0.8727
4052.00,0.8795
4051.00,0.8866
4050.00,0.8939
4049.00,0.9014
4048.00,0.9090
4047.00,0.9168
4046.00,0.9247
4045.00,0.9327
4044.00,0.9409
4043.00,0.9493
4042.00,0.9579
4041.00,0.9665
4040.00,0.9753
4039.00,0.9841
4038.00,0.9930
4037.00,1.0020
4036.00,1.0111
4035.00,1.0203
4034.00,1.0297
4033.00,1.0391
4032.00,1.0486
4031.00,1.0582
4030.00,1.0678
4029.00,1.0776
4028.00,1.0875
4027.00,1.0974
4026.00,1.1073
4025.00,1.1173
4024.00,1.1273
4023.00,1.1373
4022.00,1.1474
4021.00,1.1574
4020.00,1.1675
4019.00,1.1774
4018.00,1.1873
4017.00,1.1971
4016.00,1.2068
4015.00,1.2166
4014.00,1.2263
4013.00,1.2360
4012.00,1.2455
4011.00,1.2550
4010.00,1.2644
4009.00,1.2737
4008.00,1.2829
4007.00,1.2921
4006.00,1.3011
4005.00,1.3102
4004.00,1.3193
4003.00,1.3283
4002.00,1.3373
4001.00,1.3461
4000.00,1.3548
3999.00,1.3633
3998.00,1.3717
3997.00,1.3800
3996.00,1.3882
3995.00,1.3965
3994.00,1.4047
3993.00,1.4128
3992.00,1.4208
3991.00,1.4286
3990.00,1.4363
3989.00,1.4440
3988.00,1.4516
3987.00,1.4592
3986.00,1.4667
3985.00,1.4741
3984.00,1.4814
3983.00,1.4886
3982.00,1.4957
3981.00,1.5027
3980.00,1.5096
3979.00,1.5162
3978.00,1.5227
3977.00,1.5290
3976.00,1.5354
3975.00,1.5417
3974.00,1.5481
3973.00,1.5543
3972.00,1.5603
3971.00,1.5663
3970.00,1.5721
3969.00,1.5778
3968.00,1.5834
3967.00,1.5890
3966.00,1.5945
3965.00,1.5999
3964.00,1.6052
3963.00,1.6105
3962.00,1.6158
3961.00,1.6210
3960.00,1.6259
3959.00,1.6305
3958.00,1.6350
3957.00,1.6396
3956.00,1.6443
3955.00,1.6489
3954.00,1.6535
3953.00,1.6578
3952.00,1.6621
3951.00,1.6662
3950.00,1.6702
3949.00,1.6740
3948.00,1.6776
3947.00,1.6811
3946.00,1.6845
3945.00,1.6879
3944.00,1.6914
3943.00,1.6951
3942.00,1.6989
3941.00,1.7027
3940.00,1.7062
3939.00,1.7095
3938.00,1.7128
3937.00,1.7160
3936.00,1.7189
3935.00,1.7216
3934.00,1.7240
3933.00,1.7264
3932.00,1.7291
3931.00,1.7318
3930.00,1.7345
3929.00,1.7372
3928.00,1.7398
3927.00,1.7423
3926.00,1.7447
3925.00,1.7470
3924.00,1.7491
3923.00,1.7513
3922.00,1.7532
3921.00,1.7549
3920.00,1.7564
3919.00,1.7580
3918.00,1.7598
3917.00,1.7618
3916.00,1.7639
3915.00,1.7661
3914.00,1.7681
3913.00,1.7699
3912.00,1.7716
3911.00,1.7730
3910.00,1.7743
3909.00,1.7754
3908.00,1.7762
3907.00,1.7767
3906.00,1.7772
3905.00,1.7776
3904.00,1.7782
3903.00,1.7789
3902.00,1.7797
3901.00,1.7805
3900.00,1.7812
3899.00,1.7820
3898.00,1.7830
3897.00,1.7841
3896.00,1.7852
3895.00,1.7859
3894.00,1.7863
3893.00,1.7865
3892.00,1.7867
3891.00,1.7869
3890.00,1.7870
3889.00,1.7869
3888.00,1.7867
3887.00,1.7865
3886.00,1.7864
3885.00,1.7862
3884.00,1.7858
3883.00,1.7851
3882.00,1.7843
3881.00,1.7836
3880.00,1.7835
3879.00,1.7836
3878.00,1.7838
3877.00,1.7835
3876.00,1.7828
3875.00,1.7817
3874.00,1.7805
3873.00,1.7792
3872.00,1.7777
3871.00,1.7761
3870.00,1.7747
3869.00,1.7733
3868.00,1.7721
3867.00,1.7710
3866.00,1.7701
3865.00,1.7691
3864.00,1.7680
3863.00,1.7668
3862.00,1.7655
3861.00,1.7641
3860.00,1.7625
3859.00,1.7605
3858.00,1.7578
3857.00,1.7542
3856.00,1.7502
3855.00,1.7466
3854.00,1.7437
3853.00,1.7410
3852.00,1.7384
3851.00,1.7360
3850.00,1.7340
3849.00,1.7323
3848.00,1.7308
3847.00,1.7293
3846.00,1.7276
3845.00,1.7254
3844.00,1.7226
3843.00,1.7195
3842.00,1.7159
3841.00,1.7120
3840.00,1.7077
3839.00,1.7036
3838.00,1.6997
3837.00,1.6962
3836.00,1.6927
3835.00,1.6889
3834.00,1.6847
3833.00,1.6805
3832.00,1.6764
3831.00,1.6727
3830.00,1.6693
3829.00,1.6657
3828.00,1.6617
3827.00,1.6574
3826.00,1.6527
3825.00,1.6476
3824.00,1.6421
3823.00,1.6365
3822.00,1.6310
3821.00,1.6256
3820.00,1.6201
3819.00,1.6143
3818.00,1.6084
3817.00,1.6025
3816.00,1.5969
3815.00,1.5917
3814.00,1.5867
3813.00,1.5814
3812.00,1.5756
3811.00,1.5696
3810.00,1.5635
3809.00,1.5573
3808.00,1.5507
3807.00,1.5439
3806.00,1.5370
3805.00,1.5298
3804.00,1.5224
3803.00,1.5150
3802.00,1.5077
3801.00,1.5007
3800.00,1.4936
3799.00,1.4862
3798.00,1.4783
3797.00,1.4701
3796.00,1.4621
3795.00,1.4545
3794.00,1.4472
3793.00,1.4397
3792.00,1.4320
3791.00,1.4241
3790.00,1.4161
3789.00,1.4079
3788.00,1.3994
3787.00,1.3908
3786.00,1.3821
3785.00,1.3732
3784.00,1.3641
3783.00,1.3548
3782.00,1.3455
3781.00,1.3362
3780.00,1.3270
3779.00,1.3178
3778.00,1.3086
3777.00,1.2992
3776.00,1.2895
3775.00,1.2798
3774.00,1.2702
3773.00,1.2605
3772.00,1.2508
3771.00,1.2411
3770.00,1.2314
3769.00,1.2216
3768.00,1.2117
3767.00,1.2019
3766.00,1.1921
3765.00,1.1825
3764.00,1.1730
3763.00,1.1637
3762.00,1.1543
3761.00,1.1449
3760.00,1.1355
3759.00,1.1261
3758.00,1.1167
3757.00,1.1071
3756.00,1.0973
3755.00,1.0875
3754.00,1.0778
3753.00,1.0683
3752.00,1.0587
3751.00,1.0490
3750.00,1.0389
3749.00,1.0286
3748.00,1.0185
3747.00,1.0089
3746.00,1.0000
3745.00,0.9915
3744.00,0.9831
3743.00,0.9749
3742.00,0.9673
3741.00,0.9602
3740.00,0.9535
3739.00,0.9472
3738.00,0.9410
3737.00,0.9344
3736.00,0.9273
3735.00,0.9198
3734.00,0.9122
3733.00,0.9050
3732.00,0.8982
3731.00,0.8919
3730.00,0.8861
3729.00,0.8809
3728.00,0.8761
3727.00,0.8715
3726.00,0.8668
3725.00,0.8621
3724.00,0.8574
3723.00,0.8529
3722.00,0.8486
3721.00,0.8445
3720.00,0.8408
3719.00,0.8373
3718.00,0.8343
3717.00,0.8316
3716.00,0.8294
3715.00,0.8278
3714.00,0.8268
3713.00,0.8261
3712.00,0.8253
3711.00,0.8242
3710.00,0.8231
3709.00,0.8227
3708.00,0.8233
3707.00,0.8249
3706.00,0.8274
3705.00,0.8304
3704.00,0.8340
3703.00,0.8379
3702.00,0.8421
3701.00,0.8464
3700.00,0.8510
3699.00,0.8560
3698.00,0.8616
3697.00,0.8679
3696.00,0.8745
3695.00,0.8815
3694.00,0.8886
3693.00,0.8959
3692.00,0.9035
3691.00,0.9116
3690.00,0.9200
3689.00,0.9289
3688.00,0.9384
3687.00,0.9483
3686.00,0.9583
3685.00,0.9685
3684.00,0.9788
3683.00,0.9895
3682.00,1.0003
3681.00,1.0113
3680.00,1.0220
3679.00,1.0322
3678.00,1.0421
3677.00,1.0525
3676.00,1.0642
3675.00,1.0770
3674.00,1.0897
3673.00,1.1018
3672.00,1.1134
3671.00,1.1255
3670.00,1.1386
3669.00,1.1524
3668.00,1.1662
3667.00,1.1795
3666.00,1.1923
3665.00,1.2049
3664.00,1.2173
3663.00,1.2296
3662.00,1.2417
3661.00,1.2536
3660.00,1.2652
3659.00,1.2764
3658.00,1.2875
3657.00,1.2991
3656.00,1.3111
3655.00,1.3233
3654.00,1.3347
3653.00,1.3450
3652.00,1.3548
3651.00,1.3647
3650.00,1.3754
3649.00,1.3867
3648.00,1.3985
3647.00,1.4105
3646.00,1.4224
3645.00,1.4339
3644.00,1.4448
3643.00,1.4552
3642.00,1.4653
3641.00,1.4753
3640.00,1.4852
3639.00,1.4950
3638.00,1.5045
3637.00,1.5138
3636.00,1.5228
3635.00,1.5319
3634.00,1.5406
3633.00,1.5487
3632.00,1.5560
3631.00,1.5631
3630.00,1.5705
3629.00,1.5791
3628.00,1.5885
3627.00,1.5981
3626.00,1.6072
3625.00,1.6157
3624.00,1.6238
3623.00,1.6313
3622.00,1.6382
3621.00,1.6448
3620.00,1.6516
3619.00,1.6587
3618.00,1.6660
3617.00,1.6732
3616.00,1.6803
3615.00,1.6870
3614.00,1.6933
3613.00,1.6991
3612.00,1.7047
3611.00,1.7103
3610.00,1.7162
3609.00,1.7227
3608.00,1.7298
3607.00,1.7369
3606.00,1.7437
3605.00,1.7500
3604.00,1.7562
3603.00,1.7621
3602.00,1.7679
3601.00,1.7738
3600.00,1.7796
3599.00,1.7851
3598.00,1.7901
3597.00,1.7948
3596.00,1.7993
3595.00,1.8040
3594.00,1.8085
3593.00,1.8131
3592.00,1.8177
3591.00,1.8220
3590.00,1.8262
3589.00,1.8302
3588.00,1.8344
3587.00,1.8387
3586.00,1.8430
3585.00,1.8476
3584.00,1.8525
3583.00,1.8574
3582.00,1.8618
3581.00,1.8660
3580.00,1.8701
3579.00,1.8744
3578.00,1.8785
3577.00,1.8824
3576.00,1.8860
3575.00,1.8894
3574.00,1.8923
3573.00,1.8950
3572.00,1.8977
3571.00,1.9002
3570.00,1.9026
3569.00,1.9052
3568.00,1.9080
3567.00,1.9109
3566.00,1.9137
3565.00,1.9166
3564.00,1.9200
3563.00,1.9235
3562.00,1.9267
3561.00,1.9296
3560.00,1.9324
3559.00,1.9350
3558.00,1.9373
3557.00,1.9394
3556.00,1.9416
3555.00,1.9439
3554.00,1.9461
3553.00,1.9482
3552.00,1.9502
3551.00,1.9518
3550.00,1.9531
3549.00,1.9545
3548.00,1.9561
3547.00,1.9579
3546.00,1.9596
3545.00,1.9612
3544.00,1.9629
3543.00,1.9646
3542.00,1.9663
3541.00,1.9678
3540.00,1.9692
3539.00,1.9702
3538.00,1.9709
3537.00,1.9715
3536.00,1.9721
3535.00,1.9728
3534.00,1.9737
3533.00,1.9748
3532.00,1.9762
3531.00,1.9774
3530.00,1.9783
3529.00,1.9788
3528.00,1.9791
3527.00,1.9791
3526.00,1.9790
3525.00,1.9790
3524.00,1.9793
3523.00,1.9798
3522.00,1.9803
3521.00,1.9806
3520.00,1.9808
3519.00,1.9808
3518.00,1.9807
3517.00,1.9803
3516.00,1.9797
3515.00,1.9790
3514.00,1.9783
3513.00,1.9777
3512.00,1.9771
3511.00,1.9764
3510.00,1.9756
3509.00,1.9749
3508.00,1.9743
3507.00,1.9738
3506.00,1.9731
3505.00,1.9725
3504.00,1.9719
3503.00,1.9710
3502.00,1.9698
3501.00,1.9683
3500.00,1.9668
3499.00,1.9650
3498.00,1.9631
3497.00,1.9609
3496.00,1.9588
3495.00,1.9568
3494.00,1.9550
3493.00,1.9533
3492.00,1.9517
3491.00,1.9500
3490.00,1.9480
3489.00,1.9458
3488.00,1.9435
3487.00,1.9413
3486.00,1.9390
3485.00,1.9369
3484.00,1.9348
3483.00,1.9324
3482.00,1.9297
3481.00,1.9269
3480.00,1.9243
3479.00,1.9216
3478.00,1.9187
3477.00,1.9155
3476.00,1.9121
3475.00,1.9086
3474.00,1.9050
3473.00,1.9014
3472.00,1.8980
3471.00,1.8945
3470.00,1.8909
3469.00,1.8872
3468.00,1.8832
3467.00,1.8790
3466.00,1.8748
3465.00,1.8707
3464.00,1.8666
3463.00,1.8625
3462.00,1.8582
3461.00,1.8539
3460.00,1.8496
3459.00,1.8451
3458.00,1.8402
3457.00,1.8351
3456.00,1.8298
3455.00,1.8246
3454.00,1.8195
3453.00,1.8145
3452.00,1.8096
3451.00,1.8045
3450.00,1.7992
3449.00,1.7936
3448.00,1.7878
3447.00,1.7817
3446.00,1.7756
3445.00,1.7695
3444.00,1.7635
3443.00,1.7574
3442.00,1.7510
3441.00,1.7444
3440.00,1.7377
3439.00,1.7309
3438.00,1.7240
3437.00,1.7169
3436.00,1.7097
3435.00,1.7024
3434.00,1.6950
3433.00,1.6875
3432.00,1.6801
3431.00,1.6727
3430.00,1.6652
3429.00,1.6577
3428.00,1.6502
3427.00,1.6427
3426.00,1.6350
3425.00,1.6273
3424.00,1.6196
3423.00,1.6120
3422.00,1.6045
3421.00,1.5970
3420.00,1.5896
3419.00,1.5824
3418.00,1.5754
3417.00,1.5686
3416.00,1.5621
3415.00,1.5558
3414.00,1.5497
3413.00,1.5436
3412.00,1.5376
3411.00,1.5318
3410.00,1.5261
3409.00,1.5205
3408.00,1.5149
3407.00,1.5092
3406.00,1.5031
3405.00,1.4966
3404.00,1.4895
3403.00,1.4819
3402.00,1.4739
3401.00,1.4654
3400.00,1.4566
3399.00,1.4473
3398.00,1.4375
3397.00,1.4273
3396.00,1.4166
3395.00,1.4054
3394.00,1.3939
3393.00,1.3822
3392.00,1.3704
3391.00,1.3585
3390.00,1.3466
3389.00,1.3346
3388.00,1.3227
3387.00,1.3108
3386.00,1.2990
3385.00,1.2872
3384.00,1.2756
3383.00,1.2640
3382.00,1.2525
3381.00,1.2413
3380.00,1.2302
3379.00,1.2194
3378.00,1.2086
3377.00,1.1980
3376.00,1.1876
3375.00,1.1774
3374.00,1.1675
3373.00,1.1578
3372.00,1.1483
3371.00,1.1389
3370.00,1.1297
3369.00,1.1208
3368.00,1.1122
3367.00,1.1038
3366.00,1.0957
3365.00,1.0877
3364.00,1.0800
3363.00,1.0725
3362.00,1.0652
3361.00,1.0581
3360.00,1.0513
3359.00,1.0448
3358.00,1.0385
3357.00,1.0326
3356.00,1.0269
3355.00,1.0215
3354.00,1.0164
3353.00,1.0116
3352.00,1.0071
3351.00,1.0030
3350.00,0.9992
3349.00,0.9957
3348.00,0.9927
3347.00,0.9900
3346.00,0.9876
3345.00,0.9856
3344.00,0.9840
3343.00,0.9828
3342.00,0.9821
3341.00,0.9817
3340.00,0.9819
3339.00,0.9825
3338.00,0.9836
3337.00,0.9851
3336.00,0.9871
3335.00,0.9897
3334.00,0.9927
3333.00,0.9963
3332.00,1.0004
3331.00,1.0049
3330.00,1.0099
3329.00,1.0152
3328.00,1.0210
3327.00,1.0273
3326.00,1.0339
3325.00,1.0409
3324.00,1.0484
3323.00,1.0562
3322.00,1.0644
3321.00,1.0731
3320.00,1.0821
3319.00,1.0915
3318.00,1.1012
3317.00,1.1112
3316.00,1.1215
3315.00,1.1321
3314.00,1.1429
3313.00,1.1541
3312.00,1.1655
3311.00,1.1770
3310.00,1.1887
3309.00,1.2006
3308.00,1.2126
3307.00,1.2248
3306.00,1.2371
3305.00,1.2495
3304.00,1.2621
3303.00,1.2748
3302.00,1.2877
3301.00,1.3006
3300.00,1.3135
3299.00,1.3264
3298.00,1.3393
3297.00,1.3522
3296.00,1.3650
3295.00,1.3778
3294.00,1.3907
3293.00,1.4035
3292.00,1.4164
3291.00,1.4292
3290.00,1.4420
3289.00,1.4546
3288.00,1.4671
3287.00,1.4794
3286.00,1.4915
3285.00,1.5036
3284.00,1.5156
3283.00,1.5275
3282.00,1.5392
3281.00,1.5508
3280.00,1.5623
3279.00,1.5736
3278.00,1.5847
3277.00,1.5958
3276.00,1.6069
3275.00,1.6178
3274.00,1.6285
3273.00,1.6391
3272.00,1.6496
3271.00,1.6598
3270.00,1.6698
3269.00,1.6796
3268.00,1.6894
3267.00,1.6989
3266.00,1.7082
3265.00,1.7174
3264.00,1.7265
3263.00,1.7355
3262.00,1.7444
3261.00,1.7532
3260.00,1.7619
3259.00,1.7705
3258.00,1.7787
3257.00,1.7868
3256.00,1.7948
3255.00,1.8027
3254.00,1.8105
3253.00,1.8183
3252.00,1.8260
3251.00,1.8337
3250.00,1.8411
3249.00,1.8483
3248.00,1.8555
3247.00,1.8628
3246.00,1.8698
3245.00,1.8766
3244.00,1.8830
3243.00,1.8892
3242.00,1.8953
3241.00,1.9013
3240.00,1.9075
3239.00,1.9137
3238.00,1.9199
3237.00,1.9262
3236.00,1.9324
3235.00,1.9385
3234.00,1.9443
3233.00,1.9499
3232.00,1.9552
3231.00,1.9603
3230.00,1.9652
3229.00,1.9700
3228.00,1.9750
3227.00,1.9802
3226.00,1.9855
3225.00,1.9907
3224.00,1.9957
3223.00,2.0003
3222.00,2.0046
3221.00,2.0087
3220.00,2.0128
3219.00,2.0169
3218.00,2.0210
3217.00,2.0253
3216.00,2.0296
3215.00,2.0338
3214.00,2.0374
3213.00,2.0409
3212.00,2.0443
3211.00,2.0479
3210.00,2.0517
3209.00,2.0554
3208.00,2.0591
3207.00,2.0627
3206.00,2.0662
3205.00,2.0699
3204.00,2.0735
3203.00,2.0767
3202.00,2.0792
3201.00,2.0812
3200.00,2.0834
3199.00,2.0858
3198.00,2.0886
3197.00,2.0917
3196.00,2.0948
3195.00,2.0977
3194.00,2.1000
3193.00,2.1019
3192.00,2.1039
3191.00,2.1062
3190.00,2.1087
3189.00,2.1112
3188.00,2.1133
3187.00,2.1149
3186.00,2.1162
3185.00,2.1176
3184.00,2.1192
3183.00,2.1209
3182.00,2.1224
3181.00,2.1238
3180.00,2.1252
3179.00,2.1269
3178.00,2.1287
3177.00,2.1305
3176.00,2.1321
3175.00,2.1332
3174.00,2.1336
3173.00,2.1338
3172.00,2.1341
3171.00,2.1349
3170.00,2.1360
3169.00,2.1374
3168.00,2.1388
3167.00,2.1397
3166.00,2.1400
3165.00,2.1399
3164.00,2.1401
3163.00,2.1406
3162.00,2.1414
3161.00,2.1419
3160.00,2.1418
3159.00,2.1412
3158.00,2.1404
3157.00,2.1397
3156.00,2.1394
3155.00,2.1393
3154.00,2.1392
3153.00,2.1391
3152.00,2.1387
3151.00,2.1380
3150.00,2.1370
3149.00,2.1357
3148.00,2.1344
3147.00,2.1332
3146.00,2.1326
3145.00,2.1324
3144.00,2.1324
3143.00,2.1317
3142.00,2.1303
3141.00,2.1284
3140.00,2.1266
3139.00,2.1247
3138.00,2.1230
3137.00,2.1213
3136.00,2.1199
3135.00,2.1184
3134.00,2.1167
3133.00,2.1147
3132.00,2.1126
3131.00,2.1102
3130.00,2.1076
3129.00,2.1048
3128.00,2.1022
3127.00,2.0998
3126.00,2.0976
3125.00,2.0955
3124.00,2.0932
3123.00,2.0909
3122.00,2.0884
3121.00,2.0857
3120.00,2.0829
3119.00,2.0799
3118.00,2.0767
3117.00,2.0731
3116.00,2.0693
3115.00,2.0653
3114.00,2.0612
3113.00,2.0571
3112.00,2.0531
3111.00,2.0489
3110.00,2.0444
3109.00,2.0398
3108.00,2.0353
3107.00,2.0310
3106.00,2.0267
3105.00,2.0223
3104.00,2.0176
3103.00,2.0126
3102.00,2.0073
3101.00,2.0020
3100.00,1.9968
3099.00,1.9915
3098.00,1.9859
3097.00,1.9799
3096.00,1.9736
3095.00,1.9673
3094.00,1.9611
3093.00,1.9549
3092.00,1.9487
3091.00,1.9421
3090.00,1.9351
3089.00,1.9279
3088.00,1.9207
3087.00,1.9136
3086.00,1.9063
3085.00,1.8987
3084.00,1.8908
3083.00,1.8825
3082.00,1.8742
3081.00,1.8659
3080.00,1.8576
3079.00,1.8491
3078.00,1.8402
3077.00,1.8307
3076.00,1.8208
3075.00,1.8108
3074.00,1.8009
3073.00,1.7910
3072.00,1.7809
3071.00,1.7705
3070.00,1.7597
3069.00,1.7489
3068.00,1.7379
3067.00,1.7266
3066.00,1.7150
3065.00,1.7031
3064.00,1.6912
3063.00,1.6791
3062.00,1.6668
3061.00,1.6545
3060.00,1.6420
3059.00,1.6293
3058.00,1.6164
3057.00,1.6034
3056.00,1.5901
3055.00,1.5766
3054.00,1.5628
3053.00,1.5488
3052.00,1.5348
3051.00,1.5206
3050.00,1.5061
3049.00,1.4914
3048.00,1.4764
3047.00,1.4611
3046.00,1.4457
3045.00,1.4301
3044.00,1.4146
3043.00,1.3991
3042.00,1.3838
3041.00,1.3687
3040.00,1.3539
3039.00,1.3393
3038.00,1.3249
3037.00,1.3108
3036.00,1.2971
3035.00,1.2838
3034.00,1.2710
3033.00,1.2586
3032.00,1.2466
3031.00,1.2350
3030.00,1.2237
3029.00,1.2129
3028.00,1.2024
3027.00,1.1922
3026.00,1.1824
3025.00,1.1729
3024.00,1.1639
3023.00,1.1553
3022.00,1.1473
3021.00,1.1400
3020.00,1.1333
3019.00,1.1274
3018.00,1.1224
3017.00,1.1184
3016.00,1.1155
3015.00,1.1138
3014.00,1.1135
3013.00,1.1145
3012.00,1.1171
3011.00,1.1213
3010.00,1.1271
3009.00,1.1347
3008.00,1.1441
3007.00,1.1554
3006.00,1.1685
3005.00,1.1836
3004.00,1.2005
3003.00,1.2192
3002.00,1.2397
3001.00,1.2618
3000.00,1.2855
2999.00,1.3108
2998.00,1.3375
2997.00,1.3654
2996.00,1.3944
2995.00,1.4245
2994.00,1.4556
2993.00,1.4874
2992.00,1.5200
2991.00,1.5531
2990.00,1.5866
2989.00,1.6205
2988.00,1.6547
2987.00,1.6889
2986.00,1.7230
2985.00,1.7570
2984.00,1.7910
2983.00,1.8250
2982.00,1.8590
2981.00,1.8930
2980.00,1.9269
2979.00,1.9606
2978.00,1.9942
2977.00,2.0276
2976.00,2.0609
2975.00,2.0940
2974.00,2.1270
2973.00,2.1598
2972.00,2.1927
2971.00,2.2257
2970.00,2.2593
2969.00,2.2932
2968.00,2.3272
2967.00,2.3608
2966.00,2.3941
2965.00,2.4276
2964.00,2.4615
2963.00,2.4959
2962.00,2.5302
2961.00,2.5633
2960.00,2.5939
2959.00,2.6209
2958.00,2.6448
2957.00,2.6670
2956.00,2.6893
2955.00,2.7120
2954.00,2.7345
2953.00,2.7560
2952.00,2.7763
2951.00,2.7971
2950.00,2.8204
2949.00,2.8470
2948.00,2.8757
2947.00,2.9047
2946.00,2.9340
2945.00,2.9647
2944.00,2.9958
2943.00,3.0240
2942.00,3.0467
2941.00,3.0636
2940.00,3.0752
2939.00,3.0814
2938.00,3.0832
2937.00,3.0818
2936.00,3.0768
2935.00,3.0662
2934.00,3.0493
2933.00,3.0270
2932.00,2.9992
2931.00,2.9653
2930.00,2.9265
2929.00,2.8855
2928.00,2.8434
2927.00,2.7995
2926.00,2.7531
2925.00,2.7050
2924.00,2.6567
2923.00,2.6093
2922.00,2.5631
2921.00,2.5181
2920.00,2.4736
2919.00,2.4287
2918.00,2.3836
2917.00,2.3392
2916.00,2.2963
2915.00,2.2556
2914.00,2.2176
2913.00,2.1830
2912.00,2.1523
2911.00,2.1255
2910.00,2.1026
2909.00,2.0832
2908.00,2.0669
2907.00,2.0528
2906.00,2.0398
2905.00,2.0274
2904.00,2.0153
2903.00,2.0035
2902.00,1.9924
2901.00,1.9825
2900.00,1.9742
2899.00,1.9673
2898.00,1.9615
2897.00,1.9569
2896.00,1.9537
2895.00,1.9522
2894.00,1.9523
2893.00,1.9540
2892.00,1.9572
2891.00,1.9618
2890.00,1.9679
2889.00,1.9759
2888.00,1.9856
2887.00,1.9971
2886.00,2.0104
2885.00,2.0255
2884.00,2.0425
2883.00,2.0613
2882.00,2.0815
2881.00,2.1029
2880.00,2.1254
2879.00,2.1489
2878.00,2.1732
2877.00,2.1980
2876.00,2.2236
2875.00,2.2502
2874.00,2.2780
2873.00,2.3073
2872.00,2.3378
2871.00,2.3691
2870.00,2.4004
2869.00,2.4308
2868.00,2.4595
2867.00,2.4853
2866.00,2.5064
2865.00,2.5212
2864.00,2.5282
2863.00,2.5263
2862.00,2.5151
2861.00,2.4948
2860.00,2.4661
2859.00,2.4295
2858.00,2.3859
2857.00,2.3365
2856.00,2.2829
2855.00,2.2263
2854.00,2.1685
2853.00,2.1113
2852.00,2.0567
2851.00,2.0063
2850.00,1.9616
2849.00,1.9236
2848.00,1.8927
2847.00,1.8692
2846.00,1.8527
2845.00,1.8428
2844.00,1.8388
2843.00,1.8401
2842.00,1.8457
2841.00,1.8549
2840.00,1.8669
2839.00,1.8812
2838.00,1.8971
2837.00,1.9141
2836.00,1.9313
2835.00,1.9482
2834.00,1.9646
2833.00,1.9805
2832.00,1.9956
2831.00,2.0098
2830.00,2.0229
2829.00,2.0348
2828.00,2.0456
2827.00,2.0556
2826.00,2.0649
2825.00,2.0737
2824.00,2.0822
2823.00,2.0904
2822.00,2.0983
2821.00,2.1062
2820.00,2.1141
2819.00,2.1220
2818.00,2.1299
2817.00,2.1377
2816.00,2.1453
2815.00,2.1530
2814.00,2.1611
2813.00,2.1694
2812.00,2.1777
2811.00,2.1857
2810.00,2.1935
2809.00,2.2012
2808.00,2.2088
2807.00,2.2161
2806.00,2.2232
2805.00,2.2303
2804.00,2.2373
2803.00,2.2441
2802.00,2.2505
2801.00,2.2565
2800.00,2.2622
2799.00,2.2674
2798.00,2.2723
2797.00,2.2772
2796.00,2.2821
2795.00,2.2868
2794.00,2.2911
2793.00,2.2955
2792.00,2.2999
2791.00,2.3041
2790.00,2.3079
2789.00,2.3111
2788.00,2.3142
2787.00,2.3173
2786.00,2.3207
2785.00,2.3245
2784.00,2.3284
2783.00,2.3322
2782.00,2.3356
2781.00,2.3388
2780.00,2.3419
2779.00,2.3450
2778.00,2.3481
2777.00,2.3511
2776.00,2.3539
2775.00,2.3567
2774.00,2.3593
2773.00,2.3619
2772.00,2.3641
2771.00,2.3658
2770.00,2.3674
2769.00,2.3689
2768.00,2.3705
2767.00,2.3719
2766.00,2.3733
2765.00,2.3749
2764.00,2.3768
2763.00,2.3785
2762.00,2.3801
2761.00,2.3818
2760.00,2.3834
2759.00,2.3848
2758.00,2.3854
2757.00,2.3852
2756.00,2.3846
2755.00,2.3839
2754.00,2.3833
2753.00,2.3829
2752.00,2.3829
2751.00,2.3832
2750.00,2.3836
2749.00,2.3843
2748.00,2.3849
2747.00,2.3856
2746.00,2.3861
2745.00,2.3864
2744.00,2.3863
2743.00,2.3856
2742.00,2.3846
2741.00,2.3836
2740.00,2.3828
2739.00,2.3824
2738.00,2.3822
2737.00,2.3819
2736.00,2.3810
2735.00,2.3795
2734.00,2.3780
2733.00,2.3770
2732.00,2.3759
2731.00,2.3742
2730.00,2.3717
2729.00,2.3691
2728.00,2.3670
2727.00,2.3655
2726.00,2.3646
2725.00,2.3639
2724.00,2.3628
2723.00,2.3607
2722.00,2.3577
2721.00,2.3544
2720.00,2.3514
2719.00,2.3489
2718.00,2.3467
2717.00,2.3447
2716.00,2.3425
2715.00,2.3397
2714.00,2.3361
2713.00,2.3323
2712.00,2.3289
2711.00,2.3260
2710.00,2.3236
2709.00,2.3212
2708.00,2.3184
2707.00,2.3149
2706.00,2.3106
2705.00,2.3058
2704.00,2.3015
2703.00,2.2979
2702.00,2.2947
2701.00,2.2914
2700.00,2.2878
2699.00,2.2837
2698.00,2.2792
2697.00,2.2745
2696.00,2.2698
2695.00,2.2650
2694.00,2.2601
2693.00,2.2550
2692.00,2.2495
2691.00,2.2438
2690.00,2.2377
2689.00,2.2314
2688.00,2.2251
2687.00,2.2189
2686.00,2.2128
2685.00,2.2070
2684.00,2.2012
2683.00,2.1956
2682.00,2.1901
2681.00,2.1846
2680.00,2.1790
2679.00,2.1733
2678.00,2.1679
2677.00,2.1629
2676.00,2.1581
2675.00,2.1532
2674.00,2.1481
2673.00,2.1426
2672.00,2.1370
2671.00,2.1314
2670.00,2.1259
2669.00,2.1203
2668.00,2.1143
2667.00,2.1076
2666.00,2.1002
2665.00,2.0923
2664.00,2.0840
2663.00,2.0751
2662.00,2.0658
2661.00,2.0561
2660.00,2.0460
2659.00,2.0354
2658.00,2.0246
2657.00,2.0137
2656.00,2.0031
2655.00,1.9925
2654.00,1.9820
2653.00,1.9712
2652.00,1.9602
2651.00,1.9490
2650.00,1.9378
2649.00,1.9267
2648.00,1.9155
2647.00,1.9040
2646.00,1.8921
2645.00,1.8797
2644.00,1.8668
2643.00,1.8533
2642.00,1.8394
2641.00,1.8249
2640.00,1.8101
2639.00,1.7949
2638.00,1.7794
2637.00,1.7638
2636.00,1.7479
2635.00,1.7316
2634.00,1.7149
2633.00,1.6979
2632.00,1.6809
2631.00,1.6640
2630.00,1.6472
2629.00,1.6306
2628.00,1.6140
2627.00,1.5975
2626.00,1.5810
2625.00,1.5646
2624.00,1.5485
2623.00,1.5327
2622.00,1.5171
2621.00,1.5020
2620.00,1.4872
2619.00,1.4727
2618.00,1.4586
2617.00,1.4449
2616.00,1.4315
2615.00,1.4185
2614.00,1.4056
2613.00,1.3928
2612.00,1.3801
2611.00,1.3676
2610.00,1.3550
2609.00,1.3424
2608.00,1.3297
2607.00,1.3167
2606.00,1.3035
2605.00,1.2901
2604.00,1.2768
2603.00,1.2635
2602.00,1.2505
2601.00,1.2377
2600.00,1.2254
2599.00,1.2135
2598.00,1.2022
2597.00,1.1914
2596.00,1.1812
2595.00,1.1718
2594.00,1.1630
2593.00,1.1551
2592.00,1.1479
2591.00,1.1416
2590.00,1.1362
2589.00,1.1315
2588.00,1.1278
2587.00,1.1249
2586.00,1.1229
2585.00,1.1218
2584.00,1.1215
2583.00,1.1221
2582.00,1.1236
2581.00,1.1262
2580.00,1.1298
2579.00,1.1346
2578.00,1.1405
2577.00,1.1474
2576.00,1.1553
2575.00,1.1641
2574.00,1.1739
2573.00,1.1845
2572.00,1.1959
2571.00,1.2080
2570.00,1.2206
2569.00,1.2337
2568.00,1.2474
2567.00,1.2617
2566.00,1.2764
2565.00,1.2915
2564.00,1.3070
2563.00,1.3229
2562.00,1.3392
2561.00,1.3560
2560.00,1.3732
2559.00,1.3908
2558.00,1.4087
2557.00,1.4271
2556.00,1.4457
2555.00,1.4646
2554.00,1.4838
2553.00,1.5031
2552.00,1.5226
2551.00,1.5421
2550.00,1.5614
2549.00,1.5807
2548.00,1.6000
2547.00,1.6192
2546.00,1.6383
2545.00,1.6573
2544.00,1.6761
2543.00,1.6946
2542.00,1.7127
2541.00,1.7306
2540.00,1.7482
2539.00,1.7654
2538.00,1.7821
2537.00,1.7985
2536.00,1.8146
2535.00,1.8305
2534.00,1.8460
2533.00,1.8613
2532.00,1.8765
2531.00,1.8914
2530.00,1.9061
2529.00,1.9205
2528.00,1.9346
2527.00,1.9482
2526.00,1.9612
2525.00,1.9740
2524.00,1.9868
2523.00,1.9997
2522.00,2.0124
2521.00,2.0248
2520.00,2.0369
2519.00,2.0488
2518.00,2.0604
2517.00,2.0719
2516.00,2.0834
2515.00,2.0948
2514.00,2.1061
2513.00,2.1171
2512.00,2.1280
2511.00,2.1387
2510.00,2.1489
2509.00,2.1588
2508.00,2.1686
2507.00,2.1786
2506.00,2.1888
2505.00,2.1991
2504.00,2.2091
2503.00,2.2186
2502.00,2.2278
2501.00,2.2364
2500.00,2.2447
2499.00,2.2528
2498.00,2.2609
2497.00,2.2694
2496.00,2.2781
2495.00,2.2867
2494.00,2.2949
2493.00,2.3027
2492.00,2.3103
2491.00,2.3176
2490.00,2.3251
2489.00,2.3327
2488.00,2.3402
2487.00,2.3473
2486.00,2.3537
2485.00,2.3599
2484.00,2.3664
2483.00,2.3734
2482.00,2.3805
2481.00,2.3872
2480.00,2.3933
2479.00,2.3987
2478.00,2.4035
2477.00,2.4080
2476.00,2.4125
2475.00,2.4175
2474.00,2.4232
2473.00,2.4298
2472.00,2.4367
2471.00,2.4430
2470.00,2.4485
2469.00,2.4533
2468.00,2.4582
2467.00,2.4633
2466.00,2.4684
2465.00,2.4729
2464.00,2.4770
2463.00,2.4808
2462.00,2.4849
2461.00,2.4897
2460.00,2.4953
2459.00,2.5011
2458.00,2.5065
2457.00,2.5111
2456.00,2.5148
2455.00,2.5182
2454.00,2.5217
2453.00,2.5256
2452.00,2.5294
2451.00,2.5323
2450.00,2.5342
2449.00,2.5359
2448.00,2.5377
2447.00,2.5397
2446.00,2.5422
2445.00,2.5455
2444.00,2.5495
2443.00,2.5535
2442.00,2.5571
2441.00,2.5604
2440.00,2.5637
2439.00,2.5669
2438.00,2.5701
2437.00,2.5737
2436.00,2.5780
2435.00,2.5822
2434.00,2.5854
2433.00,2.5873
2432.00,2.5884
2431.00,2.5891
2430.00,2.5898
2429.00,2.5906
2428.00,2.5921
2427.00,2.5944
2426.00,2.5974
2425.00,2.6006
2424.00,2.6034
2423.00,2.6052
2422.00,2.6060
2421.00,2.6059
2420.00,2.6052
2419.00,2.6044
2418.00,2.6044
2417.00,2.6056
2416.00,2.6076
2415.00,2.6096
2414.00,2.6111
2413.00,2.6126
2412.00,2.6140
2411.00,2.6150
2410.00,2.6155
2409.00,2.6163
2408.00,2.6181
2407.00,2.6203
2406.00,2.6217
2405.00,2.6219
2404.00,2.6212
2403.00,2.6205
2402.00,2.6204
2401.00,2.6213
2400.00,2.6229
2399.00,2.6241
2398.00,2.6245
2397.00,2.6242
2396.00,2.6238
2395.00,2.6239
2394.00,2.6247
2393.00,2.6256
2392.00,2.6259
2391.00,2.6249
2390.00,2.6232
2389.00,2.6221
2388.00,2.6222
2387.00,2.6226
2386.00,2.6219
2385.00,2.6200
2384.00,2.6180
2383.00,2.6166
2382.00,2.6163
2381.00,2.6168
2380.00,2.6178
2379.00,2.6184
2378.00,2.6180
2377.00,2.6169
2376.00,2.6164
2375.00,2.6173
2374.00,2.6195
2373.00,2.6216
2372.00,2.6225
2371.00,2.6219
2370.00,2.6205
2369.00,2.6188
2368.00,2.6173
2367.00,2.6159
2366.00,2.6143
2365.00,2.6126
2364.00,2.6113
2363.00,2.6107
2362.00,2.6103
2361.00,2.6092
2360.00,2.6067
2359.00,2.6034
2358.00,2.6002
2357.00,2.5976
2356.00,2.5952
2355.00,2.5928
2354.00,2.5898
2353.00,2.5863
2352.00,2.5822
2351.00,2.5787
2350.00,2.5764
2349.00,2.5741
2348.00,2.5710
2347.00,2.5668
2346.00,2.5625
2345.00,2.5590
2344.00,2.5557
2343.00,2.5522
2342.00,2.5478
2341.00,2.5433
2340.00,2.5384
2339.00,2.5331
2338.00,2.5277
2337.00,2.5230
2336.00,2.5190
2335.00,2.5149
2334.00,2.5099
2333.00,2.5039
2332.00,2.4970
2331.00,2.4900
2330.00,2.4838
2329.00,2.4779
2328.00,2.4724
2327.00,2.4665
2326.00,2.4605
2325.00,2.4549
2324.00,2.4497
2323.00,2.4445
2322.00,2.4386
2321.00,2.4318
2320.00,2.4241
2319.00,2.4158
2318.00,2.4074
2317.00,2.3991
2316.00,2.3906
2315.00,2.3819
2314.00,2.3733
2313.00,2.3651
2312.00,2.3573
2311.00,2.3493
2310.00,2.3408
2309.00,2.3321
2308.00,2.3232
2307.00,2.3141
2306.00,2.3048
2305.00,2.2956
2304.00,2.2867
2303.00,2.2776
2302.00,2.2681
2301.00,2.2583
2300.00,2.2485
2299.00,2.2386
2298.00,2.2286
2297.00,2.2186
2296.00,2.2086
2295.00,2.1983
2294.00,2.1874
2293.00,2.1763
2292.00,2.1650
2291.00,2.1537
2290.00,2.1422
2289.00,2.1303
2288.00,2.1179
2287.00,2.1050
2286.00,2.0917
2285.00,2.0782
2284.00,2.0646
2283.00,2.0509
2282.00,2.0366
2281.00,2.0217
2280.00,2.0063
2279.00,1.9908
2278.00,1.9753
2277.00,1.9596
2276.00,1.9436
2275.00,1.9273
2274.00,1.9108
2273.00,1.8941
2272.00,1.8773
2271.00,1.8602
2270.00,1.8428
2269.00,1.8251
2268.00,1.8072
2267.00,1.7889
2266.00,1.7704
2265.00,1.7517
2264.00,1.7329
2263.00,1.7139
2262.00,1.6948
2261.00,1.6759
2260.00,1.6574
2259.00,1.6392
2258.00,1.6213
2257.00,1.6037
2256.00,1.5863
2255.00,1.5691
2254.00,1.5519
2253.00,1.5348
2252.00,1.5181
2251.00,1.5016
2250.00,1.4855
2249.00,1.4698
2248.00,1.4545
2247.00,1.4397
2246.00,1.4254
2245.00,1.4117
2244.00,1.3984
2243.00,1.3856
2242.00,1.3731
2241.00,1.3610
2240.00,1.3494
2239.00,1.3384
2238.00,1.3279
2237.00,1.3179
2236.00,1.3085
2235.00,1.2998
2234.00,1.2918
2233.00,1.2846
2232.00,1.2782
2231.00,1.2727
2230.00,1.2682
2229.00,1.2648
2228.00,1.2625
2227.00,1.2615
2226.00,1.2616
2225.00,1.2629
2224.00,1.2655
2223.00,1.2694
2222.00,1.2745
2221.00,1.2810
2220.00,1.2887
2219.00,1.2977
2218.00,1.3081
2217.00,1.3197
2216.00,1.3325
2215.00,1.3464
2214.00,1.3612
2213.00,1.3768
2212.00,1.3932
2211.00,1.4103
2210.00,1.4280
2209.00,1.4462
2208.00,1.4650
2207.00,1.4842
2206.00,1.5040
2205.00,1.5243
2204.00,1.5451
2203.00,1.5662
2202.00,1.5874
2201.00,1.6087
2200.00,1.6301
2199.00,1.6516
2198.00,1.6732
2197.00,1.6950
2196.00,1.7169
2195.00,1.7388
2194.00,1.7606
2193.00,1.7823
2192.00,1.8038
2191.00,1.8251
2190.00,1.8461
2189.00,1.8668
2188.00,1.8871
2187.00,1.9072
2186.00,1.9271
2185.00,1.9467
2184.00,1.9660
2183.00,1.9847
2182.00,2.0030
2181.00,2.0211
2180.00,2.0389
2179.00,2.0559
2178.00,2.0720
2177.00,2.0874
2176.00,2.1022
2175.00,2.1165
2174.00,2.1302
2173.00,2.1435
2172.00,2.1569
2171.00,2.1705
2170.00,2.1842
2169.00,2.1978
2168.00,2.2111
2167.00,2.2241
2166.00,2.2368
2165.00,2.2494
2164.00,2.2620
2163.00,2.2746
2162.00,2.2875
2161.00,2.3005
2160.00,2.3132
2159.00,2.3249
2158.00,2.3358
2157.00,2.3468
2156.00,2.3582
2155.00,2.3698
2154.00,2.3812
2153.00,2.3923
2152.00,2.4034
2151.00,2.4141
2150.00,2.4242
2149.00,2.4340
2148.00,2.4436
2147.00,2.4533
2146.00,2.4627
2145.00,2.4719
2144.00,2.4812
2143.00,2.4907
2142.00,2.5003
2141.00,2.5099
2140.00,2.5190
2139.00,2.5274
2138.00,2.5351
2137.00,2.5423
2136.00,2.5497
2135.00,2.5572
2134.00,2.5644
2133.00,2.5709
2132.00,2.5769
2131.00,2.5831
2130.00,2.5901
2129.00,2.5978
2128.00,2.6054
2127.00,2.6123
2126.00,2.6188
2125.00,2.6252
2124.00,2.6317
2123.00,2.6381
2122.00,2.6439
2121.00,2.6498
2120.00,2.6564
2119.00,2.6638
2118.00,2.6710
2117.00,2.6768
2116.00,2.6815
2115.00,2.6864
2114.00,2.6922
2113.00,2.6988
2112.00,2.7050
2111.00,2.7105
2110.00,2.7155
2109.00,2.7206
2108.00,2.7257
2107.00,2.7305
2106.00,2.7348
2105.00,2.7385
2104.00,2.7422
2103.00,2.7463
2102.00,2.7504
2101.00,2.7540
2100.00,2.7572
2099.00,2.7608
2098.00,2.7652
2097.00,2.7704
2096.00,2.7755
2095.00,2.7804
2094.00,2.7853
2093.00,2.7899
2092.00,2.7932
2091.00,2.7950
2090.00,2.7964
2089.00,2.7989
2088.00,2.8027
2087.00,2.8072
2086.00,2.8118
2085.00,2.8161
2084.00,2.8194
2083.00,2.8217
2082.00,2.8238
2081.00,2.8270
2080.00,2.8314
2079.00,2.8360
2078.00,2.8401
2077.00,2.8435
2076.00,2.8460
2075.00,2.8477
2074.00,2.8495
2073.00,2.8523
2072.00,2.8558
2071.00,2.8590
2070.00,2.8611
2069.00,2.8621
2068.00,2.8626
2067.00,2.8627
2066.00,2.8629
2065.00,2.8635
2064.00,2.8644
2063.00,2.8647
2062.00,2.8644
2061.00,2.8642
2060.00,2.8650
2059.00,2.8667
2058.00,2.8686
2057.00,2.8707
2056.00,2.8729
2055.00,2.8747
2054.00,2.8750
2053.00,2.8739
2052.00,2.8725
2051.00,2.8720
2050.00,2.8727
2049.00,2.8737
2048.00,2.8743
2047.00,2.8749
2046.00,2.8767
2045.00,2.8801
2044.00,2.8834
2043.00,2.8841
2042.00,2.8818
2041.00,2.8790
2040.00,2.8784
2039.00,2.8803
2038.00,2.8832
2037.00,2.8857
2036.00,2.8871
2035.00,2.8874
2034.00,2.8867
2033.00,2.8851
2032.00,2.8834
2031.00,2.8823
2030.00,2.8827
2029.00,2.8844
2028.00,2.8864
2027.00,2.8875
2026.00,2.8873
2025.00,2.8864
2024.00,2.8850
2023.00,2.8829
2022.00,2.8797
2021.00,2.8758
2020.00,2.8720
2019.00,2.8691
2018.00,2.8673
2017.00,2.8666
2016.00,2.8661
2015.00,2.8645
2014.00,2.8617
2013.00,2.8586
2012.00,2.8564
2011.00,2.8551
2010.00,2.8544
2009.00,2.8541
2008.00,2.8541
2007.00,2.8536
2006.00,2.8523
2005.00,2.8500
2004.00,2.8467
2003.00,2.8429
2002.00,2.8395
2001.00,2.8377
2000.00,2.8373
1999.00,2.8372
1998.00,2.8360
1997.00,2.8332
1996.00,2.8289
1995.00,2.8231
1994.00,2.8166
1993.00,2.8118
1992.00,2.8103
1991.00,2.8103
1990.00,2.8086
1989.00,2.8038
1988.00,2.7979
1987.00,2.7928
1986.00,2.7892
1985.00,2.7862
1984.00,2.7832
1983.00,2.7799
1982.00,2.7760
1981.00,2.7717
1980.00,2.7674
1979.00,2.7631
1978.00,2.7586
1977.00,2.7538
1976.00,2.7491
1975.00,2.7445
1974.00,2.7399
1973.00,2.7349
1972.00,2.7294
1971.00,2.7228
1970.00,2.7149
1969.00,2.7063
1968.00,2.6985
1967.00,2.6926
1966.00,2.6885
1965.00,2.6850
1964.00,2.6808
1963.00,2.6754
1962.00,2.6690
1961.00,2.6623
1960.00,2.6558
1959.00,2.6489
1958.00,2.6410
1957.00,2.6319
1956.00,2.6221
1955.00,2.6129
1954.00,2.6048
1953.00,2.5977
1952.00,2.5908
1951.00,2.5834
1950.00,2.5752
1949.00,2.5664
1948.00,2.5571
1947.00,2.5472
1946.00,2.5363
1945.00,2.5245
1944.00,2.5124
1943.00,2.5013
1942.00,2.4923
1941.00,2.4853
1940.00,2.4787
1939.00,2.4706
1938.00,2.4603
1937.00,2.4482
1936.00,2.4350
1935.00,2.4213
1934.00,2.4075
1933.00,2.3938
1932.00,2.3803
1931.00,2.3665
1930.00,2.3521
1929.00,2.3375
1928.00,2.3226
1927.00,2.3066
1926.00,2.2883
1925.00,2.2676
1924.00,2.2463
1923.00,2.2267
1922.00,2.2096
1921.00,2.1935
1920.00,2.1769
1919.00,2.1591
1918.00,2.1407
1917.00,2.1228
1916.00,2.1052
1915.00,2.0868
1914.00,2.0670
1913.00,2.0456
1912.00,2.0226
1911.00,1.9984
1910.00,1.9743
1909.00,1.9513
1908.00,1.9298
1907.00,1.9090
1906.00,1.8879
1905.00,1.8661
1904.00,1.8438
1903.00,1.8210
1902.00,1.7980
1901.00,1.7752
1900.00,1.7527
1899.00,1.7302
1898.00,1.7072
1897.00,1.6840
1896.00,1.6617
1895.00,1.6410
1894.00,1.6219
1893.00,1.6033
1892.00,1.5841
1891.00,1.5648
1890.00,1.5471
1889.00,1.5328
1888.00,1.5217
1887.00,1.5122
1886.00,1.5031
1885.00,1.4949
1884.00,1.4882
1883.00,1.4829
1882.00,1.4790
1881.00,1.4763
1880.00,1.4753
1879.00,1.4762
1878.00,1.4792
1877.00,1.4843
1876.00,1.4911
1875.00,1.4993
1874.00,1.5078
1873.00,1.5157
1872.00,1.5225
1871.00,1.5286
1870.00,1.5354
1869.00,1.5455
1868.00,1.5609
1867.00,1.5805
1866.00,1.6020
1865.00,1.6235
1864.00,1.6446
1863.00,1.6654
1862.00,1.6865
1861.00,1.7091
1860.00,1.7335
1859.00,1.7596
1858.00,1.7871
1857.00,1.8158
1856.00,1.8453
1855.00,1.8746
1854.00,1.9036
1853.00,1.9324
1852.00,1.9608
1851.00,1.9880
1850.00,2.0137
1849.00,2.0377
1848.00,2.0605
1847.00,2.0829
1846.00,2.1069
1845.00,2.1342
1844.00,2.1646
1843.00,2.1958
1842.00,2.2249
1841.00,2.2516
1840.00,2.2761
1839.00,2.2983
1838.00,2.3191
1837.00,2.3401
1836.00,2.3621
1835.00,2.3838
1834.00,2.4033
1833.00,2.4200
1832.00,2.4347
1831.00,2.4491
1830.00,2.4660
1829.00,2.4856
1828.00,2.5049
1827.00,2.5215
1826.00,2.5372
1825.00,2.5544
1824.00,2.5732
1823.00,2.5917
1822.00,2.6094
1821.00,2.6268
1820.00,2.6436
1819.00,2.6590
1818.00,2.6735
1817.00,2.6887
1816.00,2.7043
1815.00,2.7178
1814.00,2.7282
1813.00,2.7365
1812.00,2.7450
1811.00,2.7549
1810.00,2.7668
1809.00,2.7803
1808.00,2.7939
1807.00,2.8057
1806.00,2.8139
1805.00,2.8181
1804.00,2.8190
1803.00,2.8190
1802.00,2.8218
1801.00,2.8294
1800.00,2.8403
1799.00,2.8503
1798.00,2.8576
1797.00,2.8641
1796.00,2.8723
1795.00,2.8827
1794.00,2.8937
1793.00,2.9031
1792.00,2.9106
1791.00,2.9190
1790.00,2.9306
1789.00,2.9451
1788.00,2.9597
1787.00,2.9715
1786.00,2.9801
1785.00,2.9873
1784.00,2.9942
1783.00,3.0012
1782.00,3.0091
1781.00,3.0189
1780.00,3.0303
1779.00,3.0412
1778.00,3.0499
1777.00,3.0557
1776.00,3.0576
1775.00,3.0563
1774.00,3.0549
1773.00,3.0562
1772.00,3.0607
1771.00,3.0669
1770.00,3.0740
1769.00,3.0840
1768.00,3.0982
1767.00,3.1142
1766.00,3.1278
1765.00,3.1364
1764.00,3.1395
1763.00,3.1387
1762.00,3.1373
1761.00,3.1373
1760.00,3.1371
1759.00,3.1360
1758.00,3.1369
1757.00,3.1419
1756.00,3.1480
1755.00,3.1500
1754.00,3.1475
1753.00,3.1435
1752.00,3.1395
1751.00,3.1340
1750.00,3.1279
1749.00,3.1242
1748.00,3.1236
1747.00,3.1229
1746.00,3.1199
1745.00,3.1156
1744.00,3.1116
1743.00,3.1078
1742.00,3.1022
1741.00,3.0937
1740.00,3.0821
1739.00,3.0670
1738.00,3.0480
1737.00,3.0245
1736.00,2.9957
1735.00,2.9624
1734.00,2.9319
1733.00,2.9155
1732.00,2.9196
1731.00,2.9468
1730.00,3.0001
1729.00,3.0821
1728.00,3.1922
1727.00,3.3266
1726.00,3.4814
1725.00,3.6543
1724.00,3.8441
1723.00,4.0469
1722.00,4.2375
1721.00,4.3473
1720.00,4.3576
1719.00,4.3515
1718.00,4.4075
1717.00,4.5773
1716.00,4.8758
1715.00,5.0209
1714.00,4.7974
1713.00,4.6205
1712.00,4.5394
1711.00,4.5371
1710.00,4.6045
1709.00,4.6652
1708.00,4.6036
1707.00,4.4821
1706.00,4.4069
1705.00,4.3725
1704.00,4.3238
1703.00,4.2247
1702.00,4.0736
1701.00,3.8686
1700.00,3.6420
1699.00,3.4402
1698.00,3.2731
1697.00,3.1248
1696.00,2.9827
1695.00,2.8492
1694.00,2.7310
1693.00,2.6317
1692.00,2.5510
1691.00,2.4882
1690.00,2.4460
1689.00,2.4272
1688.00,2.4299
1687.00,2.4492
1686.00,2.4817
1685.00,2.5272
1684.00,2.5861
1683.00,2.6501
1682.00,2.7044
1681.00,2.7483
1680.00,2.7884
1679.00,2.8261
1678.00,2.8599
1677.00,2.8890
1676.00,2.9134
1675.00,2.9315
1674.00,2.9427
1673.00,2.9493
1672.00,2.9555
1671.00,2.9640
1670.00,2.9767
1669.00,2.9943
1668.00,3.0121
1667.00,3.0252
1666.00,3.0341
1665.00,3.0414
1664.00,3.0483
1663.00,3.0541
1662.00,3.0600
1661.00,3.0678
1660.00,3.0782
1659.00,3.0901
1658.00,3.1006
1657.00,3.1058
1656.00,3.1047
1655.00,3.1005
1654.00,3.1005
1653.00,3.1137
1652.00,3.1311
1651.00,3.1383
1650.00,3.1420
1649.00,3.1467
1648.00,3.1511
1647.00,3.1572
1646.00,3.1669
1645.00,3.1760
1644.00,3.1817
1643.00,3.1862
1642.00,3.1914
1641.00,3.1959
1640.00,3.1958
1639.00,3.1897
1638.00,3.1833
1637.00,3.1857
1636.00,3.2004
1635.00,3.2186
1634.00,3.2263
1633.00,3.2252
1632.00,3.2247
1631.00,3.2257
1630.00,3.2238
1629.00,3.2171
1628.00,3.2085
1627.00,3.2016
1626.00,3.1987
1625.00,3.2005
1624.00,3.2059
1623.00,3.2117
1622.00,3.2132
1621.00,3.2082
1620.00,3.1981
1619.00,3.1868
1618.00,3.1785
1617.00,3.1769
1616.00,3.1812
1615.00,3.1854
1614.00,3.1873
1613.00,3.1898
1612.00,3.1940
1611.00,3.1972
1610.00,3.1963
1609.00,3.1918
1608.00,3.1867
1607.00,3.1830
1606.00,3.1810
1605.00,3.1798
1604.00,3.1784
1603.00,3.1757
1602.00,3.1722
1601.00,3.1692
1600.00,3.1682
1599.00,3.1692
1598.00,3.1710
1597.00,3.1725
1596.00,3.1726
1595.00,3.1708
1594.00,3.1674
1593.00,3.1630
1592.00,3.1574
1591.00,3.1503
1590.00,3.1427
1589.00,3.1367
1588.00,3.1343
1587.00,3.1348
1586.00,3.1363
1585.00,3.1364
1584.00,3.1340
1583.00,3.1298
1582.00,3.1256
1581.00,3.1212
1580.00,3.1155
1579.00,3.1075
1578.00,3.0977
1577.00,3.0882
1576.00,3.0815
1575.00,3.0771
1574.00,3.0727
1573.00,3.0676
1572.00,3.0618
1571.00,3.0544
1570.00,3.0465
1569.00,3.0414
1568.00,3.0379
1567.00,3.0320
1566.00,3.0223
1565.00,3.0102
1564.00,2.9968
1563.00,2.9831
1562.00,2.9679
1561.00,2.9505
1560.00,2.9263
1559.00,2.9052
1558.00,2.9047
1557.00,2.9102
1556.00,2.9112
1555.00,2.9119
1554.00,2.9095
1553.00,2.9010
1552.00,2.8856
1551.00,2.8688
1550.00,2.8558
1549.00,2.8473
1548.00,2.8375
1547.00,2.8215
1546.00,2.7992
1545.00,2.7750
1544.00,2.7546
1543.00,2.7387
1542.00,2.7229
1541.00,2.7056
1540.00,2.6963
1539.00,2.6980
1538.00,2.6976
1537.00,2.6889
1536.00,2.6751
1535.00,2.6578
1534.00,2.6392
1533.00,2.6223
1532.00,2.6079
1531.00,2.5927
1530.00,2.5745
1529.00,2.5530
1528.00,2.5300
1527.00,2.5093
1526.00,2.4934
1525.00,2.4804
1524.00,2.4670
1523.00,2.4510
1522.00,2.4393
1521.00,2.4305
1520.00,2.4322
1519.00,2.4161
1518.00,2.4263
1517.00,2.4512
1516.00,2.4207
1515.00,2.4020
1514.00,2.3744
1513.00,2.3478
1512.00,2.3168
1511.00,2.2856
1510.00,2.2561
1509.00,2.2270
1508.00,2.1995
1507.00,2.1652
1506.00,2.1360
1505.00,2.0950
1504.00,2.0571
1503.00,2.0439
1502.00,2.0226
1501.00,2.0044
1500.00,1.9843
1499.00,1.9651
1498.00,1.9471
1497.00,1.9345
1496.00,1.9285
1495.00,1.9266
1494.00,1.9255
1493.00,1.9242
1492.00,1.9226
1491.00,1.9223
1490.00,1.9285
1489.00,1.9467
1488.00,1.9740
1487.00,2.0016
1486.00,2.0237
1485.00,2.0398
1484.00,2.0522
1483.00,2.0640
1482.00,2.0781
1481.00,2.0963
1480.00,2.1176
1479.00,2.1388
1478.00,2.1579
1477.00,2.1762
1476.00,2.1969
1475.00,2.2225
1474.00,2.2560
1473.00,2.3018
1472.00,2.3611
1471.00,2.4255
1470.00,2.4843
1469.00,2.5353
1468.00,2.5811
1467.00,2.6232
1466.00,2.6619
1465.00,2.6969
1464.00,2.7270
1463.00,2.7500
1462.00,2.7666
1461.00,2.7798
1460.00,2.7923
1459.00,2.8077
1458.00,2.8355
1457.00,2.8902
1456.00,2.9697
1455.00,3.0523
1454.00,3.1247
1453.00,3.1868
1452.00,3.2390
1451.00,3.2743
1450.00,3.2793
1449.00,3.2424
1448.00,3.1631
1447.00,3.0568
1446.00,2.9456
1445.00,2.8450
1444.00,2.7638
1443.00,2.7062
1442.00,2.6734
1441.00,2.6628
1440.00,2.6706
1439.00,2.6932
1438.00,2.7292
1437.00,2.7779
1436.00,2.8357
1435.00,2.8928
1434.00,2.9403
1433.00,2.9761
1432.00,3.0012
1431.00,3.0172
1430.00,3.0264
1429.00,3.0316
1428.00,3.0325
1427.00,3.0286
1426.00,3.0216
1425.00,3.0148
1424.00,3.0095
1423.00,3.0034
1422.00,2.9906
1421.00,2.9648
1420.00,2.9234
1419.00,2.8731
1418.00,2.8275
1417.00,2.7928
1416.00,2.7664
1415.00,2.7449
1414.00,2.7280
1413.00,2.7169
1412.00,2.7138
1411.00,2.7198
1410.00,2.7333
1409.00,2.7508
1408.00,2.7697
1407.00,2.7890
1406.00,2.8099
1405.00,2.8338
1404.00,2.8603
1403.00,2.8863
1402.00,2.9086
1401.00,2.9254
1400.00,2.9371
1399.00,2.9465
1398.00,2.9578
1397.00,2.9735
1396.00,2.9943
1395.00,3.0201
1394.00,3.0487
1393.00,3.0752
1392.00,3.0954
1391.00,3.1083
1390.00,3.1153
1389.00,3.1195
1388.00,3.1256
1387.00,3.1390
1386.00,3.1597
1385.00,3.1812
1384.00,3.1963
1383.00,3.2038
1382.00,3.2083
1381.00,3.2155
1380.00,3.2270
1379.00,3.2418
1378.00,3.2585
1377.00,3.2753
1376.00,3.2891
1375.00,3.2975
1374.00,3.3014
1373.00,3.3037
1372.00,3.3066
1371.00,3.3116
1370.00,3.3220
1369.00,3.3401
1368.00,3.3620
1367.00,3.3778
1366.00,3.3806
1365.00,3.3736
1364.00,3.3671
1363.00,3.3713
1362.00,3.3881
1361.00,3.4094
1360.00,3.4249
1359.00,3.4326
1358.00,3.4385
1357.00,3.4498
1356.00,3.4692
1355.00,3.4943
1354.00,3.5202
1353.00,3.5417
1352.00,3.5565
1351.00,3.5662
1350.00,3.5736
1349.00,3.5790
1348.00,3.5792
1347.00,3.5738
1346.00,3.5685
1345.00,3.5697
1344.00,3.5765
1343.00,3.5822
1342.00,3.5807
1341.00,3.5740
1340.00,3.5709
1339.00,3.5770
1338.00,3.5860
1337.00,3.5841
1336.00,3.5637
1335.00,3.5307
1334.00,3.4983
1333.00,3.4773
1332.00,3.4724
1331.00,3.4832
1330.00,3.5049
1329.00,3.5290
1328.00,3.5483
1327.00,3.5631
1326.00,3.5784
1325.00,3.5946
1324.00,3.6040
1323.00,3.6011
1322.00,3.5927
1321.00,3.5900
1320.00,3.5951
1319.00,3.6037
1318.00,3.6145
1317.00,3.6293
1316.00,3.6472
1315.00,3.6642
1314.00,3.6795
1313.00,3.6980
1312.00,3.7187
1311.00,3.7291
1310.00,3.7165
1309.00,3.6842
1308.00,3.6466
1307.00,3.6141
1306.00,3.5883
1305.00,3.5660
1304.00,3.5457
1303.00,3.5303
1302.00,3.5249
1301.00,3.5311
1300.00,3.5454
1299.00,3.5600
1298.00,3.5677
1297.00,3.5686
1296.00,3.5694
1295.00,3.5755
1294.00,3.5859
1293.00,3.5946
1292.00,3.5973
1291.00,3.5947
1290.00,3.5907
1289.00,3.5885
1288.00,3.5901
1287.00,3.5983
1286.00,3.6143
1285.00,3.6339
1284.00,3.6478
1283.00,3.6514
1282.00,3.6512
1281.00,3.6554
1280.00,3.6615
1279.00,3.6593
1278.00,3.6451
1277.00,3.6270
1276.00,3.6144
1275.00,3.6087
1274.00,3.6041
1273.00,3.5971
1272.00,3.5914
1271.00,3.5931
1270.00,3.6031
1269.00,3.6144
1268.00,3.6201
1267.00,3.6212
1266.00,3.6222
1265.00,3.6227
1264.00,3.6210
1263.00,3.6196
1262.00,3.6232
1261.00,3.6340
1260.00,3.6503
1259.00,3.6696
1258.00,3.6892
1257.00,3.7047
1256.00,3.7110
1255.00,3.7063
1254.00,3.6924
1253.00,3.6710
1252.00,3.6464
1251.00,3.6289
1250.00,3.6273
1249.00,3.6395
1248.00,3.6521
1247.00,3.6514
1246.00,3.6329
1245.00,3.6037
1244.00,3.5774
1243.00,3.5661
1242.00,3.5751
1241.00,3.5989
1240.00,3.6227
1239.00,3.6337
1238.00,3.6308
1237.00,3.6200
1236.00,3.6097
1235.00,3.6059
1234.00,3.6087
1233.00,3.6108
1232.00,3.6038
1231.00,3.5870
1230.00,3.5689
1229.00,3.5584
1228.00,3.5569
1227.00,3.5672
1226.00,3.6010
1225.00,3.6685
1224.00,3.7627
1223.00,3.8495
1222.00,3.8855
1221.00,3.8678
1220.00,3.8318
1219.00,3.8069
1218.00,3.8026
1217.00,3.8104
1216.00,3.8081
1215.00,3.7804
1214.00,3.7400
1213.00,3.7092
1212.00,3.6943
1211.00,3.6881
1210.00,3.6837
1209.00,3.6786
1208.00,3.6700
1207.00,3.6531
1206.00,3.6343
1205.00,3.6286
1204.00,3.6395
1203.00,3.6523
1202.00,3.6497
1201.00,3.6288
1200.00,3.6012
1199.00,3.5807
1198.00,3.5707
1197.00,3.5640
1196.00,3.5513
1195.00,3.5322
1194.00,3.5163
1193.00,3.5110
1192.00,3.5085
1191.00,3.4916
1190.00,3.4589
1189.00,3.4307
1188.00,3.4267
1187.00,3.4482
1186.00,3.4794
1185.00,3.5013
1184.00,3.5082
1183.00,3.5058
1182.00,3.5002
1181.00,3.4935
1180.00,3.4859
1179.00,3.4773
1178.00,3.4669
1177.00,3.4553
1176.00,3.4465
1175.00,3.4439
1174.00,3.4451
1173.00,3.4425
1172.00,3.4310
1171.00,3.4140
1170.00,3.3988
1169.00,3.3886
1168.00,3.3804
1167.00,3.3709
1166.00,3.3580
1165.00,3.3415
1164.00,3.3239
1163.00,3.3088
1162.00,3.2954
1161.00,3.2810
1160.00,3.2651
1159.00,3.2502
1158.00,3.2369
1157.00,3.2215
1156.00,3.2011
1155.00,3.1787
1154.00,3.1605
1153.00,3.1480
1152.00,3.1380
1151.00,3.1268
1150.00,3.1121
1149.00,3.0912
1148.00,3.0629
1147.00,3.0297
1146.00,2.9960
1145.00,2.9641
1144.00,2.9340
1143.00,2.9064
1142.00,2.8823
1141.00,2.8617
1140.00,2.8423
1139.00,2.8215
1138.00,2.7984
1137.00,2.7747
1136.00,2.7540
1135.00,2.7400
1134.00,2.7354
1133.00,2.7416
1132.00,2.7594
1131.00,2.7890
1130.00,2.8298
1129.00,2.8801
1128.00,2.9389
1127.00,3.0074
1126.00,3.0872
1125.00,3.1767
1124.00,3.2703
1123.00,3.3659
1122.00,3.4693
1121.00,3.5849
1120.00,3.6987
1119.00,3.7793
1118.00,3.8004
1117.00,3.7579
1116.00,3.6815
1115.00,3.6031
1114.00,3.5365
1113.00,3.4805
1112.00,3.4239
1111.00,3.3570
1110.00,3.2826
1109.00,3.2101
1108.00,3.1460
1107.00,3.0895
1106.00,3.0359
1105.00,2.9824
1104.00,2.9317
1103.00,2.8890
1102.00,2.8565
1101.00,2.8311
1100.00,2.8088
1099.00,2.7894
1098.00,2.7774
1097.00,2.7767
1096.00,2.7878
1095.00,2.8072
1094.00,2.8300
1093.00,2.8530
1092.00,2.8758
1091.00,2.8992
1090.00,2.9224
1089.00,2.9426
1088.00,2.9584
1087.00,2.9725
1086.00,2.9887
1085.00,3.0074
1084.00,3.0260
1083.00,3.0453
1082.00,3.0705
1081.00,3.1051
1080.00,3.1446
1079.00,3.1797
1078.00,3.2061
1077.00,3.2289
1076.00,3.2548
1075.00,3.2847
1074.00,3.3137
1073.00,3.3380
1072.00,3.3566
1071.00,3.3683
1070.00,3.3757
1069.00,3.3839
1068.00,3.3922
1067.00,3.3974
1066.00,3.4001
1065.00,3.4028
1064.00,3.4083
1063.00,3.4191
1062.00,3.4363
1061.00,3.4582
1060.00,3.4837
1059.00,3.5154
1058.00,3.5579
1057.00,3.6160
1056.00,3.6859
1055.00,3.7490
1054.00,3.7721
1053.00,3.7310
1052.00,3.6490
1051.00,3.5713
1050.00,3.5232
1049.00,3.5054
1048.00,3.5034
1047.00,3.5017
1046.00,3.4962
1045.00,3.4909
1044.00,3.4926
1043.00,3.5060
1042.00,3.5339
1041.00,3.5825
1040.00,3.6531
1039.00,3.7253
1038.00,3.7645
1037.00,3.7617
1036.00,3.7391
1035.00,3.7287
1034.00,3.7450
1033.00,3.7668
1032.00,3.7684
1031.00,3.7572
1030.00,3.7623
1029.00,3.8035
1028.00,3.8718
1027.00,3.9248
1026.00,3.9197
1025.00,3.8793
1024.00,3.8476
1023.00,3.8395
1022.00,3.8610
1021.00,3.9207
1020.00,4.0242
1019.00,4.1894
1018.00,4.4354
1017.00,4.7259
1016.00,4.8469
1015.00,4.5042
1014.00,4.2351
1013.00,4.1299
1012.00,4.1270
1011.00,4.1513
1010.00,4.1162
1009.00,4.0267
1008.00,3.9461
1007.00,3.9106
1006.00,3.9260
1005.00,3.9763
1004.00,4.0252
1003.00,4.0612
1002.00,4.1208
1001.00,4.2853
1000.00,4.4186
999.00,4.1727
998.00,4.0049
997.00,3.9616
996.00,3.9675
995.00,3.9628
994.00,3.9342
993.00,3.9237
992.00,3.9609
991.00,4.0557
990.00,4.1986
989.00,4.4013
988.00,4.5884
987.00,4.4710
986.00,4.3490
985.00,4.3064
984.00,4.2457
983.00,4.1645
982.00,4.1035
981.00,4.0780
980.00,4.0754
979.00,4.0849
978.00,4.1244
977.00,4.2259
976.00,4.3955
975.00,4.4478
974.00,4.2691
973.00,4.1310
972.00,4.0587
971.00,4.0040
970.00,3.9727
969.00,4.0002
968.00,4.1083
967.00,4.3053
966.00,4.5751
965.00,4.7632
964.00,4.7237
963.00,4.5088
962.00,4.2981
961.00,4.1868
960.00,4.1690
959.00,4.2123
958.00,4.2386
957.00,4.1802
956.00,4.0973
955.00,4.0544
954.00,4.0684
953.00,4.1339
952.00,4.2192
951.00,4.2420
950.00,4.1746
949.00,4.1278
948.00,4.1721
947.00,4.3047
946.00,4.4066
945.00,4.3920
944.00,4.3648
943.00,4.3284
942.00,4.3059
941.00,4.3132
940.00,4.3114
939.00,4.2755
938.00,4.2248
937.00,4.2331
936.00,4.3476
935.00,4.4745
934.00,4.5267
933.00,4.8222
932.00,4.8102
931.00,4.3736
930.00,4.3400
929.00,4.6388
928.00,5.0487
927.00,4.6414
926.00,4.4148
925.00,4.2492
924.00,4.1660
923.00,4.1293
922.00,4.0761
921.00,4.0163
920.00,3.9789
919.00,3.9827
918.00,4.0267
917.00,4.1048
916.00,4.2032
915.00,4.2930
914.00,4.3444
913.00,4.3563
912.00,4.3396
911.00,4.3068
910.00,4.2681
909.00,4.2126
908.00,4.1444
907.00,4.0990
906.00,4.1236
905.00,4.2433
904.00,4.3691
903.00,4.3283
902.00,4.1903
901.00,4.0851
900.00,4.0594
899.00,4.0856
898.00,4.0998
897.00,4.0909
896.00,4.1084
895.00,4.2404
894.00,4.5731
893.00,4.5917
892.00,4.3831
891.00,4.3327
890.00,4.3287
889.00,4.3242
888.00,4.2473
887.00,4.1133
886.00,4.0311
885.00,4.0366
884.00,4.1117
883.00,4.1897
882.00,4.1826
881.00,4.0969
880.00,4.0140
879.00,3.9813
878.00,3.9961
877.00,4.0080
876.00,3.9608
875.00,3.8778
874.00,3.8279
873.00,3.8557
872.00,3.9668
871.00,4.0763
870.00,4.0666
869.00,4.0295
868.00,4.0183
867.00,4.0103
866.00,4.0096
865.00,4.0387
864.00,4.1088
863.00,4.2014
862.00,4.2465
861.00,4.1768
860.00,4.0665
859.00,4.0165
858.00,4.0444
857.00,4.0563
856.00,4.0065
855.00,3.9889
854.00,4.0016
853.00,3.9812
852.00,3.9454
851.00,3.9323
850.00,3.9320
849.00,3.9231
848.00,3.9008
847.00,3.8864
846.00,3.9169
845.00,4.0158
844.00,4.1400
843.00,4.1186
842.00,3.9805
841.00,3.8816
840.00,3.8503
839.00,3.8721
838.00,3.9243
837.00,3.9864
836.00,4.0528
835.00,4.1370
834.00,4.2429
833.00,4.3372
832.00,4.3422
831.00,4.2224
830.00,4.0718
829.00,3.9641
828.00,3.8939
827.00,3.8365
826.00,3.8037
825.00,3.8387
824.00,3.9648
823.00,4.1724
822.00,4.3320
821.00,4.1077
820.00,3.8641
819.00,3.7576
818.00,3.7739
817.00,3.8882
816.00,4.0229
815.00,4.1014
814.00,4.1319
813.00,4.1258
812.00,4.0903
811.00,4.0068
810.00,3.9208
809.00,3.8902
808.00,3.9351
807.00,4.0342
806.00,4.1133
805.00,4.1222
804.00,4.1042
803.00,4.0987
802.00,4.0588
801.00,3.9639
800.00,3.9125
799.00,3.9534
798.00,4.0580
797.00,4.1295
796.00,4.1163
795.00,4.1034
794.00,4.1304
793.00,4.1647
792.00,4.1781
791.00,4.1707
790.00,4.1490
789.00,4.1263
788.00,4.0804
787.00,3.9846
786.00,3.8975
785.00,3.8590
784.00,3.8455
783.00,3.8375
782.00,3.8708
781.00,3.9940
780.00,4.2347
779.00,4.5366
778.00,4.5361
777.00,4.2352
776.00,3.9968
775.00,3.8656
774.00,3.8152
773.00,3.8121
772.00,3.8295
771.00,3.8716
770.00,3.9726
769.00,4.1555
768.00,4.3476
767.00,4.3180
766.00,4.1113
765.00,3.9416
764.00,3.8428
763.00,3.7995
762.00,3.8083
761.00,3.8717
760.00,3.9714
759.00,4.0413
758.00,3.9974
757.00,3.8923
756.00,3.8189
755.00,3.7982
754.00,3.8292
753.00,3.9082
752.00,3.9890
751.00,4.0112
750.00,3.9991
749.00,3.9483
748.00,3.8874
747.00,3.8806
746.00,3.9322
745.00,3.9920
744.00,3.9874
743.00,3.9177
742.00,3.8544
741.00,3.8381
740.00,3.8596
739.00,3.8873
738.00,3.9008
737.00,3.9159
736.00,3.9674
735.00,4.0565
734.00,4.1017
733.00,4.0594
732.00,4.0116
731.00,3.9855
730.00,3.9761
729.00,3.9815
728.00,3.9775
727.00,3.9358
726.00,3.8721
725.00,3.8303
724.00,3.8390
723.00,3.9012
722.00,3.9763
721.00,3.9715
720.00,3.8770
719.00,3.7775
718.00,3.7234
717.00,3.7327
716.00,3.7982
715.00,3.8862
714.00,3.9320
713.00,3.8981
712.00,3.8499
711.00,3.8449
710.00,3.8875
709.00,3.9704
708.00,4.0876
707.00,4.1959
706.00,4.2612
705.00,4.3561
704.00,4.3107
703.00,4.0220
702.00,3.8638
701.00,3.8528
700.00,3.9377
699.00,4.0135
698.00,3.9690
697.00,3.8633
696.00,3.7835
695.00,3.7454
694.00,3.7409
693.00,3.7672
692.00,3.8194
691.00,3.8637
690.00,3.8411
689.00,3.7617
688.00,3.6955
687.00,3.6766
686.00,3.7076
685.00,3.7823
684.00,3.8811
683.00,3.9446
682.00,3.9249
681.00,3.8937
680.00,3.9282
679.00,4.0183
678.00,4.0498
677.00,3.9663
676.00,3.8814
675.00,3.8705
674.00,3.9392
673.00,4.0356
672.00,4.0705
671.00,4.0476
670.00,4.0192
669.00,3.9752
668.00,3.9215
667.00,3.9038
666.00,3.9179
665.00,3.9072
664.00,3.8523
663.00,3.8144
662.00,3.8643
661.00,4.0516
660.00,4.3816
659.00,4.5891
658.00,4.6012
657.00,4.5700
656.00,4.4577
655.00,4.2535
654.00,4.0249
653.00,3.8756
652.00,3.8201
651.00,3.8229
650.00,3.8358
649.00,3.8257
648.00,3.8094
647.00,3.8261
646.00,3.8780
645.00,3.9329
644.00,3.9793
643.00,4.0523
642.00,4.1684
641.00,4.2591
640.00,4.1944
639.00,4.0881
638.00,4.0533
637.00,4.0301
636.00,3.9489
635.00,3.8668
634.00,3.8566
633.00,3.9221
632.00,3.9830
631.00,4.0289
630.00,4.1445
629.00,4.1528
628.00,3.9521
627.00,3.8095
626.00,3.7676
625.00,3.8344
624.00,3.9915
623.00,4.1121
622.00,4.0566
621.00,3.9272
620.00,3.8677
619.00,3.8816
618.00,3.8805
617.00,3.7918
616.00,3.6885
615.00,3.6398
614.00,3.6520
613.00,3.6960
612.00,3.7142
611.00,3.7037
610.00,3.7385
609.00,3.8646
608.00,4.0207
607.00,4.0205
606.00,3.9187
605.00,3.7722
604.00,3.6215
603.00,3.5215
602.00,3.4896
601.00,3.5308
600.00,3.6490
599.00,3.8062
598.00,3.8667
597.00,3.8279
596.00,3.7354
595.00,3.6267
594.00,3.5797
593.00,3.6100
592.00,3.6879
591.00,3.8225
590.00,4.0506
589.00,3.9608
588.00,3.8980
587.00,4.3543
586.00,4.1395
585.00,3.7563
584.00,3.6946
583.00,3.8162
582.00,4.0731
581.00,4.2921
580.00,4.1555
579.00,3.8374
578.00,3.6572
577.00,3.6143
576.00,3.6890
575.00,3.9057
574.00,4.4916
573.00,4.3116
572.00,3.9366
571.00,3.8228
570.00,3.7915
569.00,3.7693
568.00,3.7579
567.00,3.7488
566.00,3.7135
565.00,3.6487
564.00,3.5736
563.00,3.5256
562.00,3.5350
561.00,3.5941
560.00,3.6665
559.00,3.7420
558.00,3.8353
557.00,3.9563
556.00,4.0115
555.00,3.8540
554.00,3.7130
553.00,3.6972
552.00,3.7343
551.00,3.6859
550.00,3.6242
549.00,3.6000
548.00,3.5879
547.00,3.5722
546.00,3.5434
545.00,3.5151
544.00,3.5191
543.00,3.5635
542.00,3.6163
541.00,3.6312
540.00,3.6027
539.00,3.5730
538.00,3.5901
537.00,3.6882
536.00,3.8562
535.00,3.9453
534.00,3.8959
533.00,3.7885
532.00,3.6369
531.00,3.5271
530.00,3.5034
529.00,3.5535
528.00,3.6179
527.00,3.6206
526.00,3.5498
525.00,3.4651
524.00,3.4020
523.00,3.3668
522.00,3.3665
521.00,3.3869
520.00,3.3718
519.00,3.2933
518.00,3.2132
517.00,3.1884
516.00,3.2423
515.00,3.3794
514.00,3.5716
513.00,3.7292
512.00,3.7532
511.00,3.6500
510.00,3.6003
509.00,3.6755
508.00,3.8195
507.00,3.8506
506.00,3.6852
505.00,3.5000
504.00,3.3807
503.00,3.3327
502.00,3.3618
501.00,3.5207
500.00,3.9521
499.00,3.8255
498.00,3.6523
497.00,3.7470
496.00,3.8430
495.00,3.6703
494.00,3.5653
493.00,3.5768
492.00,3.6862
491.00,3.8614
490.00,4.1776
489.00,4.4508
488.00,3.8275
487.00,3.5550
486.00,3.4113
485.00,3.3533
484.00,3.3580
483.00,3.4090
482.00,3.4648
481.00,3.4756
480.00,3.4720
479.00,3.4658
478.00,3.4334
477.00,3.3770
476.00,3.3480
475.00,3.3878
474.00,3.4105
473.00,3.3071
472.00,3.1960
471.00,3.1444
470.00,3.1680
469.00,3.2523
468.00,3.3482
467.00,3.4404
466.00,3.5469
465.00,3.7563
464.00,4.5354
463.00,3.7701
462.00,3.4622
461.00,3.3504
460.00,3.3829
459.00,3.4984
458.00,3.4714
457.00,3.3921
456.00,3.4193
455.00,3.5542
454.00,3.6070
453.00,3.3637
452.00,3.1716
451.00,3.0617
450.00,3.0047
449.00,3.0111
448.00,3.0923
447.00,3.2211
446.00,3.3615
445.00,3.5094
444.00,3.5557
443.00,3.5204
442.00,3.5456
441.00,3.6385
440.00,3.8242
439.00,3.8065
438.00,3.4085
437.00,3.1957
436.00,3.1277
435.00,3.1486
434.00,3.1805
433.00,3.1572
432.00,3.0600
431.00,2.9599
430.00,2.9185
429.00,2.9255
428.00,2.9358
427.00,2.9201
426.00,2.9000
425.00,2.9212
424.00,2.9963
423.00,3.0609
422.00,3.0566
421.00,2.9573
420.00,2.7755
419.00,2.6300
418.00,2.5811
417.00,2.6071
416.00,2.6599
415.00,2.7203
414.00,2.8003
413.00,2.8780
412.00,2.8693
411.00,2.7899
410.00,2.7298
409.00,2.7281
408.00,2.7615
407.00,2.7882
406.00,2.8134
405.00,2.8695
404.00,2.9265
403.00,2.9002
402.00,2.8044
401.00,2.7057
400.00,2.6215
