Created as New Dataset,Sample 180 By Administrator Date Friday, November 26 2021
cm-1,A
7000.00,1.0878
6999.00,1.0903
6998.00,1.0927
6997.00,1.0951
6996.00,1.0974
6995.00,1.0997
6994.00,1.1019
6993.00,1.1041
6992.00,1.1064
6991.00,1.1090
6990.00,1.1117
6989.00,1.1145
6988.00,1.1173
6987.00,1.1199
6986.00,1.1224
6985.00,1.1248
6984.00,1.1273
6983.00,1.1298
6982.00,1.1325
6981.00,1.1351
6980.00,1.1374
6979.00,1.1394
6978.00,1.1412
6977.00,1.1428
6976.00,1.1442
6975.00,1.1453
6974.00,1.1463
6973.00,1.1475
6972.00,1.1490
6971.00,1.1507
6970.00,1.1524
6969.00,1.1542
6968.00,1.1559
6967.00,1.1575
6966.00,1.1590
6965.00,1.1605
6964.00,1.1619
6963.00,1.1629
6962.00,1.1639
6961.00,1.1650
6960.00,1.1663
6959.00,1.1677
6958.00,1.1690
6957.00,1.1699
6956.00,1.1708
6955.00,1.1714
6954.00,1.1717
6953.00,1.1717
6952.00,1.1714
6951.00,1.1713
6950.00,1.1716
6949.00,1.1722
6948.00,1.1731
6947.00,1.1740
6946.00,1.1747
6945.00,1.1753
6944.00,1.1758
6943.00,1.1762
6942.00,1.1766
6941.00,1.1767
6940.00,1.1765
6939.00,1.1760
6938.00,1.1755
6937.00,1.1752
6936.00,1.1752
6935.00,1.1750
6934.00,1.1744
6933.00,1.1737
6932.00,1.1733
6931.00,1.1733
6930.00,1.1734
6929.00,1.1733
6928.00,1.1732
6927.00,1.1729
6926.00,1.1726
6925.00,1.1720
6924.00,1.1710
6923.00,1.1698
6922.00,1.1685
6921.00,1.1671
6920.00,1.1660
6919.00,1.1652
6918.00,1.1647
6917.00,1.1642
6916.00,1.1634
6915.00,1.1621
6914.00,1.1606
6913.00,1.1591
6912.00,1.1574
6911.00,1.1555
6910.00,1.1536
6909.00,1.1518
6908.00,1.1502
6907.00,1.1486
6906.00,1.1471
6905.00,1.1454
6904.00,1.1436
6903.00,1.1418
6902.00,1.1401
6901.00,1.1387
6900.00,1.1374
6899.00,1.1356
6898.00,1.1336
6897.00,1.1316
6896.00,1.1298
6895.00,1.1278
6894.00,1.1256
6893.00,1.1233
6892.00,1.1210
6891.00,1.1186
6890.00,1.1157
6889.00,1.1126
6888.00,1.1096
6887.00,1.1070
6886.00,1.1048
6885.00,1.1028
6884.00,1.1007
6883.00,1.0985
6882.00,1.0959
6881.00,1.0931
6880.00,1.0901
6879.00,1.0869
6878.00,1.0836
6877.00,1.0807
6876.00,1.0783
6875.00,1.0761
6874.00,1.0739
6873.00,1.0711
6872.00,1.0678
6871.00,1.0642
6870.00,1.0606
6869.00,1.0572
6868.00,1.0539
6867.00,1.0506
6866.00,1.0475
6865.00,1.0448
6864.00,1.0423
6863.00,1.0397
6862.00,1.0368
6861.00,1.0335
6860.00,1.0300
6859.00,1.0265
6858.00,1.0231
6857.00,1.0198
6856.00,1.0163
6855.00,1.0128
6854.00,1.0095
6853.00,1.0065
6852.00,1.0034
6851.00,1.0001
6850.00,0.9968
6849.00,0.9936
6848.00,0.9906
6847.00,0.9874
6846.00,0.9842
6845.00,0.9810
6844.00,0.9778
6843.00,0.9745
6842.00,0.9710
6841.00,0.9678
6840.00,0.9647
6839.00,0.9617
6838.00,0.9586
6837.00,0.9553
6836.00,0.9521
6835.00,0.9489
6834.00,0.9456
6833.00,0.9421
6832.00,0.9387
6831.00,0.9354
6830.00,0.9324
6829.00,0.9297
6828.00,0.9270
6827.00,0.9244
6826.00,0.9216
6825.00,0.9187
6824.00,0.9158
6823.00,0.9129
6822.00,0.9100
6821.00,0.9068
6820.00,0.9037
6819.00,0.9005
6818.00,0.8975
6817.00,0.8944
6816.00,0.8911
6815.00,0.8877
6814.00,0.8844
6813.00,0.8815
6812.00,0.8788
6811.00,0.8761
6810.00,0.8733
6809.00,0.8706
6808.00,0.8678
6807.00,0.8649
6806.00,0.8618
6805.00,0.8585
6804.00,0.8553
6803.00,0.8523
6802.00,0.8494
6801.00,0.8465
6800.00,0.8437
6799.00,0.8409
6798.00,0.8383
6797.00,0.8357
6796.00,0.8331
6795.00,0.8304
6794.00,0.8277
6793.00,0.8251
6792.00,0.8225
6791.00,0.8198
6790.00,0.8170
6789.00,0.8142
6788.00,0.8114
6787.00,0.8088
6786.00,0.8064
6785.00,0.8040
6784.00,0.8017
6783.00,0.7994
6782.00,0.7972
6781.00,0.7951
6780.00,0.7930
6779.00,0.7909
6778.00,0.7888
6777.00,0.7868
6776.00,0.7849
6775.00,0.7831
6774.00,0.7813
6773.00,0.7795
6772.00,0.7777
6771.00,0.7760
6770.00,0.7744
6769.00,0.7728
6768.00,0.7712
6767.00,0.7696
6766.00,0.7680
6765.00,0.7665
6764.00,0.7651
6763.00,0.7638
6762.00,0.7627
6761.00,0.7619
6760.00,0.7611
6759.00,0.7604
6758.00,0.7596
6757.00,0.7588
6756.00,0.7579
6755.00,0.7570
6754.00,0.7562
6753.00,0.7556
6752.00,0.7552
6751.00,0.7550
6750.00,0.7548
6749.00,0.7548
6748.00,0.7548
6747.00,0.7548
6746.00,0.7546
6745.00,0.7545
6744.00,0.7543
6743.00,0.7543
6742.00,0.7543
6741.00,0.7546
6740.00,0.7550
6739.00,0.7555
6738.00,0.7560
6737.00,0.7566
6736.00,0.7572
6735.00,0.7580
6734.00,0.7588
6733.00,0.7598
6732.00,0.7607
6731.00,0.7617
6730.00,0.7625
6729.00,0.7634
6728.00,0.7644
6727.00,0.7654
6726.00,0.7666
6725.00,0.7680
6724.00,0.7696
6723.00,0.7713
6722.00,0.7730
6721.00,0.7747
6720.00,0.7763
6719.00,0.7780
6718.00,0.7796
6717.00,0.7814
6716.00,0.7833
6715.00,0.7853
6714.00,0.7873
6713.00,0.7893
6712.00,0.7914
6711.00,0.7935
6710.00,0.7957
6709.00,0.7981
6708.00,0.8006
6707.00,0.8031
6706.00,0.8057
6705.00,0.8084
6704.00,0.8112
6703.00,0.8140
6702.00,0.8166
6701.00,0.8192
6700.00,0.8218
6699.00,0.8245
6698.00,0.8272
6697.00,0.8299
6696.00,0.8327
6695.00,0.8356
6694.00,0.8386
6693.00,0.8418
6692.00,0.8452
6691.00,0.8486
6690.00,0.8520
6689.00,0.8553
6688.00,0.8586
6687.00,0.8619
6686.00,0.8650
6685.00,0.8681
6684.00,0.8713
6683.00,0.8748
6682.00,0.8785
6681.00,0.8822
6680.00,0.8859
6679.00,0.8895
6678.00,0.8930
6677.00,0.8966
6676.00,0.9003
6675.00,0.9040
6674.00,0.9076
6673.00,0.9111
6672.00,0.9147
6671.00,0.9184
6670.00,0.9220
6669.00,0.9254
6668.00,0.9288
6667.00,0.9324
6666.00,0.9364
6665.00,0.9404
6664.00,0.9443
6663.00,0.9482
6662.00,0.9521
6661.00,0.9559
6660.00,0.9596
6659.00,0.9632
6658.00,0.9669
6657.00,0.9707
6656.00,0.9746
6655.00,0.9784
6654.00,0.9823
6653.00,0.9864
6652.00,0.9905
6651.00,0.9945
6650.00,0.9984
6649.00,1.0023
6648.00,1.0062
6647.00,1.0101
6646.00,1.0139
6645.00,1.0176
6644.00,1.0213
6643.00,1.0250
6642.00,1.0288
6641.00,1.0327
6640.00,1.0366
6639.00,1.0405
6638.00,1.0443
6637.00,1.0480
6636.00,1.0515
6635.00,1.0550
6634.00,1.0585
6633.00,1.0621
6632.00,1.0657
6631.00,1.0694
6630.00,1.0730
6629.00,1.0766
6628.00,1.0802
6627.00,1.0837
6626.00,1.0868
6625.00,1.0897
6624.00,1.0927
6623.00,1.0958
6622.00,1.0992
6621.00,1.1026
6620.00,1.1062
6619.00,1.1096
6618.00,1.1129
6617.00,1.1160
6616.00,1.1190
6615.00,1.1220
6614.00,1.1248
6613.00,1.1275
6612.00,1.1302
6611.00,1.1332
6610.00,1.1363
6609.00,1.1391
6608.00,1.1415
6607.00,1.1438
6606.00,1.1461
6605.00,1.1487
6604.00,1.1514
6603.00,1.1541
6602.00,1.1568
6601.00,1.1594
6600.00,1.1619
6599.00,1.1642
6598.00,1.1665
6597.00,1.1687
6596.00,1.1708
6595.00,1.1729
6594.00,1.1752
6593.00,1.1775
6592.00,1.1799
6591.00,1.1822
6590.00,1.1843
6589.00,1.1861
6588.00,1.1878
6587.00,1.1895
6586.00,1.1912
6585.00,1.1928
6584.00,1.1941
6583.00,1.1954
6582.00,1.1970
6581.00,1.1986
6580.00,1.2001
6579.00,1.2013
6578.00,1.2023
6577.00,1.2033
6576.00,1.2043
6575.00,1.2053
6574.00,1.2063
6573.00,1.2074
6572.00,1.2087
6571.00,1.2102
6570.00,1.2118
6569.00,1.2131
6568.00,1.2140
6567.00,1.2147
6566.00,1.2155
6565.00,1.2163
6564.00,1.2171
6563.00,1.2178
6562.00,1.2184
6561.00,1.2189
6560.00,1.2192
6559.00,1.2193
6558.00,1.2192
6557.00,1.2192
6556.00,1.2192
6555.00,1.2192
6554.00,1.2193
6553.00,1.2194
6552.00,1.2195
6551.00,1.2196
6550.00,1.2195
6549.00,1.2196
6548.00,1.2197
6547.00,1.2195
6546.00,1.2191
6545.00,1.2185
6544.00,1.2178
6543.00,1.2170
6542.00,1.2161
6541.00,1.2152
6540.00,1.2143
6539.00,1.2134
6538.00,1.2124
6537.00,1.2114
6536.00,1.2107
6535.00,1.2102
6534.00,1.2098
6533.00,1.2091
6532.00,1.2082
6531.00,1.2070
6530.00,1.2058
6529.00,1.2046
6528.00,1.2034
6527.00,1.2020
6526.00,1.2005
6525.00,1.1990
6524.00,1.1973
6523.00,1.1956
6522.00,1.1938
6521.00,1.1922
6520.00,1.1906
6519.00,1.1890
6518.00,1.1873
6517.00,1.1853
6516.00,1.1832
6515.00,1.1811
6514.00,1.1791
6513.00,1.1772
6512.00,1.1753
6511.00,1.1732
6510.00,1.1710
6509.00,1.1689
6508.00,1.1668
6507.00,1.1647
6506.00,1.1624
6505.00,1.1600
6504.00,1.1576
6503.00,1.1549
6502.00,1.1519
6501.00,1.1487
6500.00,1.1457
6499.00,1.1429
6498.00,1.1403
6497.00,1.1378
6496.00,1.1353
6495.00,1.1328
6494.00,1.1300
6493.00,1.1272
6492.00,1.1243
6491.00,1.1214
6490.00,1.1185
6489.00,1.1153
6488.00,1.1121
6487.00,1.1088
6486.00,1.1055
6485.00,1.1022
6484.00,1.0989
6483.00,1.0955
6482.00,1.0921
6481.00,1.0887
6480.00,1.0853
6479.00,1.0820
6478.00,1.0789
6477.00,1.0758
6476.00,1.0727
6475.00,1.0693
6474.00,1.0658
6473.00,1.0621
6472.00,1.0584
6471.00,1.0546
6470.00,1.0509
6469.00,1.0474
6468.00,1.0440
6467.00,1.0407
6466.00,1.0372
6465.00,1.0335
6464.00,1.0298
6463.00,1.0262
6462.00,1.0227
6461.00,1.0192
6460.00,1.0155
6459.00,1.0118
6458.00,1.0080
6457.00,1.0042
6456.00,1.0003
6455.00,0.9963
6454.00,0.9925
6453.00,0.9889
6452.00,0.9855
6451.00,0.9821
6450.00,0.9786
6449.00,0.9751
6448.00,0.9716
6447.00,0.9680
6446.00,0.9643
6445.00,0.9606
6444.00,0.9569
6443.00,0.9533
6442.00,0.9498
6441.00,0.9464
6440.00,0.9429
6439.00,0.9394
6438.00,0.9359
6437.00,0.9324
6436.00,0.9289
6435.00,0.9254
6434.00,0.9219
6433.00,0.9184
6432.00,0.9151
6431.00,0.9117
6430.00,0.9085
6429.00,0.9052
6428.00,0.9018
6427.00,0.8985
6426.00,0.8953
6425.00,0.8922
6424.00,0.8892
6423.00,0.8860
6422.00,0.8827
6421.00,0.8795
6420.00,0.8764
6419.00,0.8734
6418.00,0.8704
6417.00,0.8674
6416.00,0.8644
6415.00,0.8614
6414.00,0.8585
6413.00,0.8557
6412.00,0.8530
6411.00,0.8501
6410.00,0.8472
6409.00,0.8444
6408.00,0.8417
6407.00,0.8389
6406.00,0.8360
6405.00,0.8333
6404.00,0.8307
6403.00,0.8283
6402.00,0.8260
6401.00,0.8237
6400.00,0.8214
6399.00,0.8192
6398.00,0.8172
6397.00,0.8152
6396.00,0.8132
6395.00,0.8112
6394.00,0.8092
6393.00,0.8072
6392.00,0.8053
6391.00,0.8033
6390.00,0.8014
6389.00,0.7996
6388.00,0.7978
6387.00,0.7960
6386.00,0.7944
6385.00,0.7929
6384.00,0.7915
6383.00,0.7903
6382.00,0.7891
6381.00,0.7879
6380.00,0.7869
6379.00,0.7858
6378.00,0.7849
6377.00,0.7840
6376.00,0.7833
6375.00,0.7826
6374.00,0.7819
6373.00,0.7813
6372.00,0.7806
6371.00,0.7798
6370.00,0.7791
6369.00,0.7787
6368.00,0.7783
6367.00,0.7782
6366.00,0.7782
6365.00,0.7783
6364.00,0.7785
6363.00,0.7787
6362.00,0.7789
6361.00,0.7792
6360.00,0.7796
6359.00,0.7801
6358.00,0.7806
6357.00,0.7813
6356.00,0.7820
6355.00,0.7828
6354.00,0.7835
6353.00,0.7844
6352.00,0.7853
6351.00,0.7864
6350.00,0.7876
6349.00,0.7890
6348.00,0.7903
6347.00,0.7918
6346.00,0.7933
6345.00,0.7949
6344.00,0.7965
6343.00,0.7982
6342.00,0.8000
6341.00,0.8020
6340.00,0.8041
6339.00,0.8061
6338.00,0.8082
6337.00,0.8105
6336.00,0.8128
6335.00,0.8152
6334.00,0.8175
6333.00,0.8200
6332.00,0.8226
6331.00,0.8253
6330.00,0.8280
6329.00,0.8309
6328.00,0.8338
6327.00,0.8369
6326.00,0.8400
6325.00,0.8431
6324.00,0.8461
6323.00,0.8490
6322.00,0.8519
6321.00,0.8548
6320.00,0.8578
6319.00,0.8609
6318.00,0.8642
6317.00,0.8675
6316.00,0.8710
6315.00,0.8744
6314.00,0.8778
6313.00,0.8812
6312.00,0.8846
6311.00,0.8881
6310.00,0.8917
6309.00,0.8954
6308.00,0.8993
6307.00,0.9032
6306.00,0.9071
6305.00,0.9109
6304.00,0.9148
6303.00,0.9188
6302.00,0.9228
6301.00,0.9268
6300.00,0.9308
6299.00,0.9346
6298.00,0.9385
6297.00,0.9423
6296.00,0.9461
6295.00,0.9498
6294.00,0.9536
6293.00,0.9577
6292.00,0.9618
6291.00,0.9660
6290.00,0.9702
6289.00,0.9744
6288.00,0.9787
6287.00,0.9828
6286.00,0.9869
6285.00,0.9910
6284.00,0.9951
6283.00,0.9991
6282.00,1.0030
6281.00,1.0067
6280.00,1.0105
6279.00,1.0144
6278.00,1.0186
6277.00,1.0228
6276.00,1.0271
6275.00,1.0313
6274.00,1.0354
6273.00,1.0393
6272.00,1.0430
6271.00,1.0466
6270.00,1.0502
6269.00,1.0542
6268.00,1.0583
6267.00,1.0625
6266.00,1.0666
6265.00,1.0706
6264.00,1.0745
6263.00,1.0784
6262.00,1.0822
6261.00,1.0861
6260.00,1.0897
6259.00,1.0932
6258.00,1.0966
6257.00,1.1000
6256.00,1.1036
6255.00,1.1072
6254.00,1.1107
6253.00,1.1143
6252.00,1.1178
6251.00,1.1212
6250.00,1.1245
6249.00,1.1276
6248.00,1.1308
6247.00,1.1341
6246.00,1.1376
6245.00,1.1411
6244.00,1.1446
6243.00,1.1481
6242.00,1.1514
6241.00,1.1544
6240.00,1.1572
6239.00,1.1599
6238.00,1.1625
6237.00,1.1652
6236.00,1.1679
6235.00,1.1707
6234.00,1.1735
6233.00,1.1765
6232.00,1.1793
6231.00,1.1819
6230.00,1.1844
6229.00,1.1871
6228.00,1.1900
6227.00,1.1927
6226.00,1.1950
6225.00,1.1970
6224.00,1.1989
6223.00,1.2008
6222.00,1.2026
6221.00,1.2042
6220.00,1.2058
6219.00,1.2073
6218.00,1.2088
6217.00,1.2105
6216.00,1.2123
6215.00,1.2141
6214.00,1.2159
6213.00,1.2177
6212.00,1.2195
6211.00,1.2211
6210.00,1.2225
6209.00,1.2238
6208.00,1.2251
6207.00,1.2263
6206.00,1.2274
6205.00,1.2283
6204.00,1.2291
6203.00,1.2298
6202.00,1.2307
6201.00,1.2317
6200.00,1.2329
6199.00,1.2340
6198.00,1.2350
6197.00,1.2356
6196.00,1.2359
6195.00,1.2360
6194.00,1.2362
6193.00,1.2364
6192.00,1.2368
6191.00,1.2374
6190.00,1.2380
6189.00,1.2385
6188.00,1.2388
6187.00,1.2389
6186.00,1.2388
6185.00,1.2386
6184.00,1.2385
6183.00,1.2382
6182.00,1.2378
6181.00,1.2373
6180.00,1.2368
6179.00,1.2363
6178.00,1.2359
6177.00,1.2354
6176.00,1.2351
6175.00,1.2347
6174.00,1.2341
6173.00,1.2334
6172.00,1.2327
6171.00,1.2320
6170.00,1.2312
6169.00,1.2303
6168.00,1.2293
6167.00,1.2284
6166.00,1.2274
6165.00,1.2265
6164.00,1.2255
6163.00,1.2245
6162.00,1.2233
6161.00,1.2218
6160.00,1.2198
6159.00,1.2176
6158.00,1.2153
6157.00,1.2134
6156.00,1.2118
6155.00,1.2103
6154.00,1.2089
6153.00,1.2072
6152.00,1.2054
6151.00,1.2033
6150.00,1.2010
6149.00,1.1988
6148.00,1.1968
6147.00,1.1949
6146.00,1.1930
6145.00,1.1911
6144.00,1.1890
6143.00,1.1867
6142.00,1.1844
6141.00,1.1820
6140.00,1.1795
6139.00,1.1767
6138.00,1.1739
6137.00,1.1709
6136.00,1.1678
6135.00,1.1646
6134.00,1.1614
6133.00,1.1584
6132.00,1.1555
6131.00,1.1528
6130.00,1.1501
6129.00,1.1473
6128.00,1.1447
6127.00,1.1419
6126.00,1.1391
6125.00,1.1360
6124.00,1.1329
6123.00,1.1299
6122.00,1.1269
6121.00,1.1240
6120.00,1.1211
6119.00,1.1179
6118.00,1.1146
6117.00,1.1113
6116.00,1.1078
6115.00,1.1041
6114.00,1.1002
6113.00,1.0964
6112.00,1.0928
6111.00,1.0893
6110.00,1.0858
6109.00,1.0825
6108.00,1.0793
6107.00,1.0761
6106.00,1.0727
6105.00,1.0691
6104.00,1.0655
6103.00,1.0618
6102.00,1.0582
6101.00,1.0546
6100.00,1.0510
6099.00,1.0473
6098.00,1.0435
6097.00,1.0396
6096.00,1.0358
6095.00,1.0321
6094.00,1.0283
6093.00,1.0246
6092.00,1.0211
6091.00,1.0177
6090.00,1.0142
6089.00,1.0106
6088.00,1.0069
6087.00,1.0032
6086.00,0.9995
6085.00,0.9957
6084.00,0.9920
6083.00,0.9883
6082.00,0.9847
6081.00,0.9812
6080.00,0.9778
6079.00,0.9744
6078.00,0.9709
6077.00,0.9674
6076.00,0.9639
6075.00,0.9605
6074.00,0.9571
6073.00,0.9538
6072.00,0.9505
6071.00,0.9472
6070.00,0.9439
6069.00,0.9406
6068.00,0.9372
6067.00,0.9339
6066.00,0.9306
6065.00,0.9274
6064.00,0.9242
6063.00,0.9210
6062.00,0.9179
6061.00,0.9147
6060.00,0.9116
6059.00,0.9084
6058.00,0.9052
6057.00,0.9019
6056.00,0.8984
6055.00,0.8950
6054.00,0.8917
6053.00,0.8885
6052.00,0.8855
6051.00,0.8825
6050.00,0.8796
6049.00,0.8765
6048.00,0.8734
6047.00,0.8703
6046.00,0.8672
6045.00,0.8641
6044.00,0.8611
6043.00,0.8581
6042.00,0.8551
6041.00,0.8520
6040.00,0.8490
6039.00,0.8460
6038.00,0.8431
6037.00,0.8404
6036.00,0.8377
6035.00,0.8350
6034.00,0.8323
6033.00,0.8295
6032.00,0.8267
6031.00,0.8239
6030.00,0.8212
6029.00,0.8186
6028.00,0.8160
6027.00,0.8135
6026.00,0.8111
6025.00,0.8087
6024.00,0.8063
6023.00,0.8041
6022.00,0.8019
6021.00,0.7998
6020.00,0.7977
6019.00,0.7955
6018.00,0.7934
6017.00,0.7914
6016.00,0.7895
6015.00,0.7878
6014.00,0.7862
6013.00,0.7847
6012.00,0.7833
6011.00,0.7817
6010.00,0.7802
6009.00,0.7787
6008.00,0.7773
6007.00,0.7760
6006.00,0.7749
6005.00,0.7738
6004.00,0.7728
6003.00,0.7718
6002.00,0.7708
6001.00,0.7700
6000.00,0.7691
5999.00,0.7683
5998.00,0.7676
5997.00,0.7671
5996.00,0.7667
5995.00,0.7664
5994.00,0.7662
5993.00,0.7661
5992.00,0.7661
5991.00,0.7661
5990.00,0.7662
5989.00,0.7663
5988.00,0.7666
5987.00,0.7668
5986.00,0.7671
5985.00,0.7677
5984.00,0.7683
5983.00,0.7690
5982.00,0.7698
5981.00,0.7706
5980.00,0.7716
5979.00,0.7726
5978.00,0.7736
5977.00,0.7747
5976.00,0.7759
5975.00,0.7774
5974.00,0.7790
5973.00,0.7808
5972.00,0.7827
5971.00,0.7845
5970.00,0.7864
5969.00,0.7883
5968.00,0.7902
5967.00,0.7922
5966.00,0.7943
5965.00,0.7966
5964.00,0.7991
5963.00,0.8016
5962.00,0.8042
5961.00,0.8069
5960.00,0.8097
5959.00,0.8127
5958.00,0.8157
5957.00,0.8187
5956.00,0.8218
5955.00,0.8249
5954.00,0.8279
5953.00,0.8308
5952.00,0.8337
5951.00,0.8368
5950.00,0.8401
5949.00,0.8436
5948.00,0.8473
5947.00,0.8512
5946.00,0.8551
5945.00,0.8589
5944.00,0.8627
5943.00,0.8664
5942.00,0.8702
5941.00,0.8740
5940.00,0.8779
5939.00,0.8818
5938.00,0.8858
5937.00,0.8899
5936.00,0.8940
5935.00,0.8982
5934.00,0.9025
5933.00,0.9068
5932.00,0.9110
5931.00,0.9153
5930.00,0.9196
5929.00,0.9239
5928.00,0.9283
5927.00,0.9326
5926.00,0.9370
5925.00,0.9416
5924.00,0.9461
5923.00,0.9508
5922.00,0.9555
5921.00,0.9603
5920.00,0.9649
5919.00,0.9695
5918.00,0.9739
5917.00,0.9785
5916.00,0.9830
5915.00,0.9876
5914.00,0.9922
5913.00,0.9970
5912.00,1.0017
5911.00,1.0063
5910.00,1.0109
5909.00,1.0155
5908.00,1.0201
5907.00,1.0248
5906.00,1.0294
5905.00,1.0340
5904.00,1.0385
5903.00,1.0429
5902.00,1.0474
5901.00,1.0520
5900.00,1.0567
5899.00,1.0615
5898.00,1.0662
5897.00,1.0709
5896.00,1.0754
5895.00,1.0798
5894.00,1.0843
5893.00,1.0887
5892.00,1.0931
5891.00,1.0975
5890.00,1.1019
5889.00,1.1062
5888.00,1.1105
5887.00,1.1149
5886.00,1.1194
5885.00,1.1241
5884.00,1.1288
5883.00,1.1331
5882.00,1.1371
5881.00,1.1409
5880.00,1.1446
5879.00,1.1484
5878.00,1.1523
5877.00,1.1564
5876.00,1.1606
5875.00,1.1646
5874.00,1.1684
5873.00,1.1718
5872.00,1.1750
5871.00,1.1782
5870.00,1.1817
5869.00,1.1854
5868.00,1.1892
5867.00,1.1929
5866.00,1.1965
5865.00,1.2000
5864.00,1.2034
5863.00,1.2067
5862.00,1.2101
5861.00,1.2135
5860.00,1.2170
5859.00,1.2204
5858.00,1.2236
5857.00,1.2266
5856.00,1.2293
5855.00,1.2319
5854.00,1.2345
5853.00,1.2372
5852.00,1.2400
5851.00,1.2428
5850.00,1.2456
5849.00,1.2483
5848.00,1.2508
5847.00,1.2530
5846.00,1.2552
5845.00,1.2573
5844.00,1.2595
5843.00,1.2619
5842.00,1.2644
5841.00,1.2668
5840.00,1.2690
5839.00,1.2708
5838.00,1.2725
5837.00,1.2741
5836.00,1.2757
5835.00,1.2771
5834.00,1.2787
5833.00,1.2803
5832.00,1.2819
5831.00,1.2834
5830.00,1.2848
5829.00,1.2861
5828.00,1.2873
5827.00,1.2883
5826.00,1.2891
5825.00,1.2899
5824.00,1.2908
5823.00,1.2918
5822.00,1.2930
5821.00,1.2943
5820.00,1.2955
5819.00,1.2966
5818.00,1.2974
5817.00,1.2981
5816.00,1.2988
5815.00,1.2994
5814.00,1.2998
5813.00,1.3001
5812.00,1.3004
5811.00,1.3007
5810.00,1.3010
5809.00,1.3012
5808.00,1.3014
5807.00,1.3016
5806.00,1.3019
5805.00,1.3022
5804.00,1.3024
5803.00,1.3025
5802.00,1.3024
5801.00,1.3022
5800.00,1.3019
5799.00,1.3016
5798.00,1.3012
5797.00,1.3011
5796.00,1.3010
5795.00,1.3008
5794.00,1.3002
5793.00,1.2994
5792.00,1.2986
5791.00,1.2979
5790.00,1.2971
5789.00,1.2965
5788.00,1.2960
5787.00,1.2958
5786.00,1.2955
5785.00,1.2951
5784.00,1.2945
5783.00,1.2938
5782.00,1.2927
5781.00,1.2913
5780.00,1.2898
5779.00,1.2883
5778.00,1.2869
5777.00,1.2854
5776.00,1.2840
5775.00,1.2825
5774.00,1.2809
5773.00,1.2791
5772.00,1.2776
5771.00,1.2762
5770.00,1.2749
5769.00,1.2735
5768.00,1.2719
5767.00,1.2702
5766.00,1.2684
5765.00,1.2663
5764.00,1.2641
5763.00,1.2621
5762.00,1.2602
5761.00,1.2582
5760.00,1.2561
5759.00,1.2540
5758.00,1.2519
5757.00,1.2496
5756.00,1.2472
5755.00,1.2446
5754.00,1.2420
5753.00,1.2392
5752.00,1.2363
5751.00,1.2335
5750.00,1.2308
5749.00,1.2280
5748.00,1.2251
5747.00,1.2221
5746.00,1.2192
5745.00,1.2165
5744.00,1.2137
5743.00,1.2109
5742.00,1.2080
5741.00,1.2050
5740.00,1.2019
5739.00,1.1984
5738.00,1.1948
5737.00,1.1912
5736.00,1.1877
5735.00,1.1842
5734.00,1.1808
5733.00,1.1773
5732.00,1.1738
5731.00,1.1702
5730.00,1.1665
5729.00,1.1626
5728.00,1.1587
5727.00,1.1546
5726.00,1.1506
5725.00,1.1466
5724.00,1.1426
5723.00,1.1386
5722.00,1.1346
5721.00,1.1304
5720.00,1.1262
5719.00,1.1218
5718.00,1.1174
5717.00,1.1130
5716.00,1.1086
5715.00,1.1042
5714.00,1.0997
5713.00,1.0953
5712.00,1.0907
5711.00,1.0859
5710.00,1.0812
5709.00,1.0766
5708.00,1.0721
5707.00,1.0677
5706.00,1.0634
5705.00,1.0590
5704.00,1.0546
5703.00,1.0500
5702.00,1.0453
5701.00,1.0405
5700.00,1.0357
5699.00,1.0309
5698.00,1.0260
5697.00,1.0211
5696.00,1.0164
5695.00,1.0117
5694.00,1.0071
5693.00,1.0026
5692.00,0.9981
5691.00,0.9937
5690.00,0.9893
5689.00,0.9849
5688.00,0.9804
5687.00,0.9760
5686.00,0.9715
5685.00,0.9670
5684.00,0.9626
5683.00,0.9582
5682.00,0.9539
5681.00,0.9496
5680.00,0.9453
5679.00,0.9411
5678.00,0.9369
5677.00,0.9328
5676.00,0.9287
5675.00,0.9246
5674.00,0.9205
5673.00,0.9165
5672.00,0.9123
5671.00,0.9082
5670.00,0.9041
5669.00,0.9000
5668.00,0.8960
5667.00,0.8919
5666.00,0.8879
5665.00,0.8841
5664.00,0.8804
5663.00,0.8766
5662.00,0.8730
5661.00,0.8693
5660.00,0.8656
5659.00,0.8619
5658.00,0.8583
5657.00,0.8548
5656.00,0.8514
5655.00,0.8481
5654.00,0.8448
5653.00,0.8415
5652.00,0.8383
5651.00,0.8350
5650.00,0.8319
5649.00,0.8288
5648.00,0.8258
5647.00,0.8228
5646.00,0.8199
5645.00,0.8171
5644.00,0.8143
5643.00,0.8116
5642.00,0.8089
5641.00,0.8064
5640.00,0.8038
5639.00,0.8014
5638.00,0.7990
5637.00,0.7969
5636.00,0.7948
5635.00,0.7927
5634.00,0.7905
5633.00,0.7885
5632.00,0.7865
5631.00,0.7846
5630.00,0.7828
5629.00,0.7811
5628.00,0.7796
5627.00,0.7783
5626.00,0.7770
5625.00,0.7758
5624.00,0.7746
5623.00,0.7736
5622.00,0.7726
5621.00,0.7716
5620.00,0.7708
5619.00,0.7701
5618.00,0.7695
5617.00,0.7690
5616.00,0.7686
5615.00,0.7682
5614.00,0.7680
5613.00,0.7679
5612.00,0.7680
5611.00,0.7682
5610.00,0.7685
5609.00,0.7689
5608.00,0.7693
5607.00,0.7699
5606.00,0.7706
5605.00,0.7713
5604.00,0.7722
5603.00,0.7732
5602.00,0.7742
5601.00,0.7754
5600.00,0.7766
5599.00,0.7780
5598.00,0.7795
5597.00,0.7812
5596.00,0.7830
5595.00,0.7849
5594.00,0.7868
5593.00,0.7887
5592.00,0.7908
5591.00,0.7929
5590.00,0.7952
5589.00,0.7977
5588.00,0.8003
5587.00,0.8030
5586.00,0.8057
5585.00,0.8085
5584.00,0.8114
5583.00,0.8143
5582.00,0.8175
5581.00,0.8207
5580.00,0.8240
5579.00,0.8274
5578.00,0.8308
5577.00,0.8344
5576.00,0.8380
5575.00,0.8417
5574.00,0.8455
5573.00,0.8493
5572.00,0.8532
5571.00,0.8571
5570.00,0.8611
5569.00,0.8652
5568.00,0.8693
5567.00,0.8734
5566.00,0.8776
5565.00,0.8819
5564.00,0.8863
5563.00,0.8908
5562.00,0.8953
5561.00,0.9000
5560.00,0.9046
5559.00,0.9092
5558.00,0.9139
5557.00,0.9185
5556.00,0.9232
5555.00,0.9279
5554.00,0.9327
5553.00,0.9376
5552.00,0.9425
5551.00,0.9474
5550.00,0.9523
5549.00,0.9572
5548.00,0.9622
5547.00,0.9672
5546.00,0.9724
5545.00,0.9776
5544.00,0.9828
5543.00,0.9879
5542.00,0.9929
5541.00,0.9979
5540.00,1.0029
5539.00,1.0080
5538.00,1.0131
5537.00,1.0182
5536.00,1.0234
5535.00,1.0286
5534.00,1.0338
5533.00,1.0389
5532.00,1.0439
5531.00,1.0489
5530.00,1.0540
5529.00,1.0591
5528.00,1.0642
5527.00,1.0693
5526.00,1.0744
5525.00,1.0796
5524.00,1.0847
5523.00,1.0899
5522.00,1.0951
5521.00,1.1003
5520.00,1.1052
5519.00,1.1100
5518.00,1.1146
5517.00,1.1191
5516.00,1.1237
5515.00,1.1284
5514.00,1.1333
5513.00,1.1382
5512.00,1.1430
5511.00,1.1478
5510.00,1.1525
5509.00,1.1571
5508.00,1.1618
5507.00,1.1665
5506.00,1.1711
5505.00,1.1756
5504.00,1.1800
5503.00,1.1842
5502.00,1.1884
5501.00,1.1924
5500.00,1.1965
5499.00,1.2006
5498.00,1.2048
5497.00,1.2088
5496.00,1.2128
5495.00,1.2169
5494.00,1.2211
5493.00,1.2253
5492.00,1.2295
5491.00,1.2337
5490.00,1.2377
5489.00,1.2414
5488.00,1.2448
5487.00,1.2482
5486.00,1.2517
5485.00,1.2553
5484.00,1.2589
5483.00,1.2622
5482.00,1.2653
5481.00,1.2682
5480.00,1.2709
5479.00,1.2738
5478.00,1.2768
5477.00,1.2801
5476.00,1.2834
5475.00,1.2867
5474.00,1.2898
5473.00,1.2927
5472.00,1.2954
5471.00,1.2980
5470.00,1.3005
5469.00,1.3030
5468.00,1.3055
5467.00,1.3079
5466.00,1.3102
5465.00,1.3123
5464.00,1.3144
5463.00,1.3164
5462.00,1.3185
5461.00,1.3206
5460.00,1.3227
5459.00,1.3247
5458.00,1.3267
5457.00,1.3287
5456.00,1.3306
5455.00,1.3327
5454.00,1.3347
5453.00,1.3365
5452.00,1.3381
5451.00,1.3395
5450.00,1.3408
5449.00,1.3422
5448.00,1.3435
5447.00,1.3447
5446.00,1.3459
5445.00,1.3471
5444.00,1.3483
5443.00,1.3495
5442.00,1.3508
5441.00,1.3520
5440.00,1.3529
5439.00,1.3535
5438.00,1.3537
5437.00,1.3538
5436.00,1.3540
5435.00,1.3545
5434.00,1.3554
5433.00,1.3564
5432.00,1.3573
5431.00,1.3579
5430.00,1.3583
5429.00,1.3586
5428.00,1.3588
5427.00,1.3590
5426.00,1.3590
5425.00,1.3591
5424.00,1.3591
5423.00,1.3591
5422.00,1.3589
5421.00,1.3586
5420.00,1.3580
5419.00,1.3571
5418.00,1.3562
5417.00,1.3553
5416.00,1.3546
5415.00,1.3542
5414.00,1.3538
5413.00,1.3534
5412.00,1.3530
5411.00,1.3524
5410.00,1.3518
5409.00,1.3510
5408.00,1.3502
5407.00,1.3494
5406.00,1.3484
5405.00,1.3474
5404.00,1.3462
5403.00,1.3449
5402.00,1.3434
5401.00,1.3418
5400.00,1.3400
5399.00,1.3383
5398.00,1.3367
5397.00,1.3353
5396.00,1.3338
5395.00,1.3322
5394.00,1.3303
5393.00,1.3283
5392.00,1.3265
5391.00,1.3246
5390.00,1.3227
5389.00,1.3206
5388.00,1.3183
5387.00,1.3159
5386.00,1.3134
5385.00,1.3110
5384.00,1.3087
5383.00,1.3064
5382.00,1.3040
5381.00,1.3013
5380.00,1.2984
5379.00,1.2955
5378.00,1.2927
5377.00,1.2898
5376.00,1.2869
5375.00,1.2840
5374.00,1.2811
5373.00,1.2781
5372.00,1.2750
5371.00,1.2720
5370.00,1.2689
5369.00,1.2657
5368.00,1.2624
5367.00,1.2591
5366.00,1.2556
5365.00,1.2519
5364.00,1.2482
5363.00,1.2445
5362.00,1.2407
5361.00,1.2370
5360.00,1.2332
5359.00,1.2293
5358.00,1.2254
5357.00,1.2214
5356.00,1.2175
5355.00,1.2134
5354.00,1.2093
5353.00,1.2052
5352.00,1.2012
5351.00,1.1971
5350.00,1.1930
5349.00,1.1889
5348.00,1.1847
5347.00,1.1803
5346.00,1.1756
5345.00,1.1708
5344.00,1.1661
5343.00,1.1615
5342.00,1.1569
5341.00,1.1523
5340.00,1.1476
5339.00,1.1428
5338.00,1.1380
5337.00,1.1332
5336.00,1.1283
5335.00,1.1234
5334.00,1.1184
5333.00,1.1133
5332.00,1.1082
5331.00,1.1032
5330.00,1.0981
5329.00,1.0929
5328.00,1.0878
5327.00,1.0827
5326.00,1.0778
5325.00,1.0728
5324.00,1.0677
5323.00,1.0625
5322.00,1.0571
5321.00,1.0517
5320.00,1.0464
5319.00,1.0411
5318.00,1.0358
5317.00,1.0306
5316.00,1.0253
5315.00,1.0200
5314.00,1.0148
5313.00,1.0097
5312.00,1.0046
5311.00,0.9996
5310.00,0.9945
5309.00,0.9893
5308.00,0.9842
5307.00,0.9790
5306.00,0.9739
5305.00,0.9689
5304.00,0.9639
5303.00,0.9589
5302.00,0.9538
5301.00,0.9488
5300.00,0.9438
5299.00,0.9388
5298.00,0.9339
5297.00,0.9291
5296.00,0.9244
5295.00,0.9196
5294.00,0.9149
5293.00,0.9103
5292.00,0.9056
5291.00,0.9009
5290.00,0.8963
5289.00,0.8917
5288.00,0.8872
5287.00,0.8827
5286.00,0.8783
5285.00,0.8740
5284.00,0.8697
5283.00,0.8654
5282.00,0.8612
5281.00,0.8570
5280.00,0.8528
5279.00,0.8487
5278.00,0.8446
5277.00,0.8407
5276.00,0.8368
5275.00,0.8329
5274.00,0.8292
5273.00,0.8255
5272.00,0.8220
5271.00,0.8184
5270.00,0.8150
5269.00,0.8116
5268.00,0.8084
5267.00,0.8053
5266.00,0.8022
5265.00,0.7992
5264.00,0.7963
5263.00,0.7935
5262.00,0.7906
5261.00,0.7878
5260.00,0.7851
5259.00,0.7825
5258.00,0.7801
5257.00,0.7779
5256.00,0.7758
5255.00,0.7737
5254.00,0.7716
5253.00,0.7696
5252.00,0.7676
5251.00,0.7658
5250.00,0.7642
5249.00,0.7627
5248.00,0.7614
5247.00,0.7602
5246.00,0.7591
5245.00,0.7580
5244.00,0.7570
5243.00,0.7562
5242.00,0.7555
5241.00,0.7549
5240.00,0.7544
5239.00,0.7540
5238.00,0.7538
5237.00,0.7538
5236.00,0.7539
5235.00,0.7541
5234.00,0.7544
5233.00,0.7549
5232.00,0.7555
5231.00,0.7563
5230.00,0.7572
5229.00,0.7582
5228.00,0.7593
5227.00,0.7605
5226.00,0.7619
5225.00,0.7634
5224.00,0.7652
5223.00,0.7669
5222.00,0.7687
5221.00,0.7706
5220.00,0.7727
5219.00,0.7749
5218.00,0.7773
5217.00,0.7798
5216.00,0.7824
5215.00,0.7850
5214.00,0.7877
5213.00,0.7906
5212.00,0.7936
5211.00,0.7968
5210.00,0.8001
5209.00,0.8036
5208.00,0.8072
5207.00,0.8110
5206.00,0.8148
5205.00,0.8188
5204.00,0.8228
5203.00,0.8267
5202.00,0.8305
5201.00,0.8345
5200.00,0.8386
5199.00,0.8428
5198.00,0.8473
5197.00,0.8520
5196.00,0.8567
5195.00,0.8615
5194.00,0.8662
5193.00,0.8710
5192.00,0.8758
5191.00,0.8808
5190.00,0.8859
5189.00,0.8910
5188.00,0.8963
5187.00,0.9015
5186.00,0.9068
5185.00,0.9120
5184.00,0.9173
5183.00,0.9226
5182.00,0.9280
5181.00,0.9334
5180.00,0.9389
5179.00,0.9444
5178.00,0.9501
5177.00,0.9559
5176.00,0.9615
5175.00,0.9671
5174.00,0.9727
5173.00,0.9783
5172.00,0.9840
5171.00,0.9897
5170.00,0.9954
5169.00,1.0012
5168.00,1.0071
5167.00,1.0129
5166.00,1.0186
5165.00,1.0243
5164.00,1.0300
5163.00,1.0358
5162.00,1.0417
5161.00,1.0477
5160.00,1.0538
5159.00,1.0598
5158.00,1.0657
5157.00,1.0716
5156.00,1.0773
5155.00,1.0830
5154.00,1.0886
5153.00,1.0942
5152.00,1.0999
5151.00,1.1058
5150.00,1.1116
5149.00,1.1175
5148.00,1.1233
5147.00,1.1289
5146.00,1.1345
5145.00,1.1400
5144.00,1.1456
5143.00,1.1513
5142.00,1.1568
5141.00,1.1622
5140.00,1.1676
5139.00,1.1728
5138.00,1.1781
5137.00,1.1835
5136.00,1.1890
5135.00,1.1945
5134.00,1.1999
5133.00,1.2051
5132.00,1.2100
5131.00,1.2148
5130.00,1.2196
5129.00,1.2244
5128.00,1.2293
5127.00,1.2344
5126.00,1.2395
5125.00,1.2445
5124.00,1.2493
5123.00,1.2538
5122.00,1.2582
5121.00,1.2625
5120.00,1.2668
5119.00,1.2711
5118.00,1.2755
5117.00,1.2799
5116.00,1.2842
5115.00,1.2883
5114.00,1.2924
5113.00,1.2964
5112.00,1.3004
5111.00,1.3045
5110.00,1.3086
5109.00,1.3126
5108.00,1.3165
5107.00,1.3203
5106.00,1.3239
5105.00,1.3275
5104.00,1.3310
5103.00,1.3345
5102.00,1.3380
5101.00,1.3415
5100.00,1.3448
5099.00,1.3480
5098.00,1.3511
5097.00,1.3542
5096.00,1.3572
5095.00,1.3600
5094.00,1.3627
5093.00,1.3655
5092.00,1.3682
5091.00,1.3709
5090.00,1.3736
5089.00,1.3761
5088.00,1.3787
5087.00,1.3813
5086.00,1.3839
5085.00,1.3864
5084.00,1.3888
5083.00,1.3911
5082.00,1.3934
5081.00,1.3956
5080.00,1.3977
5079.00,1.3998
5078.00,1.4016
5077.00,1.4032
5076.00,1.4048
5075.00,1.4062
5074.00,1.4076
5073.00,1.4090
5072.00,1.4104
5071.00,1.4118
5070.00,1.4133
5069.00,1.4148
5068.00,1.4164
5067.00,1.4178
5066.00,1.4190
5065.00,1.4200
5064.00,1.4208
5063.00,1.4215
5062.00,1.4223
5061.00,1.4232
5060.00,1.4240
5059.00,1.4246
5058.00,1.4252
5057.00,1.4257
5056.00,1.4263
5055.00,1.4268
5054.00,1.4273
5053.00,1.4277
5052.00,1.4281
5051.00,1.4286
5050.00,1.4289
5049.00,1.4291
5048.00,1.4292
5047.00,1.4291
5046.00,1.4289
5045.00,1.4287
5044.00,1.4287
5043.00,1.4287
5042.00,1.4287
5041.00,1.4285
5040.00,1.4282
5039.00,1.4276
5038.00,1.4269
5037.00,1.4261
5036.00,1.4254
5035.00,1.4247
5034.00,1.4241
5033.00,1.4234
5032.00,1.4226
5031.00,1.4215
5030.00,1.4203
5029.00,1.4191
5028.00,1.4179
5027.00,1.4168
5026.00,1.4157
5025.00,1.4146
5024.00,1.4134
5023.00,1.4121
5022.00,1.4107
5021.00,1.4091
5020.00,1.4075
5019.00,1.4059
5018.00,1.4043
5017.00,1.4027
5016.00,1.4009
5015.00,1.3988
5014.00,1.3967
5013.00,1.3944
5012.00,1.3922
5011.00,1.3900
5010.00,1.3877
5009.00,1.3853
5008.00,1.3828
5007.00,1.3802
5006.00,1.3777
5005.00,1.3752
5004.00,1.3726
5003.00,1.3699
5002.00,1.3671
5001.00,1.3643
5000.00,1.3614
4999.00,1.3585
4998.00,1.3555
4997.00,1.3523
4996.00,1.3491
4995.00,1.3458
4994.00,1.3424
4993.00,1.3391
4992.00,1.3358
4991.00,1.3325
4990.00,1.3290
4989.00,1.3254
4988.00,1.3217
4987.00,1.3179
4986.00,1.3141
4985.00,1.3102
4984.00,1.3063
4983.00,1.3022
4982.00,1.2981
4981.00,1.2938
4980.00,1.2895
4979.00,1.2851
4978.00,1.2807
4977.00,1.2762
4976.00,1.2716
4975.00,1.2670
4974.00,1.2623
4973.00,1.2576
4972.00,1.2528
4971.00,1.2480
4970.00,1.2431
4969.00,1.2382
4968.00,1.2333
4967.00,1.2283
4966.00,1.2232
4965.00,1.2179
4964.00,1.2125
4963.00,1.2072
4962.00,1.2018
4961.00,1.1965
4960.00,1.1913
4959.00,1.1860
4958.00,1.1805
4957.00,1.1749
4956.00,1.1691
4955.00,1.1633
4954.00,1.1575
4953.00,1.1518
4952.00,1.1461
4951.00,1.1404
4950.00,1.1347
4949.00,1.1289
4948.00,1.1230
4947.00,1.1171
4946.00,1.1112
4945.00,1.1054
4944.00,1.0996
4943.00,1.0938
4942.00,1.0879
4941.00,1.0819
4940.00,1.0758
4939.00,1.0698
4938.00,1.0638
4937.00,1.0580
4936.00,1.0522
4935.00,1.0464
4934.00,1.0406
4933.00,1.0348
4932.00,1.0290
4931.00,1.0231
4930.00,1.0172
4929.00,1.0114
4928.00,1.0056
4927.00,0.9998
4926.00,0.9940
4925.00,0.9883
4924.00,0.9826
4923.00,0.9770
4922.00,0.9713
4921.00,0.9657
4920.00,0.9602
4919.00,0.9548
4918.00,0.9494
4917.00,0.9441
4916.00,0.9387
4915.00,0.9334
4914.00,0.9281
4913.00,0.9228
4912.00,0.9177
4911.00,0.9125
4910.00,0.9075
4909.00,0.9025
4908.00,0.8975
4907.00,0.8925
4906.00,0.8877
4905.00,0.8829
4904.00,0.8783
4903.00,0.8737
4902.00,0.8692
4901.00,0.8649
4900.00,0.8605
4899.00,0.8562
4898.00,0.8520
4897.00,0.8477
4896.00,0.8435
4895.00,0.8395
4894.00,0.8355
4893.00,0.8317
4892.00,0.8280
4891.00,0.8243
4890.00,0.8207
4889.00,0.8172
4888.00,0.8137
4887.00,0.8103
4886.00,0.8070
4885.00,0.8039
4884.00,0.8008
4883.00,0.7979
4882.00,0.7951
4881.00,0.7924
4880.00,0.7898
4879.00,0.7874
4878.00,0.7851
4877.00,0.7828
4876.00,0.7807
4875.00,0.7787
4874.00,0.7769
4873.00,0.7752
4872.00,0.7736
4871.00,0.7722
4870.00,0.7709
4869.00,0.7697
4868.00,0.7687
4867.00,0.7679
4866.00,0.7671
4865.00,0.7665
4864.00,0.7661
4863.00,0.7657
4862.00,0.7656
4861.00,0.7656
4860.00,0.7658
4859.00,0.7662
4858.00,0.7667
4857.00,0.7674
4856.00,0.7682
4855.00,0.7692
4854.00,0.7704
4853.00,0.7717
4852.00,0.7732
4851.00,0.7748
4850.00,0.7766
4849.00,0.7785
4848.00,0.7806
4847.00,0.7829
4846.00,0.7854
4845.00,0.7880
4844.00,0.7908
4843.00,0.7938
4842.00,0.7969
4841.00,0.8001
4840.00,0.8034
4839.00,0.8069
4838.00,0.8104
4837.00,0.8141
4836.00,0.8180
4835.00,0.8220
4834.00,0.8261
4833.00,0.8304
4832.00,0.8349
4831.00,0.8395
4830.00,0.8442
4829.00,0.8489
4828.00,0.8538
4827.00,0.8587
4826.00,0.8637
4825.00,0.8688
4824.00,0.8739
4823.00,0.8792
4822.00,0.8846
4821.00,0.8901
4820.00,0.8958
4819.00,0.9015
4818.00,0.9072
4817.00,0.9131
4816.00,0.9190
4815.00,0.9250
4814.00,0.9310
4813.00,0.9370
4812.00,0.9432
4811.00,0.9493
4810.00,0.9556
4809.00,0.9619
4808.00,0.9683
4807.00,0.9747
4806.00,0.9812
4805.00,0.9877
4804.00,0.9941
4803.00,1.0006
4802.00,1.0071
4801.00,1.0136
4800.00,1.0201
4799.00,1.0267
4798.00,1.0333
4797.00,1.0400
4796.00,1.0468
4795.00,1.0536
4794.00,1.0604
4793.00,1.0672
4792.00,1.0739
4791.00,1.0805
4790.00,1.0871
4789.00,1.0937
4788.00,1.1003
4787.00,1.1070
4786.00,1.1136
4785.00,1.1203
4784.00,1.1270
4783.00,1.1337
4782.00,1.1404
4781.00,1.1470
4780.00,1.1536
4779.00,1.1602
4778.00,1.1666
4777.00,1.1730
4776.00,1.1794
4775.00,1.1858
4774.00,1.1921
4773.00,1.1983
4772.00,1.2045
4771.00,1.2106
4770.00,1.2169
4769.00,1.2233
4768.00,1.2297
4767.00,1.2360
4766.00,1.2420
4765.00,1.2478
4764.00,1.2534
4763.00,1.2590
4762.00,1.2647
4761.00,1.2704
4760.00,1.2762
4759.00,1.2820
4758.00,1.2877
4757.00,1.2934
4756.00,1.2989
4755.00,1.3043
4754.00,1.3096
4753.00,1.3148
4752.00,1.3199
4751.00,1.3249
4750.00,1.3298
4749.00,1.3347
4748.00,1.3396
4747.00,1.3445
4746.00,1.3493
4745.00,1.3540
4744.00,1.3586
4743.00,1.3629
4742.00,1.3672
4741.00,1.3713
4740.00,1.3756
4739.00,1.3799
4738.00,1.3844
4737.00,1.3890
4736.00,1.3934
4735.00,1.3976
4734.00,1.4015
4733.00,1.4052
4732.00,1.4089
4731.00,1.4126
4730.00,1.4163
4729.00,1.4199
4728.00,1.4235
4727.00,1.4271
4726.00,1.4305
4725.00,1.4339
4724.00,1.4371
4723.00,1.4401
4722.00,1.4431
4721.00,1.4462
4720.00,1.4493
4719.00,1.4525
4718.00,1.4557
4717.00,1.4586
4716.00,1.4613
4715.00,1.4639
4714.00,1.4664
4713.00,1.4689
4712.00,1.4713
4711.00,1.4737
4710.00,1.4758
4709.00,1.4780
4708.00,1.4801
4707.00,1.4822
4706.00,1.4844
4705.00,1.4865
4704.00,1.4886
4703.00,1.4905
4702.00,1.4923
4701.00,1.4939
4700.00,1.4955
4699.00,1.4970
4698.00,1.4987
4697.00,1.5004
4696.00,1.5020
4695.00,1.5035
4694.00,1.5049
4693.00,1.5062
4692.00,1.5075
4691.00,1.5089
4690.00,1.5102
4689.00,1.5115
4688.00,1.5126
4687.00,1.5134
4686.00,1.5140
4685.00,1.5145
4684.00,1.5152
4683.00,1.5159
4682.00,1.5166
4681.00,1.5173
4680.00,1.5178
4679.00,1.5183
4678.00,1.5188
4677.00,1.5193
4676.00,1.5197
4675.00,1.5199
4674.00,1.5198
4673.00,1.5197
4672.00,1.5195
4671.00,1.5193
4670.00,1.5190
4669.00,1.5186
4668.00,1.5182
4667.00,1.5178
4666.00,1.5174
4665.00,1.5171
4664.00,1.5168
4663.00,1.5164
4662.00,1.5159
4661.00,1.5150
4660.00,1.5140
4659.00,1.5129
4658.00,1.5119
4657.00,1.5109
4656.00,1.5101
4655.00,1.5092
4654.00,1.5082
4653.00,1.5071
4652.00,1.5058
4651.00,1.5042
4650.00,1.5026
4649.00,1.5009
4648.00,1.4994
4647.00,1.4978
4646.00,1.4963
4645.00,1.4947
4644.00,1.4930
4643.00,1.4912
4642.00,1.4893
4641.00,1.4873
4640.00,1.4851
4639.00,1.4829
4638.00,1.4806
4637.00,1.4783
4636.00,1.4761
4635.00,1.4738
4634.00,1.4714
4633.00,1.4689
4632.00,1.4662
4631.00,1.4633
4630.00,1.4603
4629.00,1.4574
4628.00,1.4545
4627.00,1.4518
4626.00,1.4490
4625.00,1.4461
4624.00,1.4430
4623.00,1.4397
4622.00,1.4363
4621.00,1.4328
4620.00,1.4293
4619.00,1.4258
4618.00,1.4222
4617.00,1.4185
4616.00,1.4148
4615.00,1.4110
4614.00,1.4071
4613.00,1.4031
4612.00,1.3991
4611.00,1.3951
4610.00,1.3910
4609.00,1.3869
4608.00,1.3827
4607.00,1.3783
4606.00,1.3736
4605.00,1.3688
4604.00,1.3639
4603.00,1.3590
4602.00,1.3542
4601.00,1.3495
4600.00,1.3446
4599.00,1.3397
4598.00,1.3346
4597.00,1.3293
4596.00,1.3240
4595.00,1.3187
4594.00,1.3133
4593.00,1.3078
4592.00,1.3022
4591.00,1.2965
4590.00,1.2907
4589.00,1.2849
4588.00,1.2791
4587.00,1.2732
4586.00,1.2672
4585.00,1.2611
4584.00,1.2549
4583.00,1.2487
4582.00,1.2424
4581.00,1.2362
4580.00,1.2299
4579.00,1.2234
4578.00,1.2169
4577.00,1.2103
4576.00,1.2036
4575.00,1.1970
4574.00,1.1905
4573.00,1.1839
4572.00,1.1773
4571.00,1.1706
4570.00,1.1637
4569.00,1.1568
4568.00,1.1499
4567.00,1.1430
4566.00,1.1361
4565.00,1.1293
4564.00,1.1224
4563.00,1.1154
4562.00,1.1085
4561.00,1.1016
4560.00,1.0947
4559.00,1.0879
4558.00,1.0811
4557.00,1.0743
4556.00,1.0674
4555.00,1.0606
4554.00,1.0537
4553.00,1.0470
4552.00,1.0402
4551.00,1.0335
4550.00,1.0268
4549.00,1.0202
4548.00,1.0136
4547.00,1.0070
4546.00,1.0005
4545.00,0.9941
4544.00,0.9877
4543.00,0.9813
4542.00,0.9750
4541.00,0.9687
4540.00,0.9624
4539.00,0.9562
4538.00,0.9501
4537.00,0.9441
4536.00,0.9381
4535.00,0.9321
4534.00,0.9262
4533.00,0.9204
4532.00,0.9147
4531.00,0.9092
4530.00,0.9037
4529.00,0.8982
4528.00,0.8927
4527.00,0.8873
4526.00,0.8819
4525.00,0.8767
4524.00,0.8716
4523.00,0.8665
4522.00,0.8616
4521.00,0.8567
4520.00,0.8519
4519.00,0.8471
4518.00,0.8426
4517.00,0.8382
4516.00,0.8339
4515.00,0.8297
4514.00,0.8256
4513.00,0.8216
4512.00,0.8177
4511.00,0.8139
4510.00,0.8102
4509.00,0.8066
4508.00,0.8032
4507.00,0.7999
4506.00,0.7968
4505.00,0.7938
4504.00,0.7910
4503.00,0.7883
4502.00,0.7858
4501.00,0.7835
4500.00,0.7813
4499.00,0.7792
4498.00,0.7773
4497.00,0.7756
4496.00,0.7741
4495.00,0.7728
4494.00,0.7717
4493.00,0.7707
4492.00,0.7700
4491.00,0.7694
4490.00,0.7690
4489.00,0.7688
4488.00,0.7688
4487.00,0.7690
4486.00,0.7694
4485.00,0.7700
4484.00,0.7708
4483.00,0.7719
4482.00,0.7731
4481.00,0.7746
4480.00,0.7762
4479.00,0.7781
4478.00,0.7801
4477.00,0.7824
4476.00,0.7848
4475.00,0.7875
4474.00,0.7904
4473.00,0.7935
4472.00,0.7967
4471.00,0.8002
4470.00,0.8038
4469.00,0.8077
4468.00,0.8116
4467.00,0.8158
4466.00,0.8201
4465.00,0.8246
4464.00,0.8293
4463.00,0.8341
4462.00,0.8391
4461.00,0.8443
4460.00,0.8496
4459.00,0.8550
4458.00,0.8605
4457.00,0.8662
4456.00,0.8720
4455.00,0.8780
4454.00,0.8841
4453.00,0.8903
4452.00,0.8966
4451.00,0.9029
4450.00,0.9094
4449.00,0.9159
4448.00,0.9226
4447.00,0.9295
4446.00,0.9364
4445.00,0.9434
4444.00,0.9505
4443.00,0.9576
4442.00,0.9648
4441.00,0.9722
4440.00,0.9795
4439.00,0.9869
4438.00,0.9943
4437.00,1.0018
4436.00,1.0094
4435.00,1.0170
4434.00,1.0247
4433.00,1.0325
4432.00,1.0402
4431.00,1.0479
4430.00,1.0558
4429.00,1.0638
4428.00,1.0718
4427.00,1.0798
4426.00,1.0877
4425.00,1.0956
4424.00,1.1034
4423.00,1.1113
4422.00,1.1193
4421.00,1.1273
4420.00,1.1353
4419.00,1.1432
4418.00,1.1510
4417.00,1.1589
4416.00,1.1667
4415.00,1.1745
4414.00,1.1824
4413.00,1.1903
4412.00,1.1982
4411.00,1.2061
4410.00,1.2140
4409.00,1.2217
4408.00,1.2294
4407.00,1.2370
4406.00,1.2445
4405.00,1.2519
4404.00,1.2593
4403.00,1.2667
4402.00,1.2741
4401.00,1.2815
4400.00,1.2888
4399.00,1.2961
4398.00,1.3033
4397.00,1.3104
4396.00,1.3173
4395.00,1.3240
4394.00,1.3306
4393.00,1.3371
4392.00,1.3437
4391.00,1.3503
4390.00,1.3568
4389.00,1.3632
4388.00,1.3694
4387.00,1.3755
4386.00,1.3816
4385.00,1.3876
4384.00,1.3937
4383.00,1.3997
4382.00,1.4057
4381.00,1.4115
4380.00,1.4171
4379.00,1.4226
4378.00,1.4281
4377.00,1.4334
4376.00,1.4388
4375.00,1.4440
4374.00,1.4491
4373.00,1.4540
4372.00,1.4588
4371.00,1.4635
4370.00,1.4680
4369.00,1.4725
4368.00,1.4770
4367.00,1.4815
4366.00,1.4858
4365.00,1.4900
4364.00,1.4942
4363.00,1.4983
4362.00,1.5024
4361.00,1.5065
4360.00,1.5105
4359.00,1.5145
4358.00,1.5183
4357.00,1.5222
4356.00,1.5259
4355.00,1.5295
4354.00,1.5330
4353.00,1.5363
4352.00,1.5397
4351.00,1.5430
4350.00,1.5462
4349.00,1.5494
4348.00,1.5525
4347.00,1.5557
4346.00,1.5588
4345.00,1.5619
4344.00,1.5648
4343.00,1.5675
4342.00,1.5701
4341.00,1.5727
4340.00,1.5753
4339.00,1.5780
4338.00,1.5807
4337.00,1.5834
4336.00,1.5859
4335.00,1.5885
4334.00,1.5909
4333.00,1.5933
4332.00,1.5956
4331.00,1.5975
4330.00,1.5993
4329.00,1.6010
4328.00,1.6028
4327.00,1.6047
4326.00,1.6066
4325.00,1.6084
4324.00,1.6103
4323.00,1.6121
4322.00,1.6137
4321.00,1.6153
4320.00,1.6167
4319.00,1.6180
4318.00,1.6191
4317.00,1.6203
4316.00,1.6215
4315.00,1.6227
4314.00,1.6238
4313.00,1.6251
4312.00,1.6263
4311.00,1.6274
4310.00,1.6283
4309.00,1.6290
4308.00,1.6297
4307.00,1.6303
4306.00,1.6309
4305.00,1.6313
4304.00,1.6317
4303.00,1.6320
4302.00,1.6325
4301.00,1.6329
4300.00,1.6332
4299.00,1.6333
4298.00,1.6331
4297.00,1.6328
4296.00,1.6327
4295.00,1.6327
4294.00,1.6330
4293.00,1.6332
4292.00,1.6332
4291.00,1.6328
4290.00,1.6321
4289.00,1.6315
4288.00,1.6311
4287.00,1.6308
4286.00,1.6304
4285.00,1.6299
4284.00,1.6292
4283.00,1.6284
4282.00,1.6275
4281.00,1.6265
4280.00,1.6255
4279.00,1.6245
4278.00,1.6234
4277.00,1.6223
4276.00,1.6213
4275.00,1.6202
4274.00,1.6190
4273.00,1.6176
4272.00,1.6162
4271.00,1.6146
4270.00,1.6128
4269.00,1.6109
4268.00,1.6090
4267.00,1.6072
4266.00,1.6052
4265.00,1.6032
4264.00,1.6010
4263.00,1.5988
4262.00,1.5966
4261.00,1.5943
4260.00,1.5920
4259.00,1.5895
4258.00,1.5870
4257.00,1.5844
4256.00,1.5820
4255.00,1.5794
4254.00,1.5767
4253.00,1.5738
4252.00,1.5707
4251.00,1.5676
4250.00,1.5645
4249.00,1.5613
4248.00,1.5580
4247.00,1.5545
4246.00,1.5509
4245.00,1.5473
4244.00,1.5436
4243.00,1.5399
4242.00,1.5362
4241.00,1.5323
4240.00,1.5283
4239.00,1.5244
4238.00,1.5205
4237.00,1.5164
4236.00,1.5122
4235.00,1.5078
4234.00,1.5033
4233.00,1.4988
4232.00,1.4944
4231.00,1.4899
4230.00,1.4853
4229.00,1.4805
4228.00,1.4757
4227.00,1.4707
4226.00,1.4657
4225.00,1.4606
4224.00,1.4555
4223.00,1.4503
4222.00,1.4450
4221.00,1.4396
4220.00,1.4341
4219.00,1.4285
4218.00,1.4228
4217.00,1.4171
4216.00,1.4115
4215.00,1.4057
4214.00,1.3999
4213.00,1.3939
4212.00,1.3877
4211.00,1.3813
4210.00,1.3748
4209.00,1.3682
4208.00,1.3616
4207.00,1.3549
4206.00,1.3481
4205.00,1.3412
4204.00,1.3342
4203.00,1.3273
4202.00,1.3203
4201.00,1.3132
4200.00,1.3060
4199.00,1.2987
4198.00,1.2912
4197.00,1.2836
4196.00,1.2760
4195.00,1.2684
4194.00,1.2609
4193.00,1.2534
4192.00,1.2459
4191.00,1.2383
4190.00,1.2306
4189.00,1.2230
4188.00,1.2153
4187.00,1.2076
4186.00,1.1999
4185.00,1.1922
4184.00,1.1845
4183.00,1.1768
4182.00,1.1691
4181.00,1.1614
4180.00,1.1536
4179.00,1.1459
4178.00,1.1381
4177.00,1.1304
4176.00,1.1227
4175.00,1.1151
4174.00,1.1074
4173.00,1.0998
4172.00,1.0923
4171.00,1.0848
4170.00,1.0774
4169.00,1.0700
4168.00,1.0626
4167.00,1.0553
4166.00,1.0479
4165.00,1.0407
4164.00,1.0335
4163.00,1.0265
4162.00,1.0194
4161.00,1.0125
4160.00,1.0057
4159.00,0.9989
4158.00,0.9922
4157.00,0.9854
4156.00,0.9787
4155.00,0.9721
4154.00,0.9657
4153.00,0.9593
4152.00,0.9532
4151.00,0.9471
4150.00,0.9410
4149.00,0.9350
4148.00,0.9291
4147.00,0.9233
4146.00,0.9175
4145.00,0.9119
4144.00,0.9063
4143.00,0.9009
4142.00,0.8955
4141.00,0.8903
4140.00,0.8852
4139.00,0.8802
4138.00,0.8754
4137.00,0.8707
4136.00,0.8661
4135.00,0.8618
4134.00,0.8576
4133.00,0.8535
4132.00,0.8496
4131.00,0.8459
4130.00,0.8424
4129.00,0.8391
4128.00,0.8360
4127.00,0.8332
4126.00,0.8304
4125.00,0.8278
4124.00,0.8254
4123.00,0.8232
4122.00,0.8211
4121.00,0.8193
4120.00,0.8177
4119.00,0.8164
4118.00,0.8153
4117.00,0.8144
4116.00,0.8138
4115.00,0.8134
4114.00,0.8132
4113.00,0.8133
4112.00,0.8136
4111.00,0.8142
4110.00,0.8151
4109.00,0.8163
4108.00,0.8177
4107.00,0.8193
4106.00,0.8211
4105.00,0.8232
4104.00,0.8255
4103.00,0.8281
4102.00,0.8309
4101.00,0.8339
4100.00,0.8373
4099.00,0.8408
4098.00,0.8446
4097.00,0.8486
4096.00,0.8529
4095.00,0.8574
4094.00,0.8621
4093.00,0.8671
4092.00,0.8723
4091.00,0.8777
4090.00,0.8833
4089.00,0.8891
4088.00,0.8951
4087.00,0.9012
4086.00,0.9074
4085.00,0.9138
4084.00,0.9204
4083.00,0.9271
4082.00,0.9340
4081.00,0.9410
4080.00,0.9481
4079.00,0.9554
4078.00,0.9627
4077.00,0.9701
4076.00,0.9775
4075.00,0.9851
4074.00,0.9929
4073.00,1.0007
4072.00,1.0087
4071.00,1.0167
4070.00,1.0248
4069.00,1.0330
4068.00,1.0413
4067.00,1.0497
4066.00,1.0582
4065.00,1.0667
4064.00,1.0753
4063.00,1.0840
4062.00,1.0928
4061.00,1.1017
4060.00,1.1107
4059.00,1.1197
4058.00,1.1287
4057.00,1.1377
4056.00,1.1467
4055.00,1.1558
4054.00,1.1650
4053.00,1.1743
4052.00,1.1835
4051.00,1.1927
4050.00,1.2018
4049.00,1.2108
4048.00,1.2198
4047.00,1.2288
4046.00,1.2378
4045.00,1.2468
4044.00,1.2557
4043.00,1.2645
4042.00,1.2733
4041.00,1.2821
4040.00,1.2908
4039.00,1.2995
4038.00,1.3082
4037.00,1.3168
4036.00,1.3253
4035.00,1.3338
4034.00,1.3422
4033.00,1.3505
4032.00,1.3587
4031.00,1.3669
4030.00,1.3750
4029.00,1.3832
4028.00,1.3914
4027.00,1.3994
4026.00,1.4073
4025.00,1.4151
4024.00,1.4228
4023.00,1.4303
4022.00,1.4377
4021.00,1.4451
4020.00,1.4524
4019.00,1.4596
4018.00,1.4667
4017.00,1.4738
4016.00,1.4808
4015.00,1.4878
4014.00,1.4947
4013.00,1.5013
4012.00,1.5078
4011.00,1.5141
4010.00,1.5203
4009.00,1.5263
4008.00,1.5322
4007.00,1.5381
4006.00,1.5441
4005.00,1.5501
4004.00,1.5560
4003.00,1.5617
4002.00,1.5673
4001.00,1.5728
4000.00,1.5782
3999.00,1.5834
3998.00,1.5886
3997.00,1.5937
3996.00,1.5988
3995.00,1.6038
3994.00,1.6087
3993.00,1.6136
3992.00,1.6183
3991.00,1.6230
3990.00,1.6275
3989.00,1.6320
3988.00,1.6365
3987.00,1.6410
3986.00,1.6455
3985.00,1.6499
3984.00,1.6542
3983.00,1.6585
3982.00,1.6626
3981.00,1.6666
3980.00,1.6706
3979.00,1.6746
3978.00,1.6785
3977.00,1.6822
3976.00,1.6856
3975.00,1.6889
3974.00,1.6921
3973.00,1.6952
3972.00,1.6981
3971.00,1.7009
3970.00,1.7038
3969.00,1.7069
3968.00,1.7099
3967.00,1.7129
3966.00,1.7159
3965.00,1.7188
3964.00,1.7215
3963.00,1.7241
3962.00,1.7266
3961.00,1.7289
3960.00,1.7311
3959.00,1.7334
3958.00,1.7357
3957.00,1.7380
3956.00,1.7403
3955.00,1.7426
3954.00,1.7447
3953.00,1.7468
3952.00,1.7487
3951.00,1.7504
3950.00,1.7520
3949.00,1.7535
3948.00,1.7550
3947.00,1.7565
3946.00,1.7580
3945.00,1.7593
3944.00,1.7606
3943.00,1.7618
3942.00,1.7630
3941.00,1.7641
3940.00,1.7651
3939.00,1.7661
3938.00,1.7671
3937.00,1.7681
3936.00,1.7690
3935.00,1.7696
3934.00,1.7700
3933.00,1.7703
3932.00,1.7706
3931.00,1.7712
3930.00,1.7720
3929.00,1.7728
3928.00,1.7733
3927.00,1.7735
3926.00,1.7736
3925.00,1.7739
3924.00,1.7742
3923.00,1.7744
3922.00,1.7743
3921.00,1.7737
3920.00,1.7732
3919.00,1.7730
3918.00,1.7730
3917.00,1.7728
3916.00,1.7724
3915.00,1.7719
3914.00,1.7712
3913.00,1.7705
3912.00,1.7697
3911.00,1.7690
3910.00,1.7683
3909.00,1.7674
3908.00,1.7663
3907.00,1.7650
3906.00,1.7637
3905.00,1.7626
3904.00,1.7616
3903.00,1.7607
3902.00,1.7596
3901.00,1.7583
3900.00,1.7569
3899.00,1.7556
3898.00,1.7544
3897.00,1.7530
3896.00,1.7513
3895.00,1.7492
3894.00,1.7469
3893.00,1.7443
3892.00,1.7416
3891.00,1.7391
3890.00,1.7371
3889.00,1.7353
3888.00,1.7333
3887.00,1.7308
3886.00,1.7281
3885.00,1.7254
3884.00,1.7228
3883.00,1.7203
3882.00,1.7175
3881.00,1.7141
3880.00,1.7107
3879.00,1.7075
3878.00,1.7047
3877.00,1.7021
3876.00,1.6991
3875.00,1.6959
3874.00,1.6924
3873.00,1.6888
3872.00,1.6849
3871.00,1.6807
3870.00,1.6764
3869.00,1.6722
3868.00,1.6683
3867.00,1.6647
3866.00,1.6607
3865.00,1.6564
3864.00,1.6518
3863.00,1.6473
3862.00,1.6430
3861.00,1.6388
3860.00,1.6344
3859.00,1.6299
3858.00,1.6253
3857.00,1.6206
3856.00,1.6156
3855.00,1.6102
3854.00,1.6043
3853.00,1.5985
3852.00,1.5934
3851.00,1.5890
3850.00,1.5843
3849.00,1.5785
3848.00,1.5721
3847.00,1.5653
3846.00,1.5586
3845.00,1.5520
3844.00,1.5455
3843.00,1.5389
3842.00,1.5324
3841.00,1.5257
3840.00,1.5187
3839.00,1.5115
3838.00,1.5041
3837.00,1.4968
3836.00,1.4894
3835.00,1.4822
3834.00,1.4748
3833.00,1.4674
3832.00,1.4598
3831.00,1.4522
3830.00,1.4446
3829.00,1.4368
3828.00,1.4286
3827.00,1.4201
3826.00,1.4115
3825.00,1.4029
3824.00,1.3941
3823.00,1.3851
3822.00,1.3759
3821.00,1.3669
3820.00,1.3584
3819.00,1.3505
3818.00,1.3422
3817.00,1.3328
3816.00,1.3228
3815.00,1.3129
3814.00,1.3037
3813.00,1.2951
3812.00,1.2866
3811.00,1.2777
3810.00,1.2683
3809.00,1.2586
3808.00,1.2486
3807.00,1.2387
3806.00,1.2293
3805.00,1.2204
3804.00,1.2115
3803.00,1.2020
3802.00,1.1918
3801.00,1.1813
3800.00,1.1714
3799.00,1.1622
3798.00,1.1533
3797.00,1.1441
3796.00,1.1348
3795.00,1.1255
3794.00,1.1166
3793.00,1.1081
3792.00,1.0997
3791.00,1.0912
3790.00,1.0827
3789.00,1.0741
3788.00,1.0656
3787.00,1.0572
3786.00,1.0489
3785.00,1.0406
3784.00,1.0324
3783.00,1.0244
3782.00,1.0166
3781.00,1.0088
3780.00,1.0011
3779.00,0.9934
3778.00,0.9858
3777.00,0.9785
3776.00,0.9713
3775.00,0.9643
3774.00,0.9576
3773.00,0.9512
3772.00,0.9450
3771.00,0.9388
3770.00,0.9324
3769.00,0.9260
3768.00,0.9198
3767.00,0.9139
3766.00,0.9081
3765.00,0.9023
3764.00,0.8968
3763.00,0.8916
3762.00,0.8870
3761.00,0.8825
3760.00,0.8780
3759.00,0.8735
3758.00,0.8689
3757.00,0.8645
3756.00,0.8607
3755.00,0.8578
3754.00,0.8557
3753.00,0.8541
3752.00,0.8523
3751.00,0.8499
3750.00,0.8467
3749.00,0.8433
3748.00,0.8406
3747.00,0.8394
3746.00,0.8394
3745.00,0.8398
3744.00,0.8395
3743.00,0.8384
3742.00,0.8378
3741.00,0.8384
3740.00,0.8397
3739.00,0.8415
3738.00,0.8437
3737.00,0.8465
3736.00,0.8498
3735.00,0.8533
3734.00,0.8569
3733.00,0.8607
3732.00,0.8645
3731.00,0.8687
3730.00,0.8732
3729.00,0.8781
3728.00,0.8835
3727.00,0.8895
3726.00,0.8959
3725.00,0.9025
3724.00,0.9092
3723.00,0.9161
3722.00,0.9231
3721.00,0.9303
3720.00,0.9376
3719.00,0.9451
3718.00,0.9529
3717.00,0.9611
3716.00,0.9696
3715.00,0.9782
3714.00,0.9871
3713.00,0.9966
3712.00,1.0068
3711.00,1.0176
3710.00,1.0284
3709.00,1.0389
3708.00,1.0488
3707.00,1.0586
3706.00,1.0684
3705.00,1.0782
3704.00,1.0882
3703.00,1.0986
3702.00,1.1096
3701.00,1.1213
3700.00,1.1331
3699.00,1.1448
3698.00,1.1559
3697.00,1.1669
3696.00,1.1779
3695.00,1.1889
3694.00,1.1996
3693.00,1.2103
3692.00,1.2211
3691.00,1.2322
3690.00,1.2439
3689.00,1.2566
3688.00,1.2701
3687.00,1.2836
3686.00,1.2962
3685.00,1.3078
3684.00,1.3185
3683.00,1.3287
3682.00,1.3386
3681.00,1.3488
3680.00,1.3592
3679.00,1.3696
3678.00,1.3796
3677.00,1.3897
3676.00,1.4008
3675.00,1.4133
3674.00,1.4264
3673.00,1.4387
3672.00,1.4495
3671.00,1.4595
3670.00,1.4695
3669.00,1.4800
3668.00,1.4909
3667.00,1.5015
3666.00,1.5114
3665.00,1.5207
3664.00,1.5295
3663.00,1.5381
3662.00,1.5464
3661.00,1.5549
3660.00,1.5635
3659.00,1.5718
3658.00,1.5798
3657.00,1.5879
3656.00,1.5964
3655.00,1.6053
3654.00,1.6139
3653.00,1.6218
3652.00,1.6289
3651.00,1.6356
3650.00,1.6427
3649.00,1.6505
3648.00,1.6590
3647.00,1.6674
3646.00,1.6750
3645.00,1.6820
3644.00,1.6886
3643.00,1.6949
3642.00,1.7007
3641.00,1.7065
3640.00,1.7124
3639.00,1.7185
3638.00,1.7246
3637.00,1.7307
3636.00,1.7369
3635.00,1.7429
3634.00,1.7486
3633.00,1.7541
3632.00,1.7596
3631.00,1.7648
3630.00,1.7699
3629.00,1.7755
3628.00,1.7819
3627.00,1.7887
3626.00,1.7948
3625.00,1.7999
3624.00,1.8041
3623.00,1.8075
3622.00,1.8106
3621.00,1.8140
3620.00,1.8182
3619.00,1.8230
3618.00,1.8279
3617.00,1.8326
3616.00,1.8370
3615.00,1.8407
3614.00,1.8441
3613.00,1.8473
3612.00,1.8506
3611.00,1.8538
3610.00,1.8572
3609.00,1.8611
3608.00,1.8656
3607.00,1.8701
3606.00,1.8741
3605.00,1.8777
3604.00,1.8809
3603.00,1.8837
3602.00,1.8863
3601.00,1.8889
3600.00,1.8918
3599.00,1.8947
3598.00,1.8971
3597.00,1.8992
3596.00,1.9015
3595.00,1.9039
3594.00,1.9066
3593.00,1.9097
3592.00,1.9129
3591.00,1.9158
3590.00,1.9180
3589.00,1.9198
3588.00,1.9216
3587.00,1.9237
3586.00,1.9261
3585.00,1.9287
3584.00,1.9312
3583.00,1.9332
3582.00,1.9347
3581.00,1.9361
3580.00,1.9376
3579.00,1.9392
3578.00,1.9409
3577.00,1.9426
3576.00,1.9442
3575.00,1.9456
3574.00,1.9468
3573.00,1.9483
3572.00,1.9498
3571.00,1.9512
3570.00,1.9521
3569.00,1.9528
3568.00,1.9536
3567.00,1.9545
3566.00,1.9554
3565.00,1.9565
3564.00,1.9575
3563.00,1.9582
3562.00,1.9583
3561.00,1.9583
3560.00,1.9584
3559.00,1.9584
3558.00,1.9586
3557.00,1.9591
3556.00,1.9600
3555.00,1.9607
3554.00,1.9610
3553.00,1.9610
3552.00,1.9608
3551.00,1.9604
3550.00,1.9600
3549.00,1.9598
3548.00,1.9598
3547.00,1.9597
3546.00,1.9592
3545.00,1.9586
3544.00,1.9581
3543.00,1.9575
3542.00,1.9568
3541.00,1.9563
3540.00,1.9559
3539.00,1.9555
3538.00,1.9547
3537.00,1.9538
3536.00,1.9527
3535.00,1.9516
3534.00,1.9503
3533.00,1.9490
3532.00,1.9476
3531.00,1.9462
3530.00,1.9449
3529.00,1.9438
3528.00,1.9426
3527.00,1.9410
3526.00,1.9387
3525.00,1.9363
3524.00,1.9342
3523.00,1.9325
3522.00,1.9308
3521.00,1.9289
3520.00,1.9267
3519.00,1.9243
3518.00,1.9219
3517.00,1.9198
3516.00,1.9180
3515.00,1.9162
3514.00,1.9140
3513.00,1.9117
3512.00,1.9091
3511.00,1.9061
3510.00,1.9028
3509.00,1.8995
3508.00,1.8963
3507.00,1.8931
3506.00,1.8898
3505.00,1.8864
3504.00,1.8831
3503.00,1.8798
3502.00,1.8764
3501.00,1.8730
3500.00,1.8695
3499.00,1.8658
3498.00,1.8620
3497.00,1.8582
3496.00,1.8545
3495.00,1.8507
3494.00,1.8464
3493.00,1.8419
3492.00,1.8372
3491.00,1.8324
3490.00,1.8276
3489.00,1.8230
3488.00,1.8185
3487.00,1.8138
3486.00,1.8087
3485.00,1.8033
3484.00,1.7978
3483.00,1.7922
3482.00,1.7865
3481.00,1.7809
3480.00,1.7756
3479.00,1.7702
3478.00,1.7646
3477.00,1.7588
3476.00,1.7528
3475.00,1.7466
3474.00,1.7402
3473.00,1.7338
3472.00,1.7274
3471.00,1.7208
3470.00,1.7140
3469.00,1.7069
3468.00,1.6998
3467.00,1.6926
3466.00,1.6854
3465.00,1.6781
3464.00,1.6706
3463.00,1.6629
3462.00,1.6550
3461.00,1.6471
3460.00,1.6392
3459.00,1.6310
3458.00,1.6226
3457.00,1.6141
3456.00,1.6055
3455.00,1.5968
3454.00,1.5881
3453.00,1.5793
3452.00,1.5705
3451.00,1.5616
3450.00,1.5525
3449.00,1.5432
3448.00,1.5337
3447.00,1.5240
3446.00,1.5142
3445.00,1.5044
3444.00,1.4947
3443.00,1.4850
3442.00,1.4753
3441.00,1.4655
3440.00,1.4557
3439.00,1.4459
3438.00,1.4359
3437.00,1.4259
3436.00,1.4159
3435.00,1.4062
3434.00,1.3966
3433.00,1.3871
3432.00,1.3778
3431.00,1.3685
3430.00,1.3593
3429.00,1.3502
3428.00,1.3414
3427.00,1.3328
3426.00,1.3245
3425.00,1.3166
3424.00,1.3089
3423.00,1.3015
3422.00,1.2945
3421.00,1.2879
3420.00,1.2816
3419.00,1.2757
3418.00,1.2702
3417.00,1.2652
3416.00,1.2605
3415.00,1.2563
3414.00,1.2524
3413.00,1.2486
3412.00,1.2449
3411.00,1.2413
3410.00,1.2377
3409.00,1.2341
3408.00,1.2304
3407.00,1.2264
3406.00,1.2219
3405.00,1.2168
3404.00,1.2112
3403.00,1.2049
3402.00,1.1980
3401.00,1.1906
3400.00,1.1826
3399.00,1.1742
3398.00,1.1654
3397.00,1.1563
3396.00,1.1471
3395.00,1.1378
3394.00,1.1284
3393.00,1.1192
3392.00,1.1101
3391.00,1.1013
3390.00,1.0929
3389.00,1.0848
3388.00,1.0771
3387.00,1.0698
3386.00,1.0629
3385.00,1.0562
3384.00,1.0499
3383.00,1.0440
3382.00,1.0384
3381.00,1.0333
3380.00,1.0287
3379.00,1.0246
3378.00,1.0209
3377.00,1.0175
3376.00,1.0147
3375.00,1.0123
3374.00,1.0104
3373.00,1.0090
3372.00,1.0082
3371.00,1.0078
3370.00,1.0078
3369.00,1.0082
3368.00,1.0090
3367.00,1.0103
3366.00,1.0120
3365.00,1.0142
3364.00,1.0168
3363.00,1.0199
3362.00,1.0233
3361.00,1.0271
3360.00,1.0313
3359.00,1.0358
3358.00,1.0408
3357.00,1.0462
3356.00,1.0520
3355.00,1.0580
3354.00,1.0644
3353.00,1.0710
3352.00,1.0780
3351.00,1.0852
3350.00,1.0927
3349.00,1.1004
3348.00,1.1085
3347.00,1.1168
3346.00,1.1253
3345.00,1.1340
3344.00,1.1429
3343.00,1.1520
3342.00,1.1613
3341.00,1.1708
3340.00,1.1804
3339.00,1.1902
3338.00,1.2000
3337.00,1.2101
3336.00,1.2204
3335.00,1.2309
3334.00,1.2415
3333.00,1.2522
3332.00,1.2630
3331.00,1.2739
3330.00,1.2850
3329.00,1.2960
3328.00,1.3071
3327.00,1.3182
3326.00,1.3293
3325.00,1.3406
3324.00,1.3520
3323.00,1.3635
3322.00,1.3751
3321.00,1.3866
3320.00,1.3980
3319.00,1.4095
3318.00,1.4211
3317.00,1.4326
3316.00,1.4441
3315.00,1.4556
3314.00,1.4671
3313.00,1.4785
3312.00,1.4899
3311.00,1.5011
3310.00,1.5123
3309.00,1.5235
3308.00,1.5347
3307.00,1.5458
3306.00,1.5568
3305.00,1.5677
3304.00,1.5786
3303.00,1.5893
3302.00,1.5999
3301.00,1.6103
3300.00,1.6206
3299.00,1.6307
3298.00,1.6408
3297.00,1.6507
3296.00,1.6606
3295.00,1.6704
3294.00,1.6799
3293.00,1.6893
3292.00,1.6988
3291.00,1.7082
3290.00,1.7174
3289.00,1.7264
3288.00,1.7352
3287.00,1.7438
3286.00,1.7523
3285.00,1.7607
3284.00,1.7691
3283.00,1.7773
3282.00,1.7852
3281.00,1.7929
3280.00,1.8005
3279.00,1.8083
3278.00,1.8161
3277.00,1.8239
3276.00,1.8314
3275.00,1.8385
3274.00,1.8453
3273.00,1.8521
3272.00,1.8589
3271.00,1.8656
3270.00,1.8723
3269.00,1.8790
3268.00,1.8856
3267.00,1.8919
3266.00,1.8980
3265.00,1.9040
3264.00,1.9100
3263.00,1.9159
3262.00,1.9215
3261.00,1.9270
3260.00,1.9325
3259.00,1.9380
3258.00,1.9432
3257.00,1.9481
3256.00,1.9530
3255.00,1.9578
3254.00,1.9628
3253.00,1.9679
3252.00,1.9732
3251.00,1.9782
3250.00,1.9829
3249.00,1.9874
3248.00,1.9919
3247.00,1.9962
3246.00,2.0003
3245.00,2.0043
3244.00,2.0083
3243.00,2.0122
3242.00,2.0162
3241.00,2.0203
3240.00,2.0248
3239.00,2.0291
3238.00,2.0332
3237.00,2.0372
3236.00,2.0409
3235.00,2.0444
3234.00,2.0475
3233.00,2.0503
3232.00,2.0529
3231.00,2.0553
3230.00,2.0576
3229.00,2.0603
3228.00,2.0633
3227.00,2.0664
3226.00,2.0693
3225.00,2.0722
3224.00,2.0750
3223.00,2.0776
3222.00,2.0801
3221.00,2.0824
3220.00,2.0846
3219.00,2.0868
3218.00,2.0888
3217.00,2.0907
3216.00,2.0923
3215.00,2.0937
3214.00,2.0952
3213.00,2.0971
3212.00,2.0994
3211.00,2.1016
3210.00,2.1036
3209.00,2.1055
3208.00,2.1074
3207.00,2.1091
3206.00,2.1105
3205.00,2.1117
3204.00,2.1128
3203.00,2.1136
3202.00,2.1145
3201.00,2.1154
3200.00,2.1164
3199.00,2.1176
3198.00,2.1189
3197.00,2.1201
3196.00,2.1212
3195.00,2.1218
3194.00,2.1221
3193.00,2.1223
3192.00,2.1226
3191.00,2.1227
3190.00,2.1226
3189.00,2.1225
3188.00,2.1225
3187.00,2.1227
3186.00,2.1232
3185.00,2.1236
3184.00,2.1237
3183.00,2.1231
3182.00,2.1224
3181.00,2.1222
3180.00,2.1223
3179.00,2.1222
3178.00,2.1215
3177.00,2.1204
3176.00,2.1193
3175.00,2.1184
3174.00,2.1176
3173.00,2.1172
3172.00,2.1168
3171.00,2.1161
3170.00,2.1149
3169.00,2.1135
3168.00,2.1120
3167.00,2.1101
3166.00,2.1081
3165.00,2.1061
3164.00,2.1046
3163.00,2.1034
3162.00,2.1022
3161.00,2.1008
3160.00,2.0992
3159.00,2.0973
3158.00,2.0951
3157.00,2.0929
3156.00,2.0905
3155.00,2.0879
3154.00,2.0852
3153.00,2.0828
3152.00,2.0806
3151.00,2.0782
3150.00,2.0753
3149.00,2.0722
3148.00,2.0693
3147.00,2.0663
3146.00,2.0633
3145.00,2.0602
3144.00,2.0569
3143.00,2.0536
3142.00,2.0505
3141.00,2.0475
3140.00,2.0442
3139.00,2.0403
3138.00,2.0360
3137.00,2.0319
3136.00,2.0279
3135.00,2.0239
3134.00,2.0197
3133.00,2.0152
3132.00,2.0108
3131.00,2.0064
3130.00,2.0019
3129.00,1.9973
3128.00,1.9925
3127.00,1.9874
3126.00,1.9822
3125.00,1.9770
3124.00,1.9719
3123.00,1.9667
3122.00,1.9612
3121.00,1.9555
3120.00,1.9497
3119.00,1.9436
3118.00,1.9374
3117.00,1.9310
3116.00,1.9246
3115.00,1.9181
3114.00,1.9117
3113.00,1.9052
3112.00,1.8985
3111.00,1.8913
3110.00,1.8838
3109.00,1.8759
3108.00,1.8679
3107.00,1.8597
3106.00,1.8514
3105.00,1.8432
3104.00,1.8351
3103.00,1.8268
3102.00,1.8179
3101.00,1.8086
3100.00,1.7990
3099.00,1.7893
3098.00,1.7796
3097.00,1.7699
3096.00,1.7600
3095.00,1.7499
3094.00,1.7394
3093.00,1.7286
3092.00,1.7178
3091.00,1.7068
3090.00,1.6956
3089.00,1.6843
3088.00,1.6728
3087.00,1.6610
3086.00,1.6488
3085.00,1.6365
3084.00,1.6240
3083.00,1.6114
3082.00,1.5986
3081.00,1.5857
3080.00,1.5725
3079.00,1.5591
3078.00,1.5455
3077.00,1.5318
3076.00,1.5181
3075.00,1.5045
3074.00,1.4908
3073.00,1.4771
3072.00,1.4633
3071.00,1.4496
3070.00,1.4360
3069.00,1.4224
3068.00,1.4090
3067.00,1.3956
3066.00,1.3824
3065.00,1.3693
3064.00,1.3564
3063.00,1.3435
3062.00,1.3308
3061.00,1.3183
3060.00,1.3061
3059.00,1.2940
3058.00,1.2821
3057.00,1.2705
3056.00,1.2592
3055.00,1.2481
3054.00,1.2372
3053.00,1.2264
3052.00,1.2158
3051.00,1.2053
3050.00,1.1949
3049.00,1.1846
3048.00,1.1745
3047.00,1.1646
3046.00,1.1550
3045.00,1.1458
3044.00,1.1371
3043.00,1.1290
3042.00,1.1216
3041.00,1.1148
3040.00,1.1087
3039.00,1.1033
3038.00,1.0987
3037.00,1.0950
3036.00,1.0923
3035.00,1.0904
3034.00,1.0895
3033.00,1.0895
3032.00,1.0903
3031.00,1.0920
3030.00,1.0945
3029.00,1.0977
3028.00,1.1018
3027.00,1.1067
3026.00,1.1124
3025.00,1.1190
3024.00,1.1264
3023.00,1.1348
3022.00,1.1441
3021.00,1.1543
3020.00,1.1654
3019.00,1.1775
3018.00,1.1906
3017.00,1.2046
3016.00,1.2195
3015.00,1.2353
3014.00,1.2518
3013.00,1.2692
3012.00,1.2874
3011.00,1.3064
3010.00,1.3261
3009.00,1.3466
3008.00,1.3677
3007.00,1.3896
3006.00,1.4120
3005.00,1.4352
3004.00,1.4589
3003.00,1.4831
3002.00,1.5078
3001.00,1.5330
3000.00,1.5586
2999.00,1.5846
2998.00,1.6108
2997.00,1.6372
2996.00,1.6638
2995.00,1.6904
2994.00,1.7170
2993.00,1.7437
2992.00,1.7702
2991.00,1.7967
2990.00,1.8232
2989.00,1.8497
2988.00,1.8760
2987.00,1.9018
2986.00,1.9272
2985.00,1.9524
2984.00,1.9776
2983.00,2.0027
2982.00,2.0276
2981.00,2.0526
2980.00,2.0778
2979.00,2.1030
2978.00,2.1279
2977.00,2.1525
2976.00,2.1770
2975.00,2.2017
2974.00,2.2266
2973.00,2.2519
2972.00,2.2774
2971.00,2.3033
2970.00,2.3298
2969.00,2.3574
2968.00,2.3861
2967.00,2.4154
2966.00,2.4447
2965.00,2.4742
2964.00,2.5043
2963.00,2.5347
2962.00,2.5647
2961.00,2.5937
2960.00,2.6213
2959.00,2.6476
2958.00,2.6731
2957.00,2.6978
2956.00,2.7213
2955.00,2.7430
2954.00,2.7631
2953.00,2.7829
2952.00,2.8031
2951.00,2.8240
2950.00,2.8459
2949.00,2.8693
2948.00,2.8938
2947.00,2.9189
2946.00,2.9455
2945.00,2.9744
2944.00,3.0042
2943.00,3.0308
2942.00,3.0509
2941.00,3.0639
2940.00,3.0710
2939.00,3.0738
2938.00,3.0749
2937.00,3.0759
2936.00,3.0748
2935.00,3.0669
2934.00,3.0504
2933.00,3.0271
2932.00,2.9989
2931.00,2.9653
2930.00,2.9254
2929.00,2.8807
2928.00,2.8329
2927.00,2.7835
2926.00,2.7342
2925.00,2.6863
2924.00,2.6397
2923.00,2.5936
2922.00,2.5468
2921.00,2.4996
2920.00,2.4525
2919.00,2.4065
2918.00,2.3623
2917.00,2.3203
2916.00,2.2810
2915.00,2.2447
2914.00,2.2119
2913.00,2.1832
2912.00,2.1587
2911.00,2.1384
2910.00,2.1222
2909.00,2.1099
2908.00,2.1004
2907.00,2.0926
2906.00,2.0856
2905.00,2.0791
2904.00,2.0730
2903.00,2.0675
2902.00,2.0624
2901.00,2.0583
2900.00,2.0555
2899.00,2.0542
2898.00,2.0543
2897.00,2.0558
2896.00,2.0583
2895.00,2.0616
2894.00,2.0658
2893.00,2.0711
2892.00,2.0776
2891.00,2.0851
2890.00,2.0933
2889.00,2.1025
2888.00,2.1128
2887.00,2.1246
2886.00,2.1378
2885.00,2.1523
2884.00,2.1680
2883.00,2.1846
2882.00,2.2019
2881.00,2.2196
2880.00,2.2378
2879.00,2.2565
2878.00,2.2760
2877.00,2.2964
2876.00,2.3172
2875.00,2.3385
2874.00,2.3606
2873.00,2.3843
2872.00,2.4099
2871.00,2.4368
2870.00,2.4639
2869.00,2.4904
2868.00,2.5156
2867.00,2.5385
2866.00,2.5576
2865.00,2.5709
2864.00,2.5764
2863.00,2.5730
2862.00,2.5608
2861.00,2.5405
2860.00,2.5122
2859.00,2.4764
2858.00,2.4345
2857.00,2.3883
2856.00,2.3397
2855.00,2.2903
2854.00,2.2416
2853.00,2.1951
2852.00,2.1522
2851.00,2.1145
2850.00,2.0829
2849.00,2.0582
2848.00,2.0401
2847.00,2.0280
2846.00,2.0214
2845.00,2.0195
2844.00,2.0219
2843.00,2.0274
2842.00,2.0355
2841.00,2.0456
2840.00,2.0574
2839.00,2.0702
2838.00,2.0835
2837.00,2.0966
2836.00,2.1091
2835.00,2.1210
2834.00,2.1327
2833.00,2.1443
2832.00,2.1555
2831.00,2.1659
2830.00,2.1753
2829.00,2.1838
2828.00,2.1917
2827.00,2.1990
2826.00,2.2059
2825.00,2.2122
2824.00,2.2181
2823.00,2.2233
2822.00,2.2280
2821.00,2.2327
2820.00,2.2374
2819.00,2.2424
2818.00,2.2473
2817.00,2.2521
2816.00,2.2569
2815.00,2.2617
2814.00,2.2670
2813.00,2.2728
2812.00,2.2785
2811.00,2.2840
2810.00,2.2892
2809.00,2.2942
2808.00,2.2992
2807.00,2.3038
2806.00,2.3080
2805.00,2.3117
2804.00,2.3150
2803.00,2.3181
2802.00,2.3215
2801.00,2.3255
2800.00,2.3294
2799.00,2.3327
2798.00,2.3356
2797.00,2.3385
2796.00,2.3414
2795.00,2.3439
2794.00,2.3460
2793.00,2.3478
2792.00,2.3493
2791.00,2.3506
2790.00,2.3520
2789.00,2.3542
2788.00,2.3569
2787.00,2.3595
2786.00,2.3614
2785.00,2.3627
2784.00,2.3635
2783.00,2.3640
2782.00,2.3645
2781.00,2.3656
2780.00,2.3671
2779.00,2.3682
2778.00,2.3687
2777.00,2.3690
2776.00,2.3696
2775.00,2.3706
2774.00,2.3715
2773.00,2.3722
2772.00,2.3723
2771.00,2.3720
2770.00,2.3716
2769.00,2.3716
2768.00,2.3721
2767.00,2.3727
2766.00,2.3734
2765.00,2.3744
2764.00,2.3755
2763.00,2.3759
2762.00,2.3748
2761.00,2.3725
2760.00,2.3698
2759.00,2.3675
2758.00,2.3660
2757.00,2.3654
2756.00,2.3649
2755.00,2.3643
2754.00,2.3631
2753.00,2.3615
2752.00,2.3598
2751.00,2.3582
2750.00,2.3568
2749.00,2.3554
2748.00,2.3536
2747.00,2.3512
2746.00,2.3482
2745.00,2.3453
2744.00,2.3428
2743.00,2.3408
2742.00,2.3391
2741.00,2.3373
2740.00,2.3348
2739.00,2.3315
2738.00,2.3280
2737.00,2.3250
2736.00,2.3224
2735.00,2.3199
2734.00,2.3170
2733.00,2.3134
2732.00,2.3094
2731.00,2.3054
2730.00,2.3018
2729.00,2.2989
2728.00,2.2960
2727.00,2.2927
2726.00,2.2890
2725.00,2.2849
2724.00,2.2803
2723.00,2.2752
2722.00,2.2701
2721.00,2.2658
2720.00,2.2619
2719.00,2.2578
2718.00,2.2528
2717.00,2.2475
2716.00,2.2421
2715.00,2.2368
2714.00,2.2316
2713.00,2.2264
2712.00,2.2213
2711.00,2.2159
2710.00,2.2101
2709.00,2.2040
2708.00,2.1978
2707.00,2.1914
2706.00,2.1850
2705.00,2.1786
2704.00,2.1722
2703.00,2.1654
2702.00,2.1584
2701.00,2.1512
2700.00,2.1439
2699.00,2.1363
2698.00,2.1284
2697.00,2.1202
2696.00,2.1118
2695.00,2.1033
2694.00,2.0949
2693.00,2.0865
2692.00,2.0782
2691.00,2.0698
2690.00,2.0612
2689.00,2.0524
2688.00,2.0433
2687.00,2.0337
2686.00,2.0238
2685.00,2.0138
2684.00,2.0041
2683.00,1.9945
2682.00,1.9850
2681.00,1.9756
2680.00,1.9666
2679.00,1.9580
2678.00,1.9500
2677.00,1.9424
2676.00,1.9349
2675.00,1.9272
2674.00,1.9191
2673.00,1.9106
2672.00,1.9019
2671.00,1.8931
2670.00,1.8842
2669.00,1.8751
2668.00,1.8656
2667.00,1.8553
2666.00,1.8441
2665.00,1.8317
2664.00,1.8181
2663.00,1.8035
2662.00,1.7881
2661.00,1.7723
2660.00,1.7561
2659.00,1.7397
2658.00,1.7235
2657.00,1.7074
2656.00,1.6916
2655.00,1.6759
2654.00,1.6605
2653.00,1.6453
2652.00,1.6303
2651.00,1.6154
2650.00,1.6006
2649.00,1.5858
2648.00,1.5709
2647.00,1.5558
2646.00,1.5404
2645.00,1.5248
2644.00,1.5089
2643.00,1.4929
2642.00,1.4765
2641.00,1.4599
2640.00,1.4433
2639.00,1.4266
2638.00,1.4102
2637.00,1.3940
2636.00,1.3782
2635.00,1.3628
2634.00,1.3479
2633.00,1.3334
2632.00,1.3195
2631.00,1.3061
2630.00,1.2932
2629.00,1.2809
2628.00,1.2692
2627.00,1.2582
2626.00,1.2478
2625.00,1.2380
2624.00,1.2288
2623.00,1.2202
2622.00,1.2123
2621.00,1.2050
2620.00,1.1984
2619.00,1.1924
2618.00,1.1870
2617.00,1.1821
2616.00,1.1777
2615.00,1.1738
2614.00,1.1704
2613.00,1.1673
2612.00,1.1647
2611.00,1.1624
2610.00,1.1604
2609.00,1.1585
2608.00,1.1569
2607.00,1.1555
2606.00,1.1545
2605.00,1.1540
2604.00,1.1541
2603.00,1.1551
2602.00,1.1571
2601.00,1.1600
2600.00,1.1641
2599.00,1.1691
2598.00,1.1752
2597.00,1.1823
2596.00,1.1904
2595.00,1.1995
2594.00,1.2094
2593.00,1.2202
2592.00,1.2317
2591.00,1.2440
2590.00,1.2567
2589.00,1.2700
2588.00,1.2837
2587.00,1.2978
2586.00,1.3122
2585.00,1.3268
2584.00,1.3416
2583.00,1.3566
2582.00,1.3718
2581.00,1.3874
2580.00,1.4034
2579.00,1.4195
2578.00,1.4359
2577.00,1.4525
2576.00,1.4692
2575.00,1.4860
2574.00,1.5027
2573.00,1.5196
2572.00,1.5367
2571.00,1.5538
2570.00,1.5709
2569.00,1.5878
2568.00,1.6046
2567.00,1.6214
2566.00,1.6382
2565.00,1.6551
2564.00,1.6719
2563.00,1.6887
2562.00,1.7055
2561.00,1.7222
2560.00,1.7388
2559.00,1.7554
2558.00,1.7718
2557.00,1.7882
2556.00,1.8044
2555.00,1.8205
2554.00,1.8363
2553.00,1.8519
2552.00,1.8672
2551.00,1.8822
2550.00,1.8971
2549.00,1.9121
2548.00,1.9270
2547.00,1.9416
2546.00,1.9557
2545.00,1.9694
2544.00,1.9828
2543.00,1.9960
2542.00,2.0089
2541.00,2.0216
2540.00,2.0339
2539.00,2.0460
2538.00,2.0580
2537.00,2.0699
2536.00,2.0816
2535.00,2.0928
2534.00,2.1036
2533.00,2.1145
2532.00,2.1253
2531.00,2.1357
2530.00,2.1458
2529.00,2.1555
2528.00,2.1650
2527.00,2.1744
2526.00,2.1836
2525.00,2.1926
2524.00,2.2017
2523.00,2.2106
2522.00,2.2196
2521.00,2.2285
2520.00,2.2372
2519.00,2.2458
2518.00,2.2541
2517.00,2.2623
2516.00,2.2702
2515.00,2.2778
2514.00,2.2853
2513.00,2.2930
2512.00,2.3005
2511.00,2.3076
2510.00,2.3144
2509.00,2.3213
2508.00,2.3283
2507.00,2.3351
2506.00,2.3417
2505.00,2.3485
2504.00,2.3558
2503.00,2.3635
2502.00,2.3710
2501.00,2.3780
2500.00,2.3843
2499.00,2.3903
2498.00,2.3961
2497.00,2.4019
2496.00,2.4077
2495.00,2.4133
2494.00,2.4186
2493.00,2.4239
2492.00,2.4295
2491.00,2.4351
2490.00,2.4408
2489.00,2.4463
2488.00,2.4518
2487.00,2.4568
2486.00,2.4614
2485.00,2.4656
2484.00,2.4694
2483.00,2.4733
2482.00,2.4773
2481.00,2.4815
2480.00,2.4858
2479.00,2.4899
2478.00,2.4936
2477.00,2.4971
2476.00,2.5005
2475.00,2.5043
2474.00,2.5086
2473.00,2.5132
2472.00,2.5172
2471.00,2.5201
2470.00,2.5224
2469.00,2.5251
2468.00,2.5283
2467.00,2.5317
2466.00,2.5352
2465.00,2.5390
2464.00,2.5426
2463.00,2.5456
2462.00,2.5483
2461.00,2.5511
2460.00,2.5539
2459.00,2.5564
2458.00,2.5582
2457.00,2.5599
2456.00,2.5616
2455.00,2.5635
2454.00,2.5656
2453.00,2.5680
2452.00,2.5710
2451.00,2.5744
2450.00,2.5782
2449.00,2.5823
2448.00,2.5862
2447.00,2.5891
2446.00,2.5908
2445.00,2.5914
2444.00,2.5911
2443.00,2.5903
2442.00,2.5898
2441.00,2.5902
2440.00,2.5916
2439.00,2.5937
2438.00,2.5960
2437.00,2.5981
2436.00,2.5993
2435.00,2.5992
2434.00,2.5984
2433.00,2.5982
2432.00,2.5993
2431.00,2.6010
2430.00,2.6028
2429.00,2.6045
2428.00,2.6063
2427.00,2.6078
2426.00,2.6087
2425.00,2.6095
2424.00,2.6104
2423.00,2.6115
2422.00,2.6126
2421.00,2.6134
2420.00,2.6137
2419.00,2.6136
2418.00,2.6131
2417.00,2.6123
2416.00,2.6110
2415.00,2.6095
2414.00,2.6082
2413.00,2.6077
2412.00,2.6077
2411.00,2.6077
2410.00,2.6077
2409.00,2.6079
2408.00,2.6081
2407.00,2.6077
2406.00,2.6063
2405.00,2.6044
2404.00,2.6025
2403.00,2.6009
2402.00,2.6000
2401.00,2.5998
2400.00,2.6000
2399.00,2.6004
2398.00,2.6007
2397.00,2.6002
2396.00,2.5982
2395.00,2.5946
2394.00,2.5908
2393.00,2.5882
2392.00,2.5866
2391.00,2.5854
2390.00,2.5843
2389.00,2.5834
2388.00,2.5825
2387.00,2.5807
2386.00,2.5776
2385.00,2.5744
2384.00,2.5718
2383.00,2.5696
2382.00,2.5676
2381.00,2.5656
2380.00,2.5637
2379.00,2.5618
2378.00,2.5601
2377.00,2.5592
2376.00,2.5594
2375.00,2.5605
2374.00,2.5619
2373.00,2.5632
2372.00,2.5634
2371.00,2.5619
2370.00,2.5591
2369.00,2.5559
2368.00,2.5530
2367.00,2.5504
2366.00,2.5480
2365.00,2.5457
2364.00,2.5431
2363.00,2.5400
2362.00,2.5359
2361.00,2.5316
2360.00,2.5274
2359.00,2.5230
2358.00,2.5188
2357.00,2.5153
2356.00,2.5127
2355.00,2.5096
2354.00,2.5040
2353.00,2.4958
2352.00,2.4867
2351.00,2.4801
2350.00,2.4771
2349.00,2.4750
2348.00,2.4713
2347.00,2.4649
2346.00,2.4579
2345.00,2.4521
2344.00,2.4475
2343.00,2.4423
2342.00,2.4348
2341.00,2.4264
2340.00,2.4182
2339.00,2.4109
2338.00,2.4040
2337.00,2.3970
2336.00,2.3895
2335.00,2.3812
2334.00,2.3718
2333.00,2.3620
2332.00,2.3521
2331.00,2.3431
2330.00,2.3347
2329.00,2.3266
2328.00,2.3187
2327.00,2.3103
2326.00,2.3018
2325.00,2.2925
2324.00,2.2829
2323.00,2.2731
2322.00,2.2631
2321.00,2.2529
2320.00,2.2417
2319.00,2.2299
2318.00,2.2176
2317.00,2.2052
2316.00,2.1925
2315.00,2.1794
2314.00,2.1662
2313.00,2.1533
2312.00,2.1403
2311.00,2.1271
2310.00,2.1135
2309.00,2.0999
2308.00,2.0866
2307.00,2.0734
2306.00,2.0599
2305.00,2.0462
2304.00,2.0321
2303.00,2.0178
2302.00,2.0031
2301.00,1.9885
2300.00,1.9740
2299.00,1.9594
2298.00,1.9444
2297.00,1.9289
2296.00,1.9131
2295.00,1.8971
2294.00,1.8810
2293.00,1.8645
2292.00,1.8478
2291.00,1.8308
2290.00,1.8136
2289.00,1.7961
2288.00,1.7783
2287.00,1.7602
2286.00,1.7419
2285.00,1.7234
2284.00,1.7050
2283.00,1.6866
2282.00,1.6682
2281.00,1.6498
2280.00,1.6317
2279.00,1.6138
2278.00,1.5962
2277.00,1.5789
2276.00,1.5621
2275.00,1.5458
2274.00,1.5299
2273.00,1.5143
2272.00,1.4991
2271.00,1.4841
2270.00,1.4693
2269.00,1.4547
2268.00,1.4403
2267.00,1.4261
2266.00,1.4123
2265.00,1.3988
2264.00,1.3859
2263.00,1.3735
2262.00,1.3616
2261.00,1.3505
2260.00,1.3401
2259.00,1.3304
2258.00,1.3214
2257.00,1.3131
2256.00,1.3054
2255.00,1.2983
2254.00,1.2917
2253.00,1.2857
2252.00,1.2806
2251.00,1.2763
2250.00,1.2732
2249.00,1.2713
2248.00,1.2706
2247.00,1.2710
2246.00,1.2725
2245.00,1.2750
2244.00,1.2786
2243.00,1.2831
2242.00,1.2885
2241.00,1.2949
2240.00,1.3024
2239.00,1.3109
2238.00,1.3202
2237.00,1.3303
2236.00,1.3413
2235.00,1.3530
2234.00,1.3653
2233.00,1.3783
2232.00,1.3920
2231.00,1.4063
2230.00,1.4212
2229.00,1.4366
2228.00,1.4526
2227.00,1.4689
2226.00,1.4856
2225.00,1.5027
2224.00,1.5201
2223.00,1.5379
2222.00,1.5559
2221.00,1.5743
2220.00,1.5930
2219.00,1.6119
2218.00,1.6311
2217.00,1.6506
2216.00,1.6702
2215.00,1.6900
2214.00,1.7099
2213.00,1.7299
2212.00,1.7497
2211.00,1.7694
2210.00,1.7889
2209.00,1.8084
2208.00,1.8279
2207.00,1.8473
2206.00,1.8665
2205.00,1.8858
2204.00,1.9050
2203.00,1.9241
2202.00,1.9429
2201.00,1.9613
2200.00,1.9791
2199.00,1.9964
2198.00,2.0136
2197.00,2.0311
2196.00,2.0486
2195.00,2.0658
2194.00,2.0823
2193.00,2.0986
2192.00,2.1146
2191.00,2.1304
2190.00,2.1460
2189.00,2.1613
2188.00,2.1764
2187.00,2.1908
2186.00,2.2046
2185.00,2.2181
2184.00,2.2318
2183.00,2.2456
2182.00,2.2591
2181.00,2.2720
2180.00,2.2841
2179.00,2.2957
2178.00,2.3070
2177.00,2.3182
2176.00,2.3294
2175.00,2.3403
2174.00,2.3508
2173.00,2.3611
2172.00,2.3713
2171.00,2.3814
2170.00,2.3910
2169.00,2.4004
2168.00,2.4095
2167.00,2.4185
2166.00,2.4276
2165.00,2.4369
2164.00,2.4467
2163.00,2.4566
2162.00,2.4662
2161.00,2.4757
2160.00,2.4849
2159.00,2.4940
2158.00,2.5026
2157.00,2.5107
2156.00,2.5181
2155.00,2.5253
2154.00,2.5329
2153.00,2.5411
2152.00,2.5492
2151.00,2.5566
2150.00,2.5635
2149.00,2.5710
2148.00,2.5790
2147.00,2.5866
2146.00,2.5932
2145.00,2.5992
2144.00,2.6053
2143.00,2.6112
2142.00,2.6168
2141.00,2.6225
2140.00,2.6287
2139.00,2.6355
2138.00,2.6426
2137.00,2.6496
2136.00,2.6562
2135.00,2.6621
2134.00,2.6675
2133.00,2.6729
2132.00,2.6784
2131.00,2.6835
2130.00,2.6878
2129.00,2.6918
2128.00,2.6962
2127.00,2.7014
2126.00,2.7071
2125.00,2.7130
2124.00,2.7187
2123.00,2.7238
2122.00,2.7278
2121.00,2.7312
2120.00,2.7348
2119.00,2.7389
2118.00,2.7432
2117.00,2.7477
2116.00,2.7520
2115.00,2.7559
2114.00,2.7595
2113.00,2.7632
2112.00,2.7673
2111.00,2.7719
2110.00,2.7769
2109.00,2.7820
2108.00,2.7864
2107.00,2.7893
2106.00,2.7904
2105.00,2.7907
2104.00,2.7910
2103.00,2.7925
2102.00,2.7956
2101.00,2.8003
2100.00,2.8056
2099.00,2.8105
2098.00,2.8145
2097.00,2.8181
2096.00,2.8212
2095.00,2.8238
2094.00,2.8259
2093.00,2.8282
2092.00,2.8306
2091.00,2.8322
2090.00,2.8323
2089.00,2.8315
2088.00,2.8311
2087.00,2.8319
2086.00,2.8340
2085.00,2.8373
2084.00,2.8418
2083.00,2.8468
2082.00,2.8515
2081.00,2.8546
2080.00,2.8557
2079.00,2.8555
2078.00,2.8555
2077.00,2.8572
2076.00,2.8607
2075.00,2.8650
2074.00,2.8691
2073.00,2.8720
2072.00,2.8728
2071.00,2.8715
2070.00,2.8689
2069.00,2.8665
2068.00,2.8652
2067.00,2.8653
2066.00,2.8671
2065.00,2.8698
2064.00,2.8713
2063.00,2.8698
2062.00,2.8669
2061.00,2.8661
2060.00,2.8687
2059.00,2.8724
2058.00,2.8743
2057.00,2.8738
2056.00,2.8727
2055.00,2.8727
2054.00,2.8741
2053.00,2.8765
2052.00,2.8780
2051.00,2.8765
2050.00,2.8725
2049.00,2.8685
2048.00,2.8664
2047.00,2.8662
2046.00,2.8664
2045.00,2.8667
2044.00,2.8674
2043.00,2.8680
2042.00,2.8683
2041.00,2.8680
2040.00,2.8668
2039.00,2.8642
2038.00,2.8605
2037.00,2.8571
2036.00,2.8555
2035.00,2.8553
2034.00,2.8549
2033.00,2.8536
2032.00,2.8519
2031.00,2.8501
2030.00,2.8484
2029.00,2.8469
2028.00,2.8462
2027.00,2.8466
2026.00,2.8476
2025.00,2.8483
2024.00,2.8479
2023.00,2.8458
2022.00,2.8423
2021.00,2.8379
2020.00,2.8332
2019.00,2.8285
2018.00,2.8246
2017.00,2.8218
2016.00,2.8200
2015.00,2.8185
2014.00,2.8171
2013.00,2.8162
2012.00,2.8150
2011.00,2.8119
2010.00,2.8065
2009.00,2.7999
2008.00,2.7936
2007.00,2.7881
2006.00,2.7834
2005.00,2.7799
2004.00,2.7781
2003.00,2.7771
2002.00,2.7756
2001.00,2.7731
2000.00,2.7698
1999.00,2.7657
1998.00,2.7608
1997.00,2.7554
1996.00,2.7506
1995.00,2.7462
1994.00,2.7411
1993.00,2.7341
1992.00,2.7253
1991.00,2.7161
1990.00,2.7083
1989.00,2.7030
1988.00,2.6994
1987.00,2.6956
1986.00,2.6900
1985.00,2.6836
1984.00,2.6781
1983.00,2.6743
1982.00,2.6707
1981.00,2.6657
1980.00,2.6590
1979.00,2.6516
1978.00,2.6446
1977.00,2.6384
1976.00,2.6328
1975.00,2.6269
1974.00,2.6201
1973.00,2.6125
1972.00,2.6044
1971.00,2.5968
1970.00,2.5896
1969.00,2.5823
1968.00,2.5740
1967.00,2.5641
1966.00,2.5533
1965.00,2.5426
1964.00,2.5329
1963.00,2.5238
1962.00,2.5149
1961.00,2.5057
1960.00,2.4960
1959.00,2.4858
1958.00,2.4755
1957.00,2.4655
1956.00,2.4554
1955.00,2.4444
1954.00,2.4323
1953.00,2.4197
1952.00,2.4074
1951.00,2.3953
1950.00,2.3830
1949.00,2.3702
1948.00,2.3569
1947.00,2.3431
1946.00,2.3296
1945.00,2.3166
1944.00,2.3036
1943.00,2.2891
1942.00,2.2728
1941.00,2.2558
1940.00,2.2394
1939.00,2.2236
1938.00,2.2077
1937.00,2.1913
1936.00,2.1742
1935.00,2.1559
1934.00,2.1367
1933.00,2.1167
1932.00,2.0964
1931.00,2.0758
1930.00,2.0546
1929.00,2.0330
1928.00,2.0108
1927.00,1.9882
1926.00,1.9654
1925.00,1.9424
1924.00,1.9190
1923.00,1.8950
1922.00,1.8712
1921.00,1.8482
1920.00,1.8256
1919.00,1.8028
1918.00,1.7795
1917.00,1.7570
1916.00,1.7361
1915.00,1.7169
1914.00,1.6987
1913.00,1.6810
1912.00,1.6636
1911.00,1.6460
1910.00,1.6282
1909.00,1.6106
1908.00,1.5937
1907.00,1.5776
1906.00,1.5621
1905.00,1.5475
1904.00,1.5340
1903.00,1.5212
1902.00,1.5092
1901.00,1.4980
1900.00,1.4878
1899.00,1.4789
1898.00,1.4713
1897.00,1.4650
1896.00,1.4601
1895.00,1.4566
1894.00,1.4550
1893.00,1.4555
1892.00,1.4579
1891.00,1.4617
1890.00,1.4668
1889.00,1.4739
1888.00,1.4838
1887.00,1.4964
1886.00,1.5112
1885.00,1.5279
1884.00,1.5462
1883.00,1.5652
1882.00,1.5846
1881.00,1.6045
1880.00,1.6251
1879.00,1.6462
1878.00,1.6678
1877.00,1.6900
1876.00,1.7130
1875.00,1.7361
1874.00,1.7590
1873.00,1.7816
1872.00,1.8034
1871.00,1.8238
1870.00,1.8428
1869.00,1.8620
1868.00,1.8828
1867.00,1.9057
1866.00,1.9296
1865.00,1.9533
1864.00,1.9767
1863.00,1.9999
1862.00,2.0228
1861.00,2.0458
1860.00,2.0693
1859.00,2.0935
1858.00,2.1180
1857.00,2.1426
1856.00,2.1671
1855.00,2.1913
1854.00,2.2151
1853.00,2.2387
1852.00,2.2617
1851.00,2.2838
1850.00,2.3048
1849.00,2.3250
1848.00,2.3446
1847.00,2.3634
1846.00,2.3814
1845.00,2.3988
1844.00,2.4164
1843.00,2.4346
1842.00,2.4534
1841.00,2.4720
1840.00,2.4905
1839.00,2.5096
1838.00,2.5290
1837.00,2.5482
1836.00,2.5658
1835.00,2.5813
1834.00,2.5956
1833.00,2.6097
1832.00,2.6230
1831.00,2.6342
1830.00,2.6442
1829.00,2.6556
1828.00,2.6699
1827.00,2.6840
1826.00,2.6956
1825.00,2.7058
1824.00,2.7169
1823.00,2.7299
1822.00,2.7443
1821.00,2.7586
1820.00,2.7716
1819.00,2.7829
1818.00,2.7936
1817.00,2.8050
1816.00,2.8173
1815.00,2.8298
1814.00,2.8418
1813.00,2.8530
1812.00,2.8626
1811.00,2.8697
1810.00,2.8754
1809.00,2.8821
1808.00,2.8907
1807.00,2.9004
1806.00,2.9097
1805.00,2.9175
1804.00,2.9225
1803.00,2.9244
1802.00,2.9239
1801.00,2.9237
1800.00,2.9268
1799.00,2.9341
1798.00,2.9439
1797.00,2.9537
1796.00,2.9620
1795.00,2.9690
1794.00,2.9754
1793.00,2.9822
1792.00,2.9898
1791.00,2.9980
1790.00,3.0060
1789.00,3.0141
1788.00,3.0237
1787.00,3.0346
1786.00,3.0441
1785.00,3.0494
1784.00,3.0505
1783.00,3.0509
1782.00,3.0543
1781.00,3.0624
1780.00,3.0738
1779.00,3.0850
1778.00,3.0924
1777.00,3.0963
1776.00,3.1000
1775.00,3.1055
1774.00,3.1121
1773.00,3.1180
1772.00,3.1238
1771.00,3.1307
1770.00,3.1364
1769.00,3.1361
1768.00,3.1308
1767.00,3.1262
1766.00,3.1267
1765.00,3.1318
1764.00,3.1376
1763.00,3.1406
1762.00,3.1407
1761.00,3.1394
1760.00,3.1381
1759.00,3.1370
1758.00,3.1362
1757.00,3.1355
1756.00,3.1354
1755.00,3.1366
1754.00,3.1394
1753.00,3.1427
1752.00,3.1446
1751.00,3.1442
1750.00,3.1417
1749.00,3.1385
1748.00,3.1345
1747.00,3.1288
1746.00,3.1211
1745.00,3.1118
1744.00,3.1019
1743.00,3.0918
1742.00,3.0806
1741.00,3.0659
1740.00,3.0459
1739.00,3.0220
1738.00,2.9972
1737.00,2.9710
1736.00,2.9405
1735.00,2.9065
1734.00,2.8767
1733.00,2.8638
1732.00,2.8757
1731.00,2.9121
1730.00,2.9753
1729.00,3.0700
1728.00,3.1953
1727.00,3.3434
1726.00,3.5030
1725.00,3.6681
1724.00,3.8437
1723.00,4.0426
1722.00,4.2636
1721.00,4.4583
1720.00,4.5888
1719.00,4.7034
1718.00,4.8981
1717.00,5.1298
1716.00,5.1261
1715.00,5.1116
1714.00,5.1000
1713.00,4.9795
1712.00,4.8719
1711.00,4.8370
1710.00,4.8188
1709.00,4.7980
1708.00,4.7886
1707.00,4.8966
1706.00,5.0914
1705.00,5.0709
1704.00,4.9498
1703.00,4.5637
1702.00,4.2163
1701.00,3.9178
1700.00,3.6356
1699.00,3.4176
1698.00,3.2552
1697.00,3.1089
1696.00,2.9603
1695.00,2.8228
1694.00,2.7131
1693.00,2.6329
1692.00,2.5790
1691.00,2.5499
1690.00,2.5447
1689.00,2.5600
1688.00,2.5893
1687.00,2.6260
1686.00,2.6668
1685.00,2.7126
1684.00,2.7642
1683.00,2.8182
1682.00,2.8634
1681.00,2.8919
1680.00,2.9138
1679.00,2.9388
1678.00,2.9663
1677.00,2.9923
1676.00,3.0120
1675.00,3.0236
1674.00,3.0307
1673.00,3.0377
1672.00,3.0459
1671.00,3.0549
1670.00,3.0652
1669.00,3.0771
1668.00,3.0880
1667.00,3.0946
1666.00,3.0979
1665.00,3.1025
1664.00,3.1101
1663.00,3.1194
1662.00,3.1303
1661.00,3.1429
1660.00,3.1544
1659.00,3.1631
1658.00,3.1703
1657.00,3.1783
1656.00,3.1870
1655.00,3.1934
1654.00,3.1942
1653.00,3.1898
1652.00,3.1912
1651.00,3.2001
1650.00,3.2050
1649.00,3.2068
1648.00,3.2055
1647.00,3.2001
1646.00,3.1985
1645.00,3.2037
1644.00,3.2091
1643.00,3.2095
1642.00,3.2061
1641.00,3.2015
1640.00,3.1998
1639.00,3.2027
1638.00,3.2083
1637.00,3.2132
1636.00,3.2147
1635.00,3.2143
1634.00,3.2143
1633.00,3.2132
1632.00,3.2115
1631.00,3.2117
1630.00,3.2138
1629.00,3.2174
1628.00,3.2212
1627.00,3.2227
1626.00,3.2205
1625.00,3.2155
1624.00,3.2095
1623.00,3.2028
1622.00,3.1966
1621.00,3.1928
1620.00,3.1918
1619.00,3.1919
1618.00,3.1914
1617.00,3.1911
1616.00,3.1941
1615.00,3.1995
1614.00,3.2006
1613.00,3.1963
1612.00,3.1914
1611.00,3.1871
1610.00,3.1809
1609.00,3.1718
1608.00,3.1618
1607.00,3.1522
1606.00,3.1430
1605.00,3.1355
1604.00,3.1322
1603.00,3.1337
1602.00,3.1365
1601.00,3.1367
1600.00,3.1323
1599.00,3.1248
1598.00,3.1173
1597.00,3.1129
1596.00,3.1127
1595.00,3.1149
1594.00,3.1157
1593.00,3.1119
1592.00,3.1034
1591.00,3.0925
1590.00,3.0822
1589.00,3.0744
1588.00,3.0695
1587.00,3.0671
1586.00,3.0666
1585.00,3.0666
1584.00,3.0656
1583.00,3.0620
1582.00,3.0563
1581.00,3.0517
1580.00,3.0495
1579.00,3.0471
1578.00,3.0408
1577.00,3.0311
1576.00,3.0237
1575.00,3.0217
1574.00,3.0191
1573.00,3.0079
1572.00,2.9906
1571.00,2.9735
1570.00,2.9613
1569.00,2.9564
1568.00,2.9557
1567.00,2.9519
1566.00,2.9414
1565.00,2.9284
1564.00,2.9169
1563.00,2.9077
1562.00,2.8978
1561.00,2.8824
1560.00,2.8605
1559.00,2.8358
1558.00,2.8235
1557.00,2.8239
1556.00,2.8137
1555.00,2.7955
1554.00,2.7799
1553.00,2.7665
1552.00,2.7555
1551.00,2.7430
1550.00,2.7268
1549.00,2.7079
1548.00,2.6906
1547.00,2.6759
1546.00,2.6608
1545.00,2.6421
1544.00,2.6206
1543.00,2.6008
1542.00,2.5855
1541.00,2.5747
1540.00,2.5670
1539.00,2.5610
1538.00,2.5491
1537.00,2.5252
1536.00,2.4960
1535.00,2.4666
1534.00,2.4369
1533.00,2.4096
1532.00,2.3875
1531.00,2.3681
1530.00,2.3487
1529.00,2.3300
1528.00,2.3112
1527.00,2.2914
1526.00,2.2723
1525.00,2.2569
1524.00,2.2471
1523.00,2.2416
1522.00,2.2375
1521.00,2.2329
1520.00,2.2259
1519.00,2.2129
1518.00,2.1936
1517.00,2.1706
1516.00,2.1451
1515.00,2.1173
1514.00,2.0872
1513.00,2.0564
1512.00,2.0263
1511.00,1.9970
1510.00,1.9688
1509.00,1.9414
1508.00,1.9150
1507.00,1.8924
1506.00,1.8815
1505.00,1.8820
1504.00,1.8831
1503.00,1.8838
1502.00,1.8854
1501.00,1.8860
1500.00,1.8871
1499.00,1.8902
1498.00,1.8962
1497.00,1.9059
1496.00,1.9200
1495.00,1.9382
1494.00,1.9593
1493.00,1.9829
1492.00,2.0088
1491.00,2.0361
1490.00,2.0641
1489.00,2.0928
1488.00,2.1214
1487.00,2.1485
1486.00,2.1737
1485.00,2.1974
1484.00,2.2207
1483.00,2.2448
1482.00,2.2703
1481.00,2.2972
1480.00,2.3252
1479.00,2.3530
1478.00,2.3799
1477.00,2.4053
1476.00,2.4305
1475.00,2.4581
1474.00,2.4908
1473.00,2.5298
1472.00,2.5738
1471.00,2.6188
1470.00,2.6612
1469.00,2.7019
1468.00,2.7425
1467.00,2.7814
1466.00,2.8157
1465.00,2.8439
1464.00,2.8669
1463.00,2.8867
1462.00,2.9054
1461.00,2.9248
1460.00,2.9457
1459.00,2.9692
1458.00,2.9991
1457.00,3.0412
1456.00,3.0971
1455.00,3.1609
1454.00,3.2248
1453.00,3.2806
1452.00,3.3159
1451.00,3.3238
1450.00,3.3032
1449.00,3.2511
1448.00,3.1680
1447.00,3.0679
1446.00,2.9699
1445.00,2.8867
1444.00,2.8246
1443.00,2.7862
1442.00,2.7711
1441.00,2.7762
1440.00,2.7963
1439.00,2.8257
1438.00,2.8607
1437.00,2.8985
1436.00,2.9374
1435.00,2.9771
1434.00,3.0171
1433.00,3.0535
1432.00,3.0805
1431.00,3.0969
1430.00,3.1072
1429.00,3.1153
1428.00,3.1206
1427.00,3.1220
1426.00,3.1204
1425.00,3.1163
1424.00,3.1082
1423.00,3.0955
1422.00,3.0783
1421.00,3.0550
1420.00,3.0223
1419.00,2.9810
1418.00,2.9386
1417.00,2.9024
1416.00,2.8753
1415.00,2.8581
1414.00,2.8509
1413.00,2.8523
1412.00,2.8594
1411.00,2.8701
1410.00,2.8840
1409.00,2.9018
1408.00,2.9228
1407.00,2.9449
1406.00,2.9647
1405.00,2.9801
1404.00,2.9933
1403.00,3.0094
1402.00,3.0305
1401.00,3.0538
1400.00,3.0731
1399.00,3.0851
1398.00,3.0917
1397.00,3.0966
1396.00,3.1015
1395.00,3.1073
1394.00,3.1161
1393.00,3.1304
1392.00,3.1515
1391.00,3.1778
1390.00,3.2042
1389.00,3.2235
1388.00,3.2318
1387.00,3.2339
1386.00,3.2395
1385.00,3.2532
1384.00,3.2706
1383.00,3.2846
1382.00,3.2937
1381.00,3.3019
1380.00,3.3127
1379.00,3.3255
1378.00,3.3355
1377.00,3.3394
1376.00,3.3386
1375.00,3.3395
1374.00,3.3480
1373.00,3.3652
1372.00,3.3878
1371.00,3.4118
1370.00,3.4326
1369.00,3.4443
1368.00,3.4451
1367.00,3.4418
1366.00,3.4431
1365.00,3.4512
1364.00,3.4608
1363.00,3.4659
1362.00,3.4669
1361.00,3.4694
1360.00,3.4796
1359.00,3.5001
1358.00,3.5244
1357.00,3.5392
1356.00,3.5363
1355.00,3.5236
1354.00,3.5175
1353.00,3.5259
1352.00,3.5458
1351.00,3.5699
1350.00,3.5941
1349.00,3.6147
1348.00,3.6260
1347.00,3.6263
1346.00,3.6222
1345.00,3.6214
1344.00,3.6229
1343.00,3.6208
1342.00,3.6111
1341.00,3.5939
1340.00,3.5727
1339.00,3.5555
1338.00,3.5510
1337.00,3.5614
1336.00,3.5798
1335.00,3.5975
1334.00,3.6112
1333.00,3.6203
1332.00,3.6215
1331.00,3.6127
1330.00,3.5985
1329.00,3.5872
1328.00,3.5827
1327.00,3.5817
1326.00,3.5773
1325.00,3.5665
1324.00,3.5556
1323.00,3.5555
1322.00,3.5740
1321.00,3.6111
1320.00,3.6581
1319.00,3.7012
1318.00,3.7305
1317.00,3.7437
1316.00,3.7447
1315.00,3.7439
1314.00,3.7476
1313.00,3.7480
1312.00,3.7336
1311.00,3.7055
1310.00,3.6727
1309.00,3.6392
1308.00,3.6054
1307.00,3.5749
1306.00,3.5534
1305.00,3.5436
1304.00,3.5448
1303.00,3.5535
1302.00,3.5646
1301.00,3.5726
1300.00,3.5770
1299.00,3.5845
1298.00,3.6005
1297.00,3.6178
1296.00,3.6226
1295.00,3.6117
1294.00,3.5979
1293.00,3.5919
1292.00,3.5910
1291.00,3.5884
1290.00,3.5844
1289.00,3.5834
1288.00,3.5856
1287.00,3.5859
1286.00,3.5822
1285.00,3.5765
1284.00,3.5708
1283.00,3.5646
1282.00,3.5597
1281.00,3.5623
1280.00,3.5777
1279.00,3.6017
1278.00,3.6198
1277.00,3.6211
1276.00,3.6114
1275.00,3.6059
1274.00,3.6123
1273.00,3.6237
1272.00,3.6259
1271.00,3.6172
1270.00,3.6104
1269.00,3.6130
1268.00,3.6196
1267.00,3.6235
1266.00,3.6239
1265.00,3.6207
1264.00,3.6111
1263.00,3.5939
1262.00,3.5763
1261.00,3.5692
1260.00,3.5749
1259.00,3.5869
1258.00,3.5979
1257.00,3.6033
1256.00,3.6018
1255.00,3.5973
1254.00,3.5934
1253.00,3.5903
1252.00,3.5858
1251.00,3.5786
1250.00,3.5685
1249.00,3.5566
1248.00,3.5456
1247.00,3.5416
1246.00,3.5490
1245.00,3.5636
1244.00,3.5722
1243.00,3.5644
1242.00,3.5436
1241.00,3.5228
1240.00,3.5127
1239.00,3.5167
1238.00,3.5307
1237.00,3.5443
1236.00,3.5467
1235.00,3.5362
1234.00,3.5217
1233.00,3.5131
1232.00,3.5133
1231.00,3.5188
1230.00,3.5258
1229.00,3.5337
1228.00,3.5454
1227.00,3.5645
1226.00,3.5936
1225.00,3.6335
1224.00,3.6844
1223.00,3.7465
1222.00,3.8150
1221.00,3.8742
1220.00,3.9028
1219.00,3.8907
1218.00,3.8474
1217.00,3.7891
1216.00,3.7324
1215.00,3.6906
1214.00,3.6680
1213.00,3.6585
1212.00,3.6496
1211.00,3.6292
1210.00,3.5971
1209.00,3.5663
1208.00,3.5525
1207.00,3.5606
1206.00,3.5793
1205.00,3.5916
1204.00,3.5954
1203.00,3.6035
1202.00,3.6196
1201.00,3.6277
1200.00,3.6123
1199.00,3.5809
1198.00,3.5517
1197.00,3.5344
1196.00,3.5253
1195.00,3.5143
1194.00,3.4955
1193.00,3.4736
1192.00,3.4592
1191.00,3.4580
1190.00,3.4646
1189.00,3.4671
1188.00,3.4598
1187.00,3.4496
1186.00,3.4440
1185.00,3.4411
1184.00,3.4356
1183.00,3.4261
1182.00,3.4125
1181.00,3.3908
1180.00,3.3596
1179.00,3.3266
1178.00,3.3030
1177.00,3.2926
1176.00,3.2905
1175.00,3.2881
1174.00,3.2814
1173.00,3.2734
1172.00,3.2688
1171.00,3.2687
1170.00,3.2680
1169.00,3.2597
1168.00,3.2429
1167.00,3.2235
1166.00,3.2068
1165.00,3.1915
1164.00,3.1734
1163.00,3.1512
1162.00,3.1278
1161.00,3.1063
1160.00,3.0889
1159.00,3.0759
1158.00,3.0636
1157.00,3.0469
1156.00,3.0246
1155.00,3.0005
1154.00,2.9775
1153.00,2.9538
1152.00,2.9269
1151.00,2.8979
1150.00,2.8705
1149.00,2.8459
1148.00,2.8228
1147.00,2.8003
1146.00,2.7782
1145.00,2.7553
1144.00,2.7303
1143.00,2.7037
1142.00,2.6781
1141.00,2.6559
1140.00,2.6379
1139.00,2.6237
1138.00,2.6130
1137.00,2.6072
1136.00,2.6086
1135.00,2.6197
1134.00,2.6423
1133.00,2.6771
1132.00,2.7242
1131.00,2.7819
1130.00,2.8463
1129.00,2.9140
1128.00,2.9870
1127.00,3.0721
1126.00,3.1727
1125.00,3.2817
1124.00,3.3848
1123.00,3.4755
1122.00,3.5591
1121.00,3.6391
1120.00,3.7039
1119.00,3.7349
1118.00,3.7332
1117.00,3.7022
1116.00,3.6386
1115.00,3.5541
1114.00,3.4685
1113.00,3.3897
1112.00,3.3123
1111.00,3.2333
1110.00,3.1551
1109.00,3.0799
1108.00,3.0102
1107.00,2.9509
1106.00,2.9050
1105.00,2.8709
1104.00,2.8443
1103.00,2.8220
1102.00,2.8038
1101.00,2.7909
1100.00,2.7862
1099.00,2.7931
1098.00,2.8127
1097.00,2.8409
1096.00,2.8700
1095.00,2.8950
1094.00,2.9177
1093.00,2.9430
1092.00,2.9733
1091.00,3.0073
1090.00,3.0405
1089.00,3.0670
1088.00,3.0829
1087.00,3.0921
1086.00,3.1034
1085.00,3.1224
1084.00,3.1473
1083.00,3.1744
1082.00,3.2035
1081.00,3.2371
1080.00,3.2734
1079.00,3.3035
1078.00,3.3189
1077.00,3.3224
1076.00,3.3268
1075.00,3.3445
1074.00,3.3792
1073.00,3.4231
1072.00,3.4615
1071.00,3.4850
1070.00,3.4941
1069.00,3.4960
1068.00,3.4978
1067.00,3.4969
1066.00,3.4868
1065.00,3.4729
1064.00,3.4727
1063.00,3.4975
1062.00,3.5389
1061.00,3.5712
1060.00,3.5750
1059.00,3.5600
1058.00,3.5490
1057.00,3.5546
1056.00,3.5721
1055.00,3.5855
1054.00,3.5824
1053.00,3.5694
1052.00,3.5661
1051.00,3.5815
1050.00,3.5973
1049.00,3.5840
1048.00,3.5470
1047.00,3.5246
1046.00,3.5394
1045.00,3.5830
1044.00,3.6308
1043.00,3.6693
1042.00,3.6988
1041.00,3.7129
1040.00,3.7082
1039.00,3.7039
1038.00,3.7217
1037.00,3.7594
1036.00,3.7942
1035.00,3.8144
1034.00,3.8351
1033.00,3.8671
1032.00,3.8944
1031.00,3.8928
1030.00,3.8629
1029.00,3.8242
1028.00,3.7890
1027.00,3.7644
1026.00,3.7581
1025.00,3.7697
1024.00,3.7891
1023.00,3.8110
1022.00,3.8418
1021.00,3.8847
1020.00,3.9270
1019.00,3.9483
1018.00,3.9403
1017.00,3.9108
1016.00,3.8756
1015.00,3.8536
1014.00,3.8588
1013.00,3.8870
1012.00,3.9136
1011.00,3.9160
1010.00,3.9017
1009.00,3.8923
1008.00,3.8978
1007.00,3.9169
1006.00,3.9461
1005.00,3.9847
1004.00,4.0362
1003.00,4.1090
1002.00,4.2074
1001.00,4.3205
1000.00,4.4270
999.00,4.3943
998.00,4.2146
997.00,4.0950
996.00,4.0715
995.00,4.1346
994.00,4.2630
993.00,4.3852
992.00,4.4408
991.00,4.4953
990.00,4.6205
989.00,4.8196
988.00,4.9959
987.00,4.9318
986.00,4.6349
985.00,4.4165
984.00,4.2677
983.00,4.1686
982.00,4.1146
981.00,4.0950
980.00,4.1015
979.00,4.1513
978.00,4.2786
977.00,4.4904
976.00,4.5763
975.00,4.4336
974.00,4.3516
973.00,4.3255
972.00,4.2680
971.00,4.1753
970.00,4.1131
969.00,4.1182
968.00,4.1490
967.00,4.1508
966.00,4.1569
965.00,4.1966
964.00,4.2693
963.00,4.3739
962.00,4.4912
961.00,4.5649
960.00,4.5568
959.00,4.5091
958.00,4.4920
957.00,4.5455
956.00,4.7133
955.00,4.9381
954.00,4.7183
953.00,4.4824
952.00,4.3074
951.00,4.1737
950.00,4.1018
949.00,4.0917
948.00,4.1347
947.00,4.2406
946.00,4.3583
945.00,4.3454
944.00,4.3840
943.00,4.6096
942.00,4.4905
941.00,4.2157
940.00,4.1213
939.00,4.1620
938.00,4.3109
937.00,4.5388
936.00,4.8231
935.00,4.9297
934.00,4.6346
933.00,4.5962
932.00,4.9180
931.00,4.9349
930.00,4.5375
929.00,4.3627
928.00,4.3136
927.00,4.3697
926.00,4.5086
925.00,4.4924
924.00,4.3119
923.00,4.2153
922.00,4.2129
921.00,4.2665
920.00,4.3089
919.00,4.3392
918.00,4.5188
917.00,5.0911
916.00,4.8361
915.00,4.8319
914.00,4.9269
913.00,4.5432
912.00,4.3074
911.00,4.1577
910.00,4.0580
909.00,4.0064
908.00,3.9806
907.00,3.9536
906.00,3.9488
905.00,4.0193
904.00,4.1974
903.00,4.5605
902.00,5.0975
901.00,4.5760
900.00,4.4361
899.00,4.5095
898.00,4.9658
897.00,4.6944
896.00,4.2729
895.00,4.1316
894.00,4.1163
893.00,4.2001
892.00,4.3368
891.00,4.3950
890.00,4.2995
889.00,4.1850
888.00,4.1301
887.00,4.1162
886.00,4.1072
885.00,4.1113
884.00,4.1166
883.00,4.0877
882.00,4.0907
881.00,4.1624
880.00,4.2534
879.00,4.3094
878.00,4.4459
877.00,4.7331
876.00,4.7626
875.00,5.1415
874.00,4.5788
873.00,4.2024
872.00,4.0473
871.00,3.9758
870.00,3.9769
869.00,4.0404
868.00,4.1127
867.00,4.1403
866.00,4.1196
865.00,4.0862
864.00,4.0910
863.00,4.1226
862.00,4.1567
861.00,4.2265
860.00,4.3853
859.00,4.6934
858.00,4.7827
857.00,4.4560
856.00,4.2649
855.00,4.1306
854.00,4.0191
853.00,3.9714
852.00,4.0167
851.00,4.1765
850.00,4.4671
849.00,4.8354
848.00,4.8808
847.00,4.3852
846.00,4.0847
845.00,3.9593
844.00,3.9479
843.00,3.9912
842.00,4.0154
841.00,4.0034
840.00,3.9926
839.00,4.0119
838.00,4.0591
837.00,4.0979
836.00,4.1131
835.00,4.1451
834.00,4.2343
833.00,4.3903
832.00,4.5176
831.00,4.3650
830.00,4.1222
829.00,4.0011
828.00,3.9787
827.00,3.9820
826.00,3.9756
825.00,3.9928
824.00,4.0666
823.00,4.1924
822.00,4.3252
821.00,4.3386
820.00,4.1743
819.00,4.0063
818.00,3.9226
817.00,3.9210
816.00,3.9585
815.00,3.9665
814.00,3.9224
813.00,3.8845
812.00,3.8987
811.00,3.9728
810.00,4.0831
809.00,4.1994
808.00,4.2754
807.00,4.1441
806.00,3.9744
805.00,3.9302
804.00,3.9938
803.00,4.0757
802.00,4.0652
801.00,4.0031
800.00,3.9769
799.00,3.9891
798.00,4.0155
797.00,4.0575
796.00,4.1329
795.00,4.1912
794.00,4.1039
793.00,3.9619
792.00,3.8937
791.00,3.9232
790.00,4.0455
789.00,4.2323
788.00,4.3695
787.00,4.3007
786.00,4.1222
785.00,3.9871
784.00,3.9286
783.00,3.9399
782.00,4.0179
781.00,4.1686
780.00,4.3328
779.00,4.3122
778.00,4.1832
777.00,4.0998
776.00,4.0917
775.00,4.1782
774.00,4.2798
773.00,4.2059
772.00,4.0463
771.00,3.9182
770.00,3.8644
769.00,3.8932
768.00,3.9749
767.00,4.0404
766.00,4.0161
765.00,3.9586
764.00,3.9567
763.00,4.0417
762.00,4.1728
761.00,4.1563
760.00,4.0174
759.00,3.9199
758.00,3.8800
757.00,3.8721
756.00,3.8583
755.00,3.8270
754.00,3.8007
753.00,3.7891
752.00,3.7759
751.00,3.7559
750.00,3.7591
749.00,3.8181
748.00,3.9320
747.00,4.0465
746.00,4.1008
745.00,4.1221
744.00,4.1485
743.00,4.1657
742.00,4.1603
741.00,4.1484
740.00,4.1374
739.00,4.1375
738.00,4.1820
737.00,4.1754
736.00,4.0377
735.00,3.9178
734.00,3.8554
733.00,3.8272
732.00,3.8208
731.00,3.8254
730.00,3.8314
729.00,3.8397
728.00,3.8605
727.00,3.9112
726.00,4.0185
725.00,4.2211
724.00,4.4321
723.00,4.3719
722.00,4.2226
721.00,4.0862
720.00,3.9878
719.00,3.9736
718.00,4.0328
717.00,4.0540
716.00,3.9776
715.00,3.8989
714.00,3.8576
713.00,3.8526
712.00,3.8974
711.00,4.0083
710.00,4.1023
709.00,4.0863
708.00,4.0456
707.00,4.0306
706.00,4.0695
705.00,4.1498
704.00,4.1936
703.00,4.1734
702.00,4.1250
701.00,4.0659
700.00,3.9990
699.00,3.9404
698.00,3.9076
697.00,3.8998
696.00,3.9095
695.00,3.9451
694.00,4.0358
693.00,4.1684
692.00,4.1401
691.00,3.9781
690.00,3.8941
689.00,3.9003
688.00,3.9525
687.00,4.0065
686.00,4.0028
685.00,3.9359
684.00,3.8868
683.00,3.8928
682.00,3.9357
681.00,3.9695
680.00,3.9483
679.00,3.8805
678.00,3.8029
677.00,3.7378
676.00,3.6985
675.00,3.6986
674.00,3.7427
673.00,3.8141
672.00,3.8655
671.00,3.8437
670.00,3.7623
669.00,3.6696
668.00,3.6018
667.00,3.5878
666.00,3.6278
665.00,3.6922
664.00,3.7663
663.00,3.8542
662.00,3.9230
661.00,3.9798
660.00,4.0375
659.00,3.9795
658.00,3.8525
657.00,3.7723
656.00,3.7323
655.00,3.7236
654.00,3.7693
653.00,3.8653
652.00,3.9271
651.00,3.8892
650.00,3.8045
649.00,3.7512
648.00,3.7641
647.00,3.8798
646.00,4.1594
645.00,4.2360
644.00,4.0247
643.00,4.0522
642.00,4.3366
641.00,4.6070
640.00,4.6078
639.00,4.4839
638.00,4.2520
637.00,4.1179
636.00,4.0714
635.00,4.0575
634.00,4.0028
633.00,3.8815
632.00,3.7771
631.00,3.7292
630.00,3.7453
629.00,3.7840
628.00,3.7640
627.00,3.7091
626.00,3.7034
625.00,3.7958
624.00,3.9522
623.00,4.0606
622.00,4.0737
621.00,4.1874
620.00,4.4908
619.00,4.2089
618.00,3.9315
617.00,3.8814
616.00,3.9855
615.00,4.2334
614.00,4.5527
613.00,4.8533
612.00,4.6168
611.00,4.2745
610.00,4.1380
609.00,4.1148
608.00,4.0761
607.00,3.9757
606.00,3.8920
605.00,3.8613
604.00,3.8404
603.00,3.7878
602.00,3.7303
601.00,3.7164
600.00,3.7615
599.00,3.8440
598.00,3.9175
597.00,3.9181
596.00,3.8905
595.00,3.9153
594.00,4.0883
593.00,4.3729
592.00,4.2816
591.00,4.2276
590.00,4.3316
589.00,4.3605
588.00,4.2924
587.00,4.3021
586.00,4.3893
585.00,4.1279
584.00,3.8532
583.00,3.7528
582.00,3.8048
581.00,3.8539
580.00,3.7839
579.00,3.7831
578.00,3.8809
577.00,3.9819
576.00,4.0277
575.00,4.0910
574.00,4.1955
573.00,4.4939
572.00,4.5580
571.00,3.9727
570.00,3.7226
569.00,3.6201
568.00,3.5835
567.00,3.6103
566.00,3.7023
565.00,3.9076
564.00,4.2349
563.00,4.6427
562.00,4.7667
561.00,4.3633
560.00,4.2879
559.00,4.2790
558.00,3.9886
557.00,3.8268
556.00,3.7991
555.00,3.8376
554.00,3.9110
553.00,4.0384
552.00,4.0579
551.00,3.8199
550.00,3.6791
549.00,3.7134
548.00,3.8536
547.00,4.0979
546.00,4.2513
545.00,3.9152
544.00,3.7171
543.00,3.6636
542.00,3.6807
541.00,3.7657
540.00,3.9241
539.00,4.1854
538.00,4.1082
537.00,3.8150
536.00,3.6913
535.00,3.7062
534.00,3.7916
533.00,3.8588
532.00,3.8128
531.00,3.6844
530.00,3.5867
529.00,3.5379
528.00,3.4998
527.00,3.4598
526.00,3.4273
525.00,3.4111
524.00,3.4014
523.00,3.4175
522.00,3.4910
521.00,3.6709
520.00,3.9206
519.00,3.8403
518.00,3.5976
517.00,3.5191
516.00,3.5588
515.00,3.8201
514.00,4.4247
513.00,3.9060
512.00,3.6362
511.00,3.6196
510.00,3.7204
509.00,3.6507
508.00,3.4346
507.00,3.3118
506.00,3.2420
505.00,3.2141
504.00,3.2278
503.00,3.2800
502.00,3.3605
501.00,3.4639
500.00,3.6099
499.00,3.7365
498.00,3.7519
497.00,3.7476
496.00,3.7156
495.00,3.6793
494.00,3.7416
493.00,3.9593
492.00,4.2986
491.00,4.3624
490.00,4.0241
489.00,3.6948
488.00,3.4929
487.00,3.3892
486.00,3.3603
485.00,3.3652
484.00,3.3729
483.00,3.3922
482.00,3.3804
481.00,3.3528
480.00,3.3526
479.00,3.3414
478.00,3.3026
477.00,3.2755
476.00,3.2673
475.00,3.2294
474.00,3.1650
473.00,3.1111
472.00,3.0473
471.00,2.9582
470.00,2.8808
469.00,2.8571
468.00,2.9042
467.00,3.0105
466.00,3.1287
465.00,3.2100
464.00,3.2495
463.00,3.2570
462.00,3.2550
461.00,3.2246
460.00,3.0989
459.00,2.9400
458.00,2.8461
457.00,2.8414
456.00,2.8982
455.00,2.9542
454.00,2.9675
453.00,2.9598
452.00,2.9693
451.00,3.0138
450.00,3.0881
449.00,3.1591
448.00,3.1738
447.00,3.1307
446.00,3.0891
445.00,3.0706
444.00,3.0525
443.00,3.0280
442.00,3.0015
441.00,2.9775
440.00,2.9698
439.00,2.9819
438.00,3.0137
437.00,3.0562
436.00,3.0616
435.00,3.0257
434.00,3.0024
433.00,2.9932
432.00,2.9691
431.00,2.9269
430.00,2.8861
429.00,2.8628
428.00,2.8629
427.00,2.8974
426.00,2.9858
425.00,3.1322
424.00,3.2543
423.00,3.1902
422.00,3.0089
421.00,2.8580
420.00,2.7731
419.00,2.7588
418.00,2.7925
417.00,2.8335
416.00,2.8513
415.00,2.8269
414.00,2.7941
413.00,2.8385
412.00,2.9125
411.00,2.8175
410.00,2.6800
409.00,2.6146
408.00,2.5971
407.00,2.5904
406.00,2.5695
405.00,2.5558
404.00,2.5545
403.00,2.5334
402.00,2.4776
401.00,2.4203
400.00,2.3781
