Created as New Dataset,Sample 181 By Administrator Date Friday, November 26 2021
cm-1,A
7000.00,1.1721
6999.00,1.1717
6998.00,1.1712
6997.00,1.1705
6996.00,1.1696
6995.00,1.1688
6994.00,1.1678
6993.00,1.1667
6992.00,1.1655
6991.00,1.1644
6990.00,1.1634
6989.00,1.1625
6988.00,1.1615
6987.00,1.1605
6986.00,1.1596
6985.00,1.1587
6984.00,1.1574
6983.00,1.1558
6982.00,1.1540
6981.00,1.1522
6980.00,1.1504
6979.00,1.1489
6978.00,1.1478
6977.00,1.1470
6976.00,1.1460
6975.00,1.1445
6974.00,1.1428
6973.00,1.1411
6972.00,1.1391
6971.00,1.1365
6970.00,1.1338
6969.00,1.1314
6968.00,1.1296
6967.00,1.1278
6966.00,1.1259
6965.00,1.1238
6964.00,1.1216
6963.00,1.1194
6962.00,1.1171
6961.00,1.1147
6960.00,1.1123
6959.00,1.1098
6958.00,1.1072
6957.00,1.1047
6956.00,1.1023
6955.00,1.0999
6954.00,1.0973
6953.00,1.0945
6952.00,1.0917
6951.00,1.0890
6950.00,1.0865
6949.00,1.0840
6948.00,1.0815
6947.00,1.0789
6946.00,1.0761
6945.00,1.0732
6944.00,1.0701
6943.00,1.0670
6942.00,1.0640
6941.00,1.0610
6940.00,1.0579
6939.00,1.0548
6938.00,1.0520
6937.00,1.0493
6936.00,1.0465
6935.00,1.0435
6934.00,1.0403
6933.00,1.0371
6932.00,1.0340
6931.00,1.0310
6930.00,1.0281
6929.00,1.0252
6928.00,1.0219
6927.00,1.0185
6926.00,1.0151
6925.00,1.0119
6924.00,1.0087
6923.00,1.0053
6922.00,1.0018
6921.00,0.9983
6920.00,0.9950
6919.00,0.9919
6918.00,0.9889
6917.00,0.9858
6916.00,0.9827
6915.00,0.9794
6914.00,0.9759
6913.00,0.9725
6912.00,0.9691
6911.00,0.9658
6910.00,0.9626
6909.00,0.9593
6908.00,0.9559
6907.00,0.9527
6906.00,0.9497
6905.00,0.9466
6904.00,0.9432
6903.00,0.9396
6902.00,0.9361
6901.00,0.9328
6900.00,0.9296
6899.00,0.9262
6898.00,0.9228
6897.00,0.9196
6896.00,0.9165
6895.00,0.9134
6894.00,0.9103
6893.00,0.9074
6892.00,0.9046
6891.00,0.9019
6890.00,0.8988
6889.00,0.8957
6888.00,0.8927
6887.00,0.8899
6886.00,0.8871
6885.00,0.8842
6884.00,0.8812
6883.00,0.8782
6882.00,0.8753
6881.00,0.8724
6880.00,0.8693
6879.00,0.8661
6878.00,0.8631
6877.00,0.8605
6876.00,0.8580
6875.00,0.8554
6874.00,0.8528
6873.00,0.8503
6872.00,0.8477
6871.00,0.8450
6870.00,0.8424
6869.00,0.8398
6868.00,0.8372
6867.00,0.8347
6866.00,0.8324
6865.00,0.8302
6864.00,0.8281
6863.00,0.8260
6862.00,0.8238
6861.00,0.8216
6860.00,0.8194
6859.00,0.8172
6858.00,0.8150
6857.00,0.8129
6856.00,0.8107
6855.00,0.8086
6854.00,0.8067
6853.00,0.8050
6852.00,0.8033
6851.00,0.8016
6850.00,0.8000
6849.00,0.7984
6848.00,0.7969
6847.00,0.7953
6846.00,0.7936
6845.00,0.7920
6844.00,0.7905
6843.00,0.7890
6842.00,0.7876
6841.00,0.7863
6840.00,0.7851
6839.00,0.7837
6838.00,0.7824
6837.00,0.7811
6836.00,0.7799
6835.00,0.7789
6834.00,0.7780
6833.00,0.7771
6832.00,0.7763
6831.00,0.7755
6830.00,0.7747
6829.00,0.7739
6828.00,0.7731
6827.00,0.7723
6826.00,0.7715
6825.00,0.7710
6824.00,0.7706
6823.00,0.7702
6822.00,0.7698
6821.00,0.7693
6820.00,0.7688
6819.00,0.7682
6818.00,0.7678
6817.00,0.7674
6816.00,0.7671
6815.00,0.7669
6814.00,0.7669
6813.00,0.7670
6812.00,0.7671
6811.00,0.7670
6810.00,0.7669
6809.00,0.7667
6808.00,0.7667
6807.00,0.7668
6806.00,0.7670
6805.00,0.7673
6804.00,0.7678
6803.00,0.7683
6802.00,0.7688
6801.00,0.7693
6800.00,0.7699
6799.00,0.7706
6798.00,0.7715
6797.00,0.7724
6796.00,0.7733
6795.00,0.7741
6794.00,0.7751
6793.00,0.7762
6792.00,0.7773
6791.00,0.7783
6790.00,0.7795
6789.00,0.7808
6788.00,0.7823
6787.00,0.7837
6786.00,0.7852
6785.00,0.7866
6784.00,0.7881
6783.00,0.7895
6782.00,0.7910
6781.00,0.7928
6780.00,0.7946
6779.00,0.7966
6778.00,0.7986
6777.00,0.8008
6776.00,0.8030
6775.00,0.8052
6774.00,0.8074
6773.00,0.8095
6772.00,0.8116
6771.00,0.8137
6770.00,0.8161
6769.00,0.8187
6768.00,0.8212
6767.00,0.8237
6766.00,0.8263
6765.00,0.8292
6764.00,0.8321
6763.00,0.8349
6762.00,0.8375
6761.00,0.8402
6760.00,0.8429
6759.00,0.8456
6758.00,0.8483
6757.00,0.8511
6756.00,0.8540
6755.00,0.8571
6754.00,0.8603
6753.00,0.8635
6752.00,0.8668
6751.00,0.8700
6750.00,0.8733
6749.00,0.8765
6748.00,0.8796
6747.00,0.8828
6746.00,0.8860
6745.00,0.8894
6744.00,0.8929
6743.00,0.8965
6742.00,0.9001
6741.00,0.9039
6740.00,0.9077
6739.00,0.9114
6738.00,0.9150
6737.00,0.9185
6736.00,0.9218
6735.00,0.9251
6734.00,0.9286
6733.00,0.9321
6732.00,0.9358
6731.00,0.9396
6730.00,0.9435
6729.00,0.9474
6728.00,0.9514
6727.00,0.9554
6726.00,0.9594
6725.00,0.9633
6724.00,0.9670
6723.00,0.9705
6722.00,0.9740
6721.00,0.9777
6720.00,0.9812
6719.00,0.9848
6718.00,0.9884
6717.00,0.9921
6716.00,0.9959
6715.00,0.9997
6714.00,1.0034
6713.00,1.0073
6712.00,1.0113
6711.00,1.0151
6710.00,1.0187
6709.00,1.0225
6708.00,1.0262
6707.00,1.0299
6706.00,1.0334
6705.00,1.0369
6704.00,1.0405
6703.00,1.0443
6702.00,1.0481
6701.00,1.0517
6700.00,1.0550
6699.00,1.0582
6698.00,1.0616
6697.00,1.0650
6696.00,1.0684
6695.00,1.0717
6694.00,1.0751
6693.00,1.0788
6692.00,1.0825
6691.00,1.0861
6690.00,1.0896
6689.00,1.0933
6688.00,1.0968
6687.00,1.1001
6686.00,1.1032
6685.00,1.1063
6684.00,1.1094
6683.00,1.1126
6682.00,1.1157
6681.00,1.1188
6680.00,1.1217
6679.00,1.1245
6678.00,1.1272
6677.00,1.1298
6676.00,1.1324
6675.00,1.1349
6674.00,1.1375
6673.00,1.1404
6672.00,1.1435
6671.00,1.1464
6670.00,1.1489
6669.00,1.1511
6668.00,1.1533
6667.00,1.1556
6666.00,1.1580
6665.00,1.1603
6664.00,1.1624
6663.00,1.1646
6662.00,1.1667
6661.00,1.1687
6660.00,1.1706
6659.00,1.1724
6658.00,1.1741
6657.00,1.1761
6656.00,1.1782
6655.00,1.1805
6654.00,1.1826
6653.00,1.1846
6652.00,1.1863
6651.00,1.1877
6650.00,1.1887
6649.00,1.1895
6648.00,1.1903
6647.00,1.1916
6646.00,1.1932
6645.00,1.1950
6644.00,1.1967
6643.00,1.1983
6642.00,1.1997
6641.00,1.2010
6640.00,1.2019
6639.00,1.2026
6638.00,1.2032
6637.00,1.2040
6636.00,1.2051
6635.00,1.2061
6634.00,1.2070
6633.00,1.2075
6632.00,1.2079
6631.00,1.2084
6630.00,1.2093
6629.00,1.2103
6628.00,1.2109
6627.00,1.2113
6626.00,1.2117
6625.00,1.2120
6624.00,1.2119
6623.00,1.2116
6622.00,1.2114
6621.00,1.2116
6620.00,1.2118
6619.00,1.2119
6618.00,1.2120
6617.00,1.2122
6616.00,1.2124
6615.00,1.2123
6614.00,1.2119
6613.00,1.2114
6612.00,1.2110
6611.00,1.2107
6610.00,1.2102
6609.00,1.2097
6608.00,1.2092
6607.00,1.2085
6606.00,1.2077
6605.00,1.2067
6604.00,1.2056
6603.00,1.2046
6602.00,1.2038
6601.00,1.2031
6600.00,1.2023
6599.00,1.2014
6598.00,1.2003
6597.00,1.1992
6596.00,1.1980
6595.00,1.1968
6594.00,1.1955
6593.00,1.1942
6592.00,1.1930
6591.00,1.1917
6590.00,1.1902
6589.00,1.1884
6588.00,1.1866
6587.00,1.1849
6586.00,1.1834
6585.00,1.1821
6584.00,1.1805
6583.00,1.1787
6582.00,1.1766
6581.00,1.1744
6580.00,1.1723
6579.00,1.1701
6578.00,1.1679
6577.00,1.1656
6576.00,1.1632
6575.00,1.1606
6574.00,1.1579
6573.00,1.1554
6572.00,1.1530
6571.00,1.1506
6570.00,1.1483
6569.00,1.1462
6568.00,1.1443
6567.00,1.1424
6566.00,1.1401
6565.00,1.1375
6564.00,1.1348
6563.00,1.1321
6562.00,1.1295
6561.00,1.1269
6560.00,1.1242
6559.00,1.1212
6558.00,1.1180
6557.00,1.1147
6556.00,1.1114
6555.00,1.1082
6554.00,1.1051
6553.00,1.1021
6552.00,1.0993
6551.00,1.0967
6550.00,1.0940
6549.00,1.0911
6548.00,1.0880
6547.00,1.0848
6546.00,1.0816
6545.00,1.0784
6544.00,1.0752
6543.00,1.0718
6542.00,1.0683
6541.00,1.0648
6540.00,1.0614
6539.00,1.0579
6538.00,1.0543
6537.00,1.0508
6536.00,1.0476
6535.00,1.0445
6534.00,1.0413
6533.00,1.0380
6532.00,1.0346
6531.00,1.0312
6530.00,1.0277
6529.00,1.0241
6528.00,1.0204
6527.00,1.0167
6526.00,1.0133
6525.00,1.0101
6524.00,1.0067
6523.00,1.0033
6522.00,0.9999
6521.00,0.9965
6520.00,0.9930
6519.00,0.9895
6518.00,0.9861
6517.00,0.9827
6516.00,0.9793
6515.00,0.9759
6514.00,0.9724
6513.00,0.9690
6512.00,0.9657
6511.00,0.9624
6510.00,0.9591
6509.00,0.9558
6508.00,0.9524
6507.00,0.9491
6506.00,0.9458
6505.00,0.9426
6504.00,0.9393
6503.00,0.9359
6502.00,0.9326
6501.00,0.9294
6500.00,0.9262
6499.00,0.9228
6498.00,0.9194
6497.00,0.9162
6496.00,0.9132
6495.00,0.9102
6494.00,0.9072
6493.00,0.9042
6492.00,0.9012
6491.00,0.8982
6490.00,0.8951
6489.00,0.8920
6488.00,0.8889
6487.00,0.8859
6486.00,0.8830
6485.00,0.8802
6484.00,0.8774
6483.00,0.8747
6482.00,0.8720
6481.00,0.8695
6480.00,0.8670
6479.00,0.8645
6478.00,0.8620
6477.00,0.8594
6476.00,0.8566
6475.00,0.8537
6474.00,0.8508
6473.00,0.8481
6472.00,0.8455
6471.00,0.8429
6470.00,0.8405
6469.00,0.8383
6468.00,0.8362
6467.00,0.8341
6466.00,0.8320
6465.00,0.8300
6464.00,0.8280
6463.00,0.8259
6462.00,0.8238
6461.00,0.8217
6460.00,0.8196
6459.00,0.8174
6458.00,0.8154
6457.00,0.8136
6456.00,0.8119
6455.00,0.8103
6454.00,0.8086
6453.00,0.8069
6452.00,0.8054
6451.00,0.8039
6450.00,0.8025
6449.00,0.8010
6448.00,0.7996
6447.00,0.7982
6446.00,0.7969
6445.00,0.7957
6444.00,0.7944
6443.00,0.7933
6442.00,0.7923
6441.00,0.7915
6440.00,0.7908
6439.00,0.7901
6438.00,0.7894
6437.00,0.7887
6436.00,0.7882
6435.00,0.7876
6434.00,0.7872
6433.00,0.7868
6432.00,0.7864
6431.00,0.7862
6430.00,0.7860
6429.00,0.7859
6428.00,0.7859
6427.00,0.7859
6426.00,0.7860
6425.00,0.7863
6424.00,0.7868
6423.00,0.7873
6422.00,0.7877
6421.00,0.7881
6420.00,0.7885
6419.00,0.7890
6418.00,0.7895
6417.00,0.7903
6416.00,0.7913
6415.00,0.7925
6414.00,0.7938
6413.00,0.7951
6412.00,0.7963
6411.00,0.7974
6410.00,0.7986
6409.00,0.8000
6408.00,0.8016
6407.00,0.8031
6406.00,0.8047
6405.00,0.8063
6404.00,0.8080
6403.00,0.8096
6402.00,0.8113
6401.00,0.8131
6400.00,0.8150
6399.00,0.8171
6398.00,0.8193
6397.00,0.8216
6396.00,0.8238
6395.00,0.8260
6394.00,0.8284
6393.00,0.8310
6392.00,0.8337
6391.00,0.8365
6390.00,0.8392
6389.00,0.8420
6388.00,0.8448
6387.00,0.8476
6386.00,0.8504
6385.00,0.8532
6384.00,0.8561
6383.00,0.8591
6382.00,0.8621
6381.00,0.8651
6380.00,0.8683
6379.00,0.8715
6378.00,0.8747
6377.00,0.8781
6376.00,0.8816
6375.00,0.8850
6374.00,0.8884
6373.00,0.8920
6372.00,0.8956
6371.00,0.8992
6370.00,0.9029
6369.00,0.9068
6368.00,0.9106
6367.00,0.9143
6366.00,0.9179
6365.00,0.9216
6364.00,0.9252
6363.00,0.9287
6362.00,0.9323
6361.00,0.9361
6360.00,0.9400
6359.00,0.9440
6358.00,0.9480
6357.00,0.9520
6356.00,0.9559
6355.00,0.9599
6354.00,0.9636
6353.00,0.9674
6352.00,0.9713
6351.00,0.9753
6350.00,0.9794
6349.00,0.9835
6348.00,0.9877
6347.00,0.9918
6346.00,0.9959
6345.00,1.0000
6344.00,1.0039
6343.00,1.0078
6342.00,1.0117
6341.00,1.0157
6340.00,1.0197
6339.00,1.0239
6338.00,1.0281
6337.00,1.0322
6336.00,1.0361
6335.00,1.0397
6334.00,1.0433
6333.00,1.0467
6332.00,1.0503
6331.00,1.0540
6330.00,1.0580
6329.00,1.0622
6328.00,1.0664
6327.00,1.0705
6326.00,1.0744
6325.00,1.0782
6324.00,1.0819
6323.00,1.0855
6322.00,1.0891
6321.00,1.0926
6320.00,1.0962
6319.00,1.0998
6318.00,1.1033
6317.00,1.1066
6316.00,1.1099
6315.00,1.1132
6314.00,1.1167
6313.00,1.1203
6312.00,1.1240
6311.00,1.1276
6310.00,1.1311
6309.00,1.1344
6308.00,1.1376
6307.00,1.1404
6306.00,1.1430
6305.00,1.1458
6304.00,1.1489
6303.00,1.1523
6302.00,1.1555
6301.00,1.1585
6300.00,1.1613
6299.00,1.1639
6298.00,1.1665
6297.00,1.1690
6296.00,1.1714
6295.00,1.1739
6294.00,1.1764
6293.00,1.1790
6292.00,1.1816
6291.00,1.1842
6290.00,1.1868
6289.00,1.1894
6288.00,1.1918
6287.00,1.1938
6286.00,1.1957
6285.00,1.1974
6284.00,1.1993
6283.00,1.2012
6282.00,1.2033
6281.00,1.2055
6280.00,1.2077
6279.00,1.2099
6278.00,1.2119
6277.00,1.2135
6276.00,1.2150
6275.00,1.2166
6274.00,1.2183
6273.00,1.2197
6272.00,1.2208
6271.00,1.2216
6270.00,1.2224
6269.00,1.2233
6268.00,1.2243
6267.00,1.2255
6266.00,1.2270
6265.00,1.2285
6264.00,1.2297
6263.00,1.2305
6262.00,1.2311
6261.00,1.2317
6260.00,1.2321
6259.00,1.2326
6258.00,1.2332
6257.00,1.2341
6256.00,1.2350
6255.00,1.2357
6254.00,1.2363
6253.00,1.2367
6252.00,1.2371
6251.00,1.2373
6250.00,1.2374
6249.00,1.2373
6248.00,1.2372
6247.00,1.2370
6246.00,1.2369
6245.00,1.2368
6244.00,1.2366
6243.00,1.2363
6242.00,1.2362
6241.00,1.2361
6240.00,1.2359
6239.00,1.2354
6238.00,1.2349
6237.00,1.2345
6236.00,1.2339
6235.00,1.2332
6234.00,1.2324
6233.00,1.2317
6232.00,1.2310
6231.00,1.2302
6230.00,1.2294
6229.00,1.2285
6228.00,1.2277
6227.00,1.2266
6226.00,1.2253
6225.00,1.2239
6224.00,1.2225
6223.00,1.2211
6222.00,1.2195
6221.00,1.2180
6220.00,1.2166
6219.00,1.2153
6218.00,1.2138
6217.00,1.2121
6216.00,1.2102
6215.00,1.2084
6214.00,1.2065
6213.00,1.2046
6212.00,1.2025
6211.00,1.2004
6210.00,1.1983
6209.00,1.1961
6208.00,1.1938
6207.00,1.1915
6206.00,1.1893
6205.00,1.1872
6204.00,1.1851
6203.00,1.1829
6202.00,1.1806
6201.00,1.1782
6200.00,1.1757
6199.00,1.1729
6198.00,1.1699
6197.00,1.1671
6196.00,1.1643
6195.00,1.1615
6194.00,1.1587
6193.00,1.1559
6192.00,1.1531
6191.00,1.1504
6190.00,1.1476
6189.00,1.1447
6188.00,1.1416
6187.00,1.1383
6186.00,1.1349
6185.00,1.1317
6184.00,1.1284
6183.00,1.1252
6182.00,1.1220
6181.00,1.1188
6180.00,1.1155
6179.00,1.1120
6178.00,1.1084
6177.00,1.1049
6176.00,1.1014
6175.00,1.0977
6174.00,1.0940
6173.00,1.0903
6172.00,1.0867
6171.00,1.0830
6170.00,1.0795
6169.00,1.0761
6168.00,1.0726
6167.00,1.0690
6166.00,1.0653
6165.00,1.0615
6164.00,1.0577
6163.00,1.0538
6162.00,1.0499
6161.00,1.0462
6160.00,1.0424
6159.00,1.0386
6158.00,1.0348
6157.00,1.0310
6156.00,1.0273
6155.00,1.0236
6154.00,1.0199
6153.00,1.0162
6152.00,1.0124
6151.00,1.0086
6150.00,1.0047
6149.00,1.0009
6148.00,0.9971
6147.00,0.9934
6146.00,0.9898
6145.00,0.9862
6144.00,0.9826
6143.00,0.9790
6142.00,0.9753
6141.00,0.9717
6140.00,0.9680
6139.00,0.9643
6138.00,0.9605
6137.00,0.9569
6136.00,0.9535
6135.00,0.9501
6134.00,0.9467
6133.00,0.9433
6132.00,0.9400
6131.00,0.9367
6130.00,0.9334
6129.00,0.9301
6128.00,0.9268
6127.00,0.9235
6126.00,0.9203
6125.00,0.9170
6124.00,0.9137
6123.00,0.9104
6122.00,0.9072
6121.00,0.9040
6120.00,0.9008
6119.00,0.8977
6118.00,0.8947
6117.00,0.8917
6116.00,0.8886
6115.00,0.8855
6114.00,0.8825
6113.00,0.8796
6112.00,0.8767
6111.00,0.8737
6110.00,0.8707
6109.00,0.8678
6108.00,0.8649
6107.00,0.8620
6106.00,0.8591
6105.00,0.8563
6104.00,0.8535
6103.00,0.8507
6102.00,0.8479
6101.00,0.8451
6100.00,0.8424
6099.00,0.8399
6098.00,0.8374
6097.00,0.8350
6096.00,0.8325
6095.00,0.8301
6094.00,0.8277
6093.00,0.8253
6092.00,0.8229
6091.00,0.8204
6090.00,0.8180
6089.00,0.8157
6088.00,0.8134
6087.00,0.8110
6086.00,0.8087
6085.00,0.8065
6084.00,0.8045
6083.00,0.8026
6082.00,0.8007
6081.00,0.7988
6080.00,0.7968
6079.00,0.7949
6078.00,0.7930
6077.00,0.7912
6076.00,0.7894
6075.00,0.7877
6074.00,0.7861
6073.00,0.7846
6072.00,0.7832
6071.00,0.7818
6070.00,0.7804
6069.00,0.7790
6068.00,0.7777
6067.00,0.7764
6066.00,0.7752
6065.00,0.7740
6064.00,0.7729
6063.00,0.7718
6062.00,0.7709
6061.00,0.7702
6060.00,0.7694
6059.00,0.7688
6058.00,0.7683
6057.00,0.7680
6056.00,0.7676
6055.00,0.7672
6054.00,0.7668
6053.00,0.7666
6052.00,0.7664
6051.00,0.7664
6050.00,0.7664
6049.00,0.7666
6048.00,0.7669
6047.00,0.7673
6046.00,0.7676
6045.00,0.7680
6044.00,0.7685
6043.00,0.7690
6042.00,0.7696
6041.00,0.7703
6040.00,0.7711
6039.00,0.7720
6038.00,0.7731
6037.00,0.7744
6036.00,0.7757
6035.00,0.7771
6034.00,0.7785
6033.00,0.7800
6032.00,0.7815
6031.00,0.7830
6030.00,0.7846
6029.00,0.7865
6028.00,0.7885
6027.00,0.7906
6026.00,0.7928
6025.00,0.7949
6024.00,0.7971
6023.00,0.7992
6022.00,0.8014
6021.00,0.8038
6020.00,0.8063
6019.00,0.8089
6018.00,0.8116
6017.00,0.8143
6016.00,0.8170
6015.00,0.8197
6014.00,0.8225
6013.00,0.8254
6012.00,0.8283
6011.00,0.8313
6010.00,0.8344
6009.00,0.8376
6008.00,0.8409
6007.00,0.8444
6006.00,0.8479
6005.00,0.8515
6004.00,0.8552
6003.00,0.8589
6002.00,0.8625
6001.00,0.8661
6000.00,0.8698
5999.00,0.8735
5998.00,0.8772
5997.00,0.8811
5996.00,0.8850
5995.00,0.8889
5994.00,0.8930
5993.00,0.8973
5992.00,0.9016
5991.00,0.9058
5990.00,0.9099
5989.00,0.9140
5988.00,0.9181
5987.00,0.9222
5986.00,0.9264
5985.00,0.9307
5984.00,0.9351
5983.00,0.9396
5982.00,0.9442
5981.00,0.9487
5980.00,0.9532
5979.00,0.9577
5978.00,0.9622
5977.00,0.9668
5976.00,0.9713
5975.00,0.9757
5974.00,0.9801
5973.00,0.9847
5972.00,0.9893
5971.00,0.9938
5970.00,0.9982
5969.00,1.0026
5968.00,1.0072
5967.00,1.0118
5966.00,1.0165
5965.00,1.0212
5964.00,1.0259
5963.00,1.0306
5962.00,1.0352
5961.00,1.0399
5960.00,1.0445
5959.00,1.0491
5958.00,1.0537
5957.00,1.0584
5956.00,1.0629
5955.00,1.0673
5954.00,1.0717
5953.00,1.0762
5952.00,1.0807
5951.00,1.0853
5950.00,1.0898
5949.00,1.0943
5948.00,1.0987
5947.00,1.1031
5946.00,1.1074
5945.00,1.1117
5944.00,1.1159
5943.00,1.1200
5942.00,1.1240
5941.00,1.1281
5940.00,1.1322
5939.00,1.1363
5938.00,1.1405
5937.00,1.1447
5936.00,1.1489
5935.00,1.1530
5934.00,1.1569
5933.00,1.1608
5932.00,1.1647
5931.00,1.1684
5930.00,1.1720
5929.00,1.1756
5928.00,1.1792
5927.00,1.1828
5926.00,1.1864
5925.00,1.1898
5924.00,1.1932
5923.00,1.1966
5922.00,1.1999
5921.00,1.2033
5920.00,1.2066
5919.00,1.2098
5918.00,1.2131
5917.00,1.2163
5916.00,1.2194
5915.00,1.2224
5914.00,1.2254
5913.00,1.2284
5912.00,1.2313
5911.00,1.2340
5910.00,1.2366
5909.00,1.2391
5908.00,1.2417
5907.00,1.2441
5906.00,1.2466
5905.00,1.2491
5904.00,1.2515
5903.00,1.2538
5902.00,1.2561
5901.00,1.2585
5900.00,1.2608
5899.00,1.2629
5898.00,1.2649
5897.00,1.2669
5896.00,1.2689
5895.00,1.2709
5894.00,1.2727
5893.00,1.2745
5892.00,1.2763
5891.00,1.2781
5890.00,1.2798
5889.00,1.2815
5888.00,1.2833
5887.00,1.2850
5886.00,1.2866
5885.00,1.2880
5884.00,1.2892
5883.00,1.2902
5882.00,1.2911
5881.00,1.2921
5880.00,1.2932
5879.00,1.2945
5878.00,1.2957
5877.00,1.2968
5876.00,1.2977
5875.00,1.2982
5874.00,1.2985
5873.00,1.2985
5872.00,1.2987
5871.00,1.2989
5870.00,1.2994
5869.00,1.2999
5868.00,1.3005
5867.00,1.3011
5866.00,1.3016
5865.00,1.3021
5864.00,1.3025
5863.00,1.3027
5862.00,1.3027
5861.00,1.3026
5860.00,1.3026
5859.00,1.3025
5858.00,1.3024
5857.00,1.3023
5856.00,1.3022
5855.00,1.3020
5854.00,1.3015
5853.00,1.3009
5852.00,1.3004
5851.00,1.2999
5850.00,1.2993
5849.00,1.2986
5848.00,1.2977
5847.00,1.2967
5846.00,1.2957
5845.00,1.2946
5844.00,1.2936
5843.00,1.2925
5842.00,1.2913
5841.00,1.2899
5840.00,1.2884
5839.00,1.2870
5838.00,1.2858
5837.00,1.2847
5836.00,1.2836
5835.00,1.2820
5834.00,1.2802
5833.00,1.2783
5832.00,1.2763
5831.00,1.2745
5830.00,1.2729
5829.00,1.2714
5828.00,1.2700
5827.00,1.2682
5826.00,1.2661
5825.00,1.2637
5824.00,1.2613
5823.00,1.2588
5822.00,1.2565
5821.00,1.2543
5820.00,1.2522
5819.00,1.2501
5818.00,1.2479
5817.00,1.2456
5816.00,1.2433
5815.00,1.2407
5814.00,1.2380
5813.00,1.2352
5812.00,1.2327
5811.00,1.2302
5810.00,1.2278
5809.00,1.2253
5808.00,1.2227
5807.00,1.2201
5806.00,1.2173
5805.00,1.2142
5804.00,1.2109
5803.00,1.2075
5802.00,1.2041
5801.00,1.2007
5800.00,1.1973
5799.00,1.1940
5798.00,1.1906
5797.00,1.1872
5796.00,1.1836
5795.00,1.1799
5794.00,1.1762
5793.00,1.1727
5792.00,1.1694
5791.00,1.1661
5790.00,1.1627
5789.00,1.1591
5788.00,1.1554
5787.00,1.1514
5786.00,1.1474
5785.00,1.1433
5784.00,1.1392
5783.00,1.1351
5782.00,1.1310
5781.00,1.1270
5780.00,1.1231
5779.00,1.1193
5778.00,1.1156
5777.00,1.1118
5776.00,1.1079
5775.00,1.1039
5774.00,1.0998
5773.00,1.0956
5772.00,1.0915
5771.00,1.0875
5770.00,1.0835
5769.00,1.0794
5768.00,1.0753
5767.00,1.0709
5766.00,1.0665
5765.00,1.0620
5764.00,1.0577
5763.00,1.0535
5762.00,1.0495
5761.00,1.0456
5760.00,1.0416
5759.00,1.0376
5758.00,1.0333
5757.00,1.0291
5756.00,1.0248
5755.00,1.0204
5754.00,1.0161
5753.00,1.0118
5752.00,1.0076
5751.00,1.0035
5750.00,0.9993
5749.00,0.9952
5748.00,0.9912
5747.00,0.9872
5746.00,0.9831
5745.00,0.9790
5744.00,0.9748
5743.00,0.9708
5742.00,0.9667
5741.00,0.9628
5740.00,0.9588
5739.00,0.9548
5738.00,0.9509
5737.00,0.9469
5736.00,0.9430
5735.00,0.9391
5734.00,0.9352
5733.00,0.9315
5732.00,0.9277
5731.00,0.9239
5730.00,0.9201
5729.00,0.9162
5728.00,0.9124
5727.00,0.9086
5726.00,0.9049
5725.00,0.9013
5724.00,0.8977
5723.00,0.8941
5722.00,0.8904
5721.00,0.8868
5720.00,0.8831
5719.00,0.8794
5718.00,0.8758
5717.00,0.8724
5716.00,0.8689
5715.00,0.8655
5714.00,0.8622
5713.00,0.8588
5712.00,0.8555
5711.00,0.8521
5710.00,0.8489
5709.00,0.8457
5708.00,0.8426
5707.00,0.8395
5706.00,0.8365
5705.00,0.8336
5704.00,0.8307
5703.00,0.8278
5702.00,0.8249
5701.00,0.8221
5700.00,0.8194
5699.00,0.8166
5698.00,0.8140
5697.00,0.8115
5696.00,0.8092
5695.00,0.8068
5694.00,0.8046
5693.00,0.8024
5692.00,0.8002
5691.00,0.7981
5690.00,0.7961
5689.00,0.7941
5688.00,0.7923
5687.00,0.7905
5686.00,0.7888
5685.00,0.7873
5684.00,0.7859
5683.00,0.7845
5682.00,0.7832
5681.00,0.7820
5680.00,0.7809
5679.00,0.7798
5678.00,0.7787
5677.00,0.7777
5676.00,0.7769
5675.00,0.7762
5674.00,0.7756
5673.00,0.7751
5672.00,0.7747
5671.00,0.7744
5670.00,0.7742
5669.00,0.7742
5668.00,0.7742
5667.00,0.7743
5666.00,0.7745
5665.00,0.7747
5664.00,0.7751
5663.00,0.7755
5662.00,0.7760
5661.00,0.7768
5660.00,0.7776
5659.00,0.7785
5658.00,0.7795
5657.00,0.7806
5656.00,0.7819
5655.00,0.7832
5654.00,0.7847
5653.00,0.7862
5652.00,0.7878
5651.00,0.7893
5650.00,0.7910
5649.00,0.7928
5648.00,0.7947
5647.00,0.7968
5646.00,0.7991
5645.00,0.8016
5644.00,0.8041
5643.00,0.8066
5642.00,0.8091
5641.00,0.8116
5640.00,0.8142
5639.00,0.8169
5638.00,0.8197
5637.00,0.8226
5636.00,0.8256
5635.00,0.8286
5634.00,0.8317
5633.00,0.8348
5632.00,0.8381
5631.00,0.8415
5630.00,0.8450
5629.00,0.8487
5628.00,0.8524
5627.00,0.8561
5626.00,0.8597
5625.00,0.8635
5624.00,0.8673
5623.00,0.8712
5622.00,0.8752
5621.00,0.8794
5620.00,0.8837
5619.00,0.8879
5618.00,0.8922
5617.00,0.8965
5616.00,0.9009
5615.00,0.9052
5614.00,0.9095
5613.00,0.9140
5612.00,0.9184
5611.00,0.9230
5610.00,0.9277
5609.00,0.9325
5608.00,0.9373
5607.00,0.9420
5606.00,0.9465
5605.00,0.9511
5604.00,0.9559
5603.00,0.9608
5602.00,0.9657
5601.00,0.9708
5600.00,0.9760
5599.00,0.9811
5598.00,0.9860
5597.00,0.9909
5596.00,0.9958
5595.00,1.0008
5594.00,1.0058
5593.00,1.0110
5592.00,1.0161
5591.00,1.0212
5590.00,1.0264
5589.00,1.0315
5588.00,1.0366
5587.00,1.0416
5586.00,1.0466
5585.00,1.0516
5584.00,1.0566
5583.00,1.0616
5582.00,1.0667
5581.00,1.0718
5580.00,1.0768
5579.00,1.0818
5578.00,1.0868
5577.00,1.0916
5576.00,1.0964
5575.00,1.1013
5574.00,1.1062
5573.00,1.1111
5572.00,1.1160
5571.00,1.1207
5570.00,1.1255
5569.00,1.1303
5568.00,1.1350
5567.00,1.1397
5566.00,1.1444
5565.00,1.1490
5564.00,1.1536
5563.00,1.1579
5562.00,1.1622
5561.00,1.1665
5560.00,1.1709
5559.00,1.1755
5558.00,1.1801
5557.00,1.1846
5556.00,1.1889
5555.00,1.1931
5554.00,1.1973
5553.00,1.2013
5552.00,1.2054
5551.00,1.2094
5550.00,1.2133
5549.00,1.2172
5548.00,1.2209
5547.00,1.2245
5546.00,1.2282
5545.00,1.2318
5544.00,1.2353
5543.00,1.2387
5542.00,1.2421
5541.00,1.2454
5540.00,1.2487
5539.00,1.2521
5538.00,1.2555
5537.00,1.2589
5536.00,1.2622
5535.00,1.2653
5534.00,1.2683
5533.00,1.2713
5532.00,1.2742
5531.00,1.2771
5530.00,1.2802
5529.00,1.2833
5528.00,1.2864
5527.00,1.2893
5526.00,1.2919
5525.00,1.2944
5524.00,1.2966
5523.00,1.2988
5522.00,1.3009
5521.00,1.3033
5520.00,1.3059
5519.00,1.3084
5518.00,1.3107
5517.00,1.3128
5516.00,1.3147
5515.00,1.3165
5514.00,1.3182
5513.00,1.3199
5512.00,1.3218
5511.00,1.3238
5510.00,1.3257
5509.00,1.3275
5508.00,1.3291
5507.00,1.3306
5506.00,1.3318
5505.00,1.3330
5504.00,1.3342
5503.00,1.3354
5502.00,1.3367
5501.00,1.3381
5500.00,1.3395
5499.00,1.3408
5498.00,1.3418
5497.00,1.3426
5496.00,1.3432
5495.00,1.3437
5494.00,1.3442
5493.00,1.3447
5492.00,1.3454
5491.00,1.3462
5490.00,1.3471
5489.00,1.3477
5488.00,1.3482
5487.00,1.3487
5486.00,1.3492
5485.00,1.3496
5484.00,1.3500
5483.00,1.3504
5482.00,1.3507
5481.00,1.3508
5480.00,1.3506
5479.00,1.3504
5478.00,1.3502
5477.00,1.3500
5476.00,1.3497
5475.00,1.3493
5474.00,1.3489
5473.00,1.3486
5472.00,1.3483
5471.00,1.3478
5470.00,1.3473
5469.00,1.3467
5468.00,1.3461
5467.00,1.3454
5466.00,1.3445
5465.00,1.3436
5464.00,1.3425
5463.00,1.3413
5462.00,1.3401
5461.00,1.3390
5460.00,1.3379
5459.00,1.3368
5458.00,1.3356
5457.00,1.3343
5456.00,1.3329
5455.00,1.3313
5454.00,1.3297
5453.00,1.3280
5452.00,1.3264
5451.00,1.3246
5450.00,1.3227
5449.00,1.3208
5448.00,1.3190
5447.00,1.3173
5446.00,1.3155
5445.00,1.3136
5444.00,1.3117
5443.00,1.3096
5442.00,1.3075
5441.00,1.3052
5440.00,1.3029
5439.00,1.3005
5438.00,1.2981
5437.00,1.2958
5436.00,1.2933
5435.00,1.2906
5434.00,1.2878
5433.00,1.2849
5432.00,1.2819
5431.00,1.2788
5430.00,1.2757
5429.00,1.2726
5428.00,1.2696
5427.00,1.2667
5426.00,1.2639
5425.00,1.2611
5424.00,1.2582
5423.00,1.2550
5422.00,1.2518
5421.00,1.2484
5420.00,1.2450
5419.00,1.2414
5418.00,1.2378
5417.00,1.2342
5416.00,1.2305
5415.00,1.2268
5414.00,1.2229
5413.00,1.2191
5412.00,1.2152
5411.00,1.2114
5410.00,1.2075
5409.00,1.2035
5408.00,1.1994
5407.00,1.1951
5406.00,1.1908
5405.00,1.1865
5404.00,1.1822
5403.00,1.1780
5402.00,1.1738
5401.00,1.1695
5400.00,1.1652
5399.00,1.1608
5398.00,1.1564
5397.00,1.1519
5396.00,1.1474
5395.00,1.1429
5394.00,1.1383
5393.00,1.1337
5392.00,1.1289
5391.00,1.1241
5390.00,1.1192
5389.00,1.1142
5388.00,1.1092
5387.00,1.1043
5386.00,1.0996
5385.00,1.0949
5384.00,1.0903
5383.00,1.0855
5382.00,1.0806
5381.00,1.0756
5380.00,1.0706
5379.00,1.0655
5378.00,1.0605
5377.00,1.0555
5376.00,1.0504
5375.00,1.0454
5374.00,1.0404
5373.00,1.0354
5372.00,1.0305
5371.00,1.0257
5370.00,1.0209
5369.00,1.0161
5368.00,1.0113
5367.00,1.0065
5366.00,1.0016
5365.00,0.9967
5364.00,0.9918
5363.00,0.9869
5362.00,0.9821
5361.00,0.9775
5360.00,0.9728
5359.00,0.9681
5358.00,0.9633
5357.00,0.9586
5356.00,0.9540
5355.00,0.9493
5354.00,0.9446
5353.00,0.9400
5352.00,0.9353
5351.00,0.9307
5350.00,0.9261
5349.00,0.9215
5348.00,0.9171
5347.00,0.9128
5346.00,0.9085
5345.00,0.9041
5344.00,0.8998
5343.00,0.8954
5342.00,0.8912
5341.00,0.8870
5340.00,0.8828
5339.00,0.8787
5338.00,0.8745
5337.00,0.8705
5336.00,0.8665
5335.00,0.8627
5334.00,0.8589
5333.00,0.8551
5332.00,0.8514
5331.00,0.8477
5330.00,0.8442
5329.00,0.8408
5328.00,0.8373
5327.00,0.8338
5326.00,0.8302
5325.00,0.8266
5324.00,0.8231
5323.00,0.8198
5322.00,0.8166
5321.00,0.8135
5320.00,0.8106
5319.00,0.8077
5318.00,0.8049
5317.00,0.8021
5316.00,0.7993
5315.00,0.7965
5314.00,0.7937
5313.00,0.7911
5312.00,0.7885
5311.00,0.7860
5310.00,0.7837
5309.00,0.7816
5308.00,0.7796
5307.00,0.7776
5306.00,0.7756
5305.00,0.7736
5304.00,0.7717
5303.00,0.7700
5302.00,0.7685
5301.00,0.7672
5300.00,0.7660
5299.00,0.7648
5298.00,0.7637
5297.00,0.7627
5296.00,0.7617
5295.00,0.7609
5294.00,0.7602
5293.00,0.7597
5292.00,0.7593
5291.00,0.7589
5290.00,0.7585
5289.00,0.7582
5288.00,0.7581
5287.00,0.7581
5286.00,0.7583
5285.00,0.7586
5284.00,0.7590
5283.00,0.7596
5282.00,0.7603
5281.00,0.7612
5280.00,0.7621
5279.00,0.7632
5278.00,0.7643
5277.00,0.7657
5276.00,0.7671
5275.00,0.7687
5274.00,0.7703
5273.00,0.7720
5272.00,0.7739
5271.00,0.7760
5270.00,0.7781
5269.00,0.7803
5268.00,0.7827
5267.00,0.7851
5266.00,0.7877
5265.00,0.7903
5264.00,0.7930
5263.00,0.7959
5262.00,0.7989
5261.00,0.8021
5260.00,0.8054
5259.00,0.8087
5258.00,0.8121
5257.00,0.8157
5256.00,0.8194
5255.00,0.8231
5254.00,0.8270
5253.00,0.8309
5252.00,0.8350
5251.00,0.8391
5250.00,0.8433
5249.00,0.8476
5248.00,0.8519
5247.00,0.8563
5246.00,0.8609
5245.00,0.8655
5244.00,0.8702
5243.00,0.8749
5242.00,0.8797
5241.00,0.8846
5240.00,0.8897
5239.00,0.8948
5238.00,0.8999
5237.00,0.9052
5236.00,0.9104
5235.00,0.9156
5234.00,0.9208
5233.00,0.9259
5232.00,0.9312
5231.00,0.9365
5230.00,0.9418
5229.00,0.9473
5228.00,0.9528
5227.00,0.9584
5226.00,0.9639
5225.00,0.9695
5224.00,0.9751
5223.00,0.9808
5222.00,0.9865
5221.00,0.9922
5220.00,0.9980
5219.00,1.0037
5218.00,1.0095
5217.00,1.0154
5216.00,1.0212
5215.00,1.0270
5214.00,1.0328
5213.00,1.0385
5212.00,1.0443
5211.00,1.0499
5210.00,1.0555
5209.00,1.0610
5208.00,1.0665
5207.00,1.0722
5206.00,1.0779
5205.00,1.0837
5204.00,1.0896
5203.00,1.0955
5202.00,1.1013
5201.00,1.1071
5200.00,1.1128
5199.00,1.1185
5198.00,1.1242
5197.00,1.1298
5196.00,1.1354
5195.00,1.1410
5194.00,1.1466
5193.00,1.1522
5192.00,1.1577
5191.00,1.1630
5190.00,1.1684
5189.00,1.1737
5188.00,1.1790
5187.00,1.1842
5186.00,1.1894
5185.00,1.1946
5184.00,1.1998
5183.00,1.2048
5182.00,1.2099
5181.00,1.2149
5180.00,1.2198
5179.00,1.2247
5178.00,1.2295
5177.00,1.2343
5176.00,1.2390
5175.00,1.2436
5174.00,1.2481
5173.00,1.2526
5172.00,1.2570
5171.00,1.2615
5170.00,1.2659
5169.00,1.2703
5168.00,1.2745
5167.00,1.2786
5166.00,1.2826
5165.00,1.2864
5164.00,1.2901
5163.00,1.2938
5162.00,1.2976
5161.00,1.3013
5160.00,1.3051
5159.00,1.3088
5158.00,1.3125
5157.00,1.3163
5156.00,1.3200
5155.00,1.3237
5154.00,1.3271
5153.00,1.3303
5152.00,1.3334
5151.00,1.3364
5150.00,1.3393
5149.00,1.3422
5148.00,1.3451
5147.00,1.3481
5146.00,1.3511
5145.00,1.3541
5144.00,1.3571
5143.00,1.3601
5142.00,1.3628
5141.00,1.3653
5140.00,1.3678
5139.00,1.3701
5138.00,1.3724
5137.00,1.3746
5136.00,1.3766
5135.00,1.3786
5134.00,1.3806
5133.00,1.3826
5132.00,1.3847
5131.00,1.3868
5130.00,1.3888
5129.00,1.3907
5128.00,1.3925
5127.00,1.3941
5126.00,1.3957
5125.00,1.3973
5124.00,1.3988
5123.00,1.4005
5122.00,1.4021
5121.00,1.4036
5120.00,1.4051
5119.00,1.4064
5118.00,1.4076
5117.00,1.4086
5116.00,1.4094
5115.00,1.4100
5114.00,1.4108
5113.00,1.4118
5112.00,1.4129
5111.00,1.4141
5110.00,1.4151
5109.00,1.4158
5108.00,1.4162
5107.00,1.4165
5106.00,1.4168
5105.00,1.4171
5104.00,1.4176
5103.00,1.4180
5102.00,1.4184
5101.00,1.4188
5100.00,1.4192
5099.00,1.4194
5098.00,1.4195
5097.00,1.4193
5096.00,1.4189
5095.00,1.4185
5094.00,1.4180
5093.00,1.4178
5092.00,1.4176
5091.00,1.4173
5090.00,1.4167
5089.00,1.4160
5088.00,1.4153
5087.00,1.4148
5086.00,1.4144
5085.00,1.4142
5084.00,1.4137
5083.00,1.4129
5082.00,1.4118
5081.00,1.4106
5080.00,1.4094
5079.00,1.4083
5078.00,1.4073
5077.00,1.4062
5076.00,1.4050
5075.00,1.4037
5074.00,1.4023
5073.00,1.4009
5072.00,1.3994
5071.00,1.3979
5070.00,1.3962
5069.00,1.3944
5068.00,1.3925
5067.00,1.3905
5066.00,1.3885
5065.00,1.3866
5064.00,1.3845
5063.00,1.3823
5062.00,1.3800
5061.00,1.3776
5060.00,1.3751
5059.00,1.3727
5058.00,1.3704
5057.00,1.3681
5056.00,1.3657
5055.00,1.3631
5054.00,1.3604
5053.00,1.3577
5052.00,1.3549
5051.00,1.3522
5050.00,1.3494
5049.00,1.3464
5048.00,1.3433
5047.00,1.3401
5046.00,1.3367
5045.00,1.3333
5044.00,1.3299
5043.00,1.3266
5042.00,1.3233
5041.00,1.3199
5040.00,1.3165
5039.00,1.3129
5038.00,1.3092
5037.00,1.3054
5036.00,1.3016
5035.00,1.2976
5034.00,1.2935
5033.00,1.2893
5032.00,1.2850
5031.00,1.2806
5030.00,1.2763
5029.00,1.2721
5028.00,1.2679
5027.00,1.2637
5026.00,1.2595
5025.00,1.2552
5024.00,1.2507
5023.00,1.2461
5022.00,1.2414
5021.00,1.2366
5020.00,1.2317
5019.00,1.2268
5018.00,1.2219
5017.00,1.2168
5016.00,1.2117
5015.00,1.2067
5014.00,1.2016
5013.00,1.1967
5012.00,1.1916
5011.00,1.1865
5010.00,1.1813
5009.00,1.1760
5008.00,1.1707
5007.00,1.1653
5006.00,1.1599
5005.00,1.1544
5004.00,1.1489
5003.00,1.1433
5002.00,1.1377
5001.00,1.1322
5000.00,1.1268
4999.00,1.1213
4998.00,1.1158
4997.00,1.1103
4996.00,1.1049
4995.00,1.0994
4994.00,1.0938
4993.00,1.0880
4992.00,1.0822
4991.00,1.0763
4990.00,1.0706
4989.00,1.0650
4988.00,1.0594
4987.00,1.0538
4986.00,1.0482
4985.00,1.0426
4984.00,1.0370
4983.00,1.0314
4982.00,1.0258
4981.00,1.0202
4980.00,1.0147
4979.00,1.0092
4978.00,1.0038
4977.00,0.9983
4976.00,0.9928
4975.00,0.9873
4974.00,0.9818
4973.00,0.9765
4972.00,0.9713
4971.00,0.9661
4970.00,0.9610
4969.00,0.9559
4968.00,0.9507
4967.00,0.9456
4966.00,0.9406
4965.00,0.9356
4964.00,0.9306
4963.00,0.9257
4962.00,0.9208
4961.00,0.9161
4960.00,0.9114
4959.00,0.9067
4958.00,0.9021
4957.00,0.8975
4956.00,0.8929
4955.00,0.8884
4954.00,0.8840
4953.00,0.8796
4952.00,0.8753
4951.00,0.8710
4950.00,0.8667
4949.00,0.8625
4948.00,0.8584
4947.00,0.8544
4946.00,0.8504
4945.00,0.8466
4944.00,0.8429
4943.00,0.8392
4942.00,0.8355
4941.00,0.8320
4940.00,0.8285
4939.00,0.8250
4938.00,0.8216
4937.00,0.8183
4936.00,0.8152
4935.00,0.8120
4934.00,0.8090
4933.00,0.8061
4932.00,0.8033
4931.00,0.8005
4930.00,0.7978
4929.00,0.7952
4928.00,0.7927
4927.00,0.7903
4926.00,0.7881
4925.00,0.7860
4924.00,0.7841
4923.00,0.7823
4922.00,0.7806
4921.00,0.7790
4920.00,0.7775
4919.00,0.7760
4918.00,0.7746
4917.00,0.7734
4916.00,0.7724
4915.00,0.7715
4914.00,0.7707
4913.00,0.7701
4912.00,0.7696
4911.00,0.7693
4910.00,0.7691
4909.00,0.7692
4908.00,0.7693
4907.00,0.7696
4906.00,0.7700
4905.00,0.7705
4904.00,0.7711
4903.00,0.7719
4902.00,0.7728
4901.00,0.7740
4900.00,0.7753
4899.00,0.7767
4898.00,0.7783
4897.00,0.7801
4896.00,0.7820
4895.00,0.7841
4894.00,0.7863
4893.00,0.7887
4892.00,0.7912
4891.00,0.7938
4890.00,0.7966
4889.00,0.7995
4888.00,0.8025
4887.00,0.8056
4886.00,0.8089
4885.00,0.8123
4884.00,0.8160
4883.00,0.8198
4882.00,0.8237
4881.00,0.8277
4880.00,0.8317
4879.00,0.8359
4878.00,0.8402
4877.00,0.8447
4876.00,0.8493
4875.00,0.8540
4874.00,0.8587
4873.00,0.8636
4872.00,0.8686
4871.00,0.8736
4870.00,0.8788
4869.00,0.8841
4868.00,0.8895
4867.00,0.8950
4866.00,0.9006
4865.00,0.9062
4864.00,0.9118
4863.00,0.9176
4862.00,0.9234
4861.00,0.9293
4860.00,0.9353
4859.00,0.9413
4858.00,0.9474
4857.00,0.9536
4856.00,0.9598
4855.00,0.9660
4854.00,0.9723
4853.00,0.9787
4852.00,0.9851
4851.00,0.9915
4850.00,0.9981
4849.00,1.0047
4848.00,1.0113
4847.00,1.0179
4846.00,1.0245
4845.00,1.0312
4844.00,1.0378
4843.00,1.0445
4842.00,1.0512
4841.00,1.0579
4840.00,1.0646
4839.00,1.0713
4838.00,1.0780
4837.00,1.0848
4836.00,1.0915
4835.00,1.0983
4834.00,1.1050
4833.00,1.1116
4832.00,1.1182
4831.00,1.1247
4830.00,1.1313
4829.00,1.1379
4828.00,1.1445
4827.00,1.1511
4826.00,1.1575
4825.00,1.1639
4824.00,1.1703
4823.00,1.1767
4822.00,1.1831
4821.00,1.1896
4820.00,1.1959
4819.00,1.2022
4818.00,1.2083
4817.00,1.2143
4816.00,1.2203
4815.00,1.2263
4814.00,1.2322
4813.00,1.2381
4812.00,1.2441
4811.00,1.2499
4810.00,1.2557
4809.00,1.2614
4808.00,1.2669
4807.00,1.2723
4806.00,1.2778
4805.00,1.2833
4804.00,1.2888
4803.00,1.2942
4802.00,1.2993
4801.00,1.3043
4800.00,1.3094
4799.00,1.3145
4798.00,1.3196
4797.00,1.3246
4796.00,1.3294
4795.00,1.3341
4794.00,1.3388
4793.00,1.3434
4792.00,1.3481
4791.00,1.3528
4790.00,1.3573
4789.00,1.3617
4788.00,1.3661
4787.00,1.3704
4786.00,1.3746
4785.00,1.3785
4784.00,1.3824
4783.00,1.3863
4782.00,1.3900
4781.00,1.3938
4780.00,1.3975
4779.00,1.4013
4778.00,1.4050
4777.00,1.4086
4776.00,1.4121
4775.00,1.4153
4774.00,1.4183
4773.00,1.4213
4772.00,1.4245
4771.00,1.4279
4770.00,1.4313
4769.00,1.4346
4768.00,1.4377
4767.00,1.4405
4766.00,1.4432
4765.00,1.4458
4764.00,1.4485
4763.00,1.4512
4762.00,1.4539
4761.00,1.4565
4760.00,1.4591
4759.00,1.4616
4758.00,1.4638
4757.00,1.4659
4756.00,1.4679
4755.00,1.4700
4754.00,1.4722
4753.00,1.4746
4752.00,1.4768
4751.00,1.4788
4750.00,1.4807
4749.00,1.4824
4748.00,1.4840
4747.00,1.4854
4746.00,1.4868
4745.00,1.4882
4744.00,1.4897
4743.00,1.4912
4742.00,1.4927
4741.00,1.4940
4740.00,1.4951
4739.00,1.4961
4738.00,1.4970
4737.00,1.4980
4736.00,1.4991
4735.00,1.5002
4734.00,1.5013
4733.00,1.5024
4732.00,1.5033
4731.00,1.5039
4730.00,1.5043
4729.00,1.5046
4728.00,1.5050
4727.00,1.5056
4726.00,1.5062
4725.00,1.5067
4724.00,1.5071
4723.00,1.5074
4722.00,1.5076
4721.00,1.5077
4720.00,1.5077
4719.00,1.5075
4718.00,1.5071
4717.00,1.5066
4716.00,1.5062
4715.00,1.5059
4714.00,1.5057
4713.00,1.5054
4712.00,1.5050
4711.00,1.5045
4710.00,1.5038
4709.00,1.5032
4708.00,1.5025
4707.00,1.5018
4706.00,1.5011
4705.00,1.5002
4704.00,1.4991
4703.00,1.4979
4702.00,1.4966
4701.00,1.4954
4700.00,1.4944
4699.00,1.4935
4698.00,1.4926
4697.00,1.4915
4696.00,1.4901
4695.00,1.4885
4694.00,1.4868
4693.00,1.4851
4692.00,1.4835
4691.00,1.4819
4690.00,1.4803
4689.00,1.4786
4688.00,1.4768
4687.00,1.4749
4686.00,1.4729
4685.00,1.4709
4684.00,1.4688
4683.00,1.4665
4682.00,1.4642
4681.00,1.4619
4680.00,1.4594
4679.00,1.4568
4678.00,1.4543
4677.00,1.4517
4676.00,1.4491
4675.00,1.4464
4674.00,1.4436
4673.00,1.4407
4672.00,1.4378
4671.00,1.4349
4670.00,1.4320
4669.00,1.4291
4668.00,1.4260
4667.00,1.4227
4666.00,1.4192
4665.00,1.4155
4664.00,1.4117
4663.00,1.4078
4662.00,1.4040
4661.00,1.4003
4660.00,1.3965
4659.00,1.3927
4658.00,1.3888
4657.00,1.3847
4656.00,1.3805
4655.00,1.3762
4654.00,1.3718
4653.00,1.3674
4652.00,1.3629
4651.00,1.3583
4650.00,1.3536
4649.00,1.3488
4648.00,1.3439
4647.00,1.3388
4646.00,1.3337
4645.00,1.3286
4644.00,1.3235
4643.00,1.3185
4642.00,1.3134
4641.00,1.3083
4640.00,1.3029
4639.00,1.2974
4638.00,1.2917
4637.00,1.2860
4636.00,1.2803
4635.00,1.2746
4634.00,1.2688
4633.00,1.2630
4632.00,1.2572
4631.00,1.2514
4630.00,1.2454
4629.00,1.2393
4628.00,1.2332
4627.00,1.2271
4626.00,1.2210
4625.00,1.2149
4624.00,1.2086
4623.00,1.2022
4622.00,1.1958
4621.00,1.1893
4620.00,1.1830
4619.00,1.1766
4618.00,1.1703
4617.00,1.1639
4616.00,1.1574
4615.00,1.1510
4614.00,1.1445
4613.00,1.1380
4612.00,1.1315
4611.00,1.1249
4610.00,1.1183
4609.00,1.1117
4608.00,1.1051
4607.00,1.0986
4606.00,1.0922
4605.00,1.0857
4604.00,1.0792
4603.00,1.0726
4602.00,1.0659
4601.00,1.0593
4600.00,1.0528
4599.00,1.0464
4598.00,1.0400
4597.00,1.0337
4596.00,1.0273
4595.00,1.0210
4594.00,1.0147
4593.00,1.0085
4592.00,1.0022
4591.00,0.9960
4590.00,0.9898
4589.00,0.9837
4588.00,0.9776
4587.00,0.9717
4586.00,0.9657
4585.00,0.9599
4584.00,0.9541
4583.00,0.9483
4582.00,0.9426
4581.00,0.9368
4580.00,0.9312
4579.00,0.9255
4578.00,0.9200
4577.00,0.9146
4576.00,0.9092
4575.00,0.9040
4574.00,0.8988
4573.00,0.8937
4572.00,0.8886
4571.00,0.8836
4570.00,0.8786
4569.00,0.8738
4568.00,0.8690
4567.00,0.8642
4566.00,0.8595
4565.00,0.8550
4564.00,0.8505
4563.00,0.8462
4562.00,0.8420
4561.00,0.8378
4560.00,0.8337
4559.00,0.8296
4558.00,0.8257
4557.00,0.8220
4556.00,0.8183
4555.00,0.8148
4554.00,0.8113
4553.00,0.8080
4552.00,0.8047
4551.00,0.8016
4550.00,0.7986
4549.00,0.7958
4548.00,0.7931
4547.00,0.7905
4546.00,0.7881
4545.00,0.7858
4544.00,0.7836
4543.00,0.7816
4542.00,0.7797
4541.00,0.7779
4540.00,0.7764
4539.00,0.7749
4538.00,0.7737
4537.00,0.7726
4536.00,0.7717
4535.00,0.7710
4534.00,0.7705
4533.00,0.7702
4532.00,0.7700
4531.00,0.7701
4530.00,0.7703
4529.00,0.7707
4528.00,0.7712
4527.00,0.7720
4526.00,0.7730
4525.00,0.7741
4524.00,0.7755
4523.00,0.7770
4522.00,0.7788
4521.00,0.7807
4520.00,0.7828
4519.00,0.7851
4518.00,0.7876
4517.00,0.7904
4516.00,0.7933
4515.00,0.7964
4514.00,0.7996
4513.00,0.8030
4512.00,0.8066
4511.00,0.8104
4510.00,0.8143
4509.00,0.8185
4508.00,0.8228
4507.00,0.8273
4506.00,0.8318
4505.00,0.8366
4504.00,0.8414
4503.00,0.8464
4502.00,0.8516
4501.00,0.8569
4500.00,0.8623
4499.00,0.8679
4498.00,0.8736
4497.00,0.8795
4496.00,0.8854
4495.00,0.8915
4494.00,0.8977
4493.00,0.9041
4492.00,0.9105
4491.00,0.9170
4490.00,0.9236
4489.00,0.9303
4488.00,0.9370
4487.00,0.9439
4486.00,0.9509
4485.00,0.9579
4484.00,0.9651
4483.00,0.9723
4482.00,0.9796
4481.00,0.9870
4480.00,0.9945
4479.00,1.0020
4478.00,1.0096
4477.00,1.0173
4476.00,1.0249
4475.00,1.0326
4474.00,1.0402
4473.00,1.0479
4472.00,1.0557
4471.00,1.0634
4470.00,1.0713
4469.00,1.0792
4468.00,1.0871
4467.00,1.0950
4466.00,1.1030
4465.00,1.1110
4464.00,1.1189
4463.00,1.1268
4462.00,1.1347
4461.00,1.1425
4460.00,1.1504
4459.00,1.1582
4458.00,1.1660
4457.00,1.1738
4456.00,1.1816
4455.00,1.1893
4454.00,1.1971
4453.00,1.2048
4452.00,1.2124
4451.00,1.2199
4450.00,1.2274
4449.00,1.2349
4448.00,1.2423
4447.00,1.2497
4446.00,1.2570
4445.00,1.2641
4444.00,1.2713
4443.00,1.2784
4442.00,1.2854
4441.00,1.2925
4440.00,1.2994
4439.00,1.3062
4438.00,1.3129
4437.00,1.3195
4436.00,1.3259
4435.00,1.3323
4434.00,1.3386
4433.00,1.3449
4432.00,1.3513
4431.00,1.3577
4430.00,1.3640
4429.00,1.3702
4428.00,1.3763
4427.00,1.3822
4426.00,1.3882
4425.00,1.3940
4424.00,1.3997
4423.00,1.4052
4422.00,1.4107
4421.00,1.4161
4420.00,1.4215
4419.00,1.4267
4418.00,1.4319
4417.00,1.4370
4416.00,1.4422
4415.00,1.4473
4414.00,1.4523
4413.00,1.4571
4412.00,1.4619
4411.00,1.4666
4410.00,1.4711
4409.00,1.4755
4408.00,1.4798
4407.00,1.4841
4406.00,1.4884
4405.00,1.4927
4404.00,1.4970
4403.00,1.5011
4402.00,1.5050
4401.00,1.5087
4400.00,1.5124
4399.00,1.5162
4398.00,1.5200
4397.00,1.5238
4396.00,1.5274
4395.00,1.5309
4394.00,1.5344
4393.00,1.5378
4392.00,1.5412
4391.00,1.5445
4390.00,1.5476
4389.00,1.5506
4388.00,1.5535
4387.00,1.5563
4386.00,1.5592
4385.00,1.5620
4384.00,1.5649
4383.00,1.5676
4382.00,1.5702
4381.00,1.5727
4380.00,1.5752
4379.00,1.5776
4378.00,1.5798
4377.00,1.5819
4376.00,1.5840
4375.00,1.5861
4374.00,1.5882
4373.00,1.5904
4372.00,1.5925
4371.00,1.5944
4370.00,1.5961
4369.00,1.5979
4368.00,1.5997
4367.00,1.6014
4366.00,1.6028
4365.00,1.6040
4364.00,1.6050
4363.00,1.6061
4362.00,1.6074
4361.00,1.6088
4360.00,1.6101
4359.00,1.6112
4358.00,1.6122
4357.00,1.6132
4356.00,1.6143
4355.00,1.6155
4354.00,1.6165
4353.00,1.6172
4352.00,1.6178
4351.00,1.6182
4350.00,1.6187
4349.00,1.6192
4348.00,1.6196
4347.00,1.6200
4346.00,1.6203
4345.00,1.6205
4344.00,1.6208
4343.00,1.6210
4342.00,1.6211
4341.00,1.6211
4340.00,1.6209
4339.00,1.6207
4338.00,1.6204
4337.00,1.6202
4336.00,1.6201
4335.00,1.6200
4334.00,1.6197
4333.00,1.6193
4332.00,1.6186
4331.00,1.6178
4330.00,1.6170
4329.00,1.6162
4328.00,1.6156
4327.00,1.6152
4326.00,1.6147
4325.00,1.6140
4324.00,1.6130
4323.00,1.6118
4322.00,1.6105
4321.00,1.6093
4320.00,1.6080
4319.00,1.6067
4318.00,1.6053
4317.00,1.6039
4316.00,1.6026
4315.00,1.6012
4314.00,1.5996
4313.00,1.5979
4312.00,1.5960
4311.00,1.5942
4310.00,1.5923
4309.00,1.5903
4308.00,1.5882
4307.00,1.5861
4306.00,1.5841
4305.00,1.5820
4304.00,1.5798
4303.00,1.5774
4302.00,1.5748
4301.00,1.5721
4300.00,1.5694
4299.00,1.5668
4298.00,1.5642
4297.00,1.5615
4296.00,1.5588
4295.00,1.5559
4294.00,1.5529
4293.00,1.5498
4292.00,1.5468
4291.00,1.5437
4290.00,1.5407
4289.00,1.5375
4288.00,1.5341
4287.00,1.5306
4286.00,1.5271
4285.00,1.5236
4284.00,1.5203
4283.00,1.5170
4282.00,1.5135
4281.00,1.5098
4280.00,1.5059
4279.00,1.5018
4278.00,1.4978
4277.00,1.4936
4276.00,1.4893
4275.00,1.4848
4274.00,1.4802
4273.00,1.4758
4272.00,1.4713
4271.00,1.4669
4270.00,1.4624
4269.00,1.4577
4268.00,1.4527
4267.00,1.4475
4266.00,1.4422
4265.00,1.4369
4264.00,1.4316
4263.00,1.4263
4262.00,1.4209
4261.00,1.4155
4260.00,1.4099
4259.00,1.4040
4258.00,1.3980
4257.00,1.3918
4256.00,1.3856
4255.00,1.3794
4254.00,1.3732
4253.00,1.3669
4252.00,1.3605
4251.00,1.3540
4250.00,1.3475
4249.00,1.3409
4248.00,1.3342
4247.00,1.3274
4246.00,1.3204
4245.00,1.3133
4244.00,1.3061
4243.00,1.2989
4242.00,1.2918
4241.00,1.2847
4240.00,1.2774
4239.00,1.2701
4238.00,1.2627
4237.00,1.2553
4236.00,1.2480
4235.00,1.2407
4234.00,1.2333
4233.00,1.2259
4232.00,1.2185
4231.00,1.2112
4230.00,1.2038
4229.00,1.1964
4228.00,1.1889
4227.00,1.1815
4226.00,1.1741
4225.00,1.1668
4224.00,1.1596
4223.00,1.1524
4222.00,1.1451
4221.00,1.1379
4220.00,1.1308
4219.00,1.1236
4218.00,1.1165
4217.00,1.1093
4216.00,1.1022
4215.00,1.0951
4214.00,1.0879
4213.00,1.0808
4212.00,1.0737
4211.00,1.0666
4210.00,1.0596
4209.00,1.0525
4208.00,1.0455
4207.00,1.0385
4206.00,1.0316
4205.00,1.0247
4204.00,1.0178
4203.00,1.0110
4202.00,1.0043
4201.00,0.9977
4200.00,0.9911
4199.00,0.9847
4198.00,0.9783
4197.00,0.9720
4196.00,0.9658
4195.00,0.9596
4194.00,0.9536
4193.00,0.9477
4192.00,0.9419
4191.00,0.9362
4190.00,0.9306
4189.00,0.9251
4188.00,0.9197
4187.00,0.9144
4186.00,0.9092
4185.00,0.9041
4184.00,0.8991
4183.00,0.8942
4182.00,0.8894
4181.00,0.8847
4180.00,0.8801
4179.00,0.8756
4178.00,0.8712
4177.00,0.8669
4176.00,0.8628
4175.00,0.8588
4174.00,0.8550
4173.00,0.8513
4172.00,0.8477
4171.00,0.8442
4170.00,0.8410
4169.00,0.8379
4168.00,0.8350
4167.00,0.8323
4166.00,0.8298
4165.00,0.8274
4164.00,0.8251
4163.00,0.8231
4162.00,0.8213
4161.00,0.8197
4160.00,0.8184
4159.00,0.8172
4158.00,0.8162
4157.00,0.8155
4156.00,0.8150
4155.00,0.8147
4154.00,0.8146
4153.00,0.8148
4152.00,0.8152
4151.00,0.8158
4150.00,0.8167
4149.00,0.8177
4148.00,0.8190
4147.00,0.8205
4146.00,0.8223
4145.00,0.8243
4144.00,0.8265
4143.00,0.8289
4142.00,0.8314
4141.00,0.8342
4140.00,0.8372
4139.00,0.8405
4138.00,0.8440
4137.00,0.8478
4136.00,0.8517
4135.00,0.8559
4134.00,0.8603
4133.00,0.8649
4132.00,0.8696
4131.00,0.8746
4130.00,0.8798
4129.00,0.8852
4128.00,0.8908
4127.00,0.8966
4126.00,0.9024
4125.00,0.9084
4124.00,0.9146
4123.00,0.9209
4122.00,0.9274
4121.00,0.9341
4120.00,0.9409
4119.00,0.9478
4118.00,0.9549
4117.00,0.9621
4116.00,0.9694
4115.00,0.9769
4114.00,0.9845
4113.00,0.9923
4112.00,1.0001
4111.00,1.0080
4110.00,1.0160
4109.00,1.0241
4108.00,1.0323
4107.00,1.0406
4106.00,1.0491
4105.00,1.0576
4104.00,1.0662
4103.00,1.0749
4102.00,1.0836
4101.00,1.0923
4100.00,1.1012
4099.00,1.1100
4098.00,1.1189
4097.00,1.1278
4096.00,1.1368
4095.00,1.1458
4094.00,1.1548
4093.00,1.1639
4092.00,1.1730
4091.00,1.1821
4090.00,1.1911
4089.00,1.2002
4088.00,1.2093
4087.00,1.2183
4086.00,1.2273
4085.00,1.2362
4084.00,1.2451
4083.00,1.2540
4082.00,1.2629
4081.00,1.2718
4080.00,1.2805
4079.00,1.2891
4078.00,1.2976
4077.00,1.3061
4076.00,1.3145
4075.00,1.3230
4074.00,1.3314
4073.00,1.3397
4072.00,1.3478
4071.00,1.3557
4070.00,1.3634
4069.00,1.3711
4068.00,1.3787
4067.00,1.3864
4066.00,1.3942
4065.00,1.4020
4064.00,1.4098
4063.00,1.4173
4062.00,1.4247
4061.00,1.4321
4060.00,1.4394
4059.00,1.4466
4058.00,1.4538
4057.00,1.4608
4056.00,1.4678
4055.00,1.4746
4054.00,1.4813
4053.00,1.4879
4052.00,1.4945
4051.00,1.5009
4050.00,1.5072
4049.00,1.5133
4048.00,1.5192
4047.00,1.5250
4046.00,1.5308
4045.00,1.5367
4044.00,1.5426
4043.00,1.5483
4042.00,1.5539
4041.00,1.5592
4040.00,1.5644
4039.00,1.5694
4038.00,1.5744
4037.00,1.5793
4036.00,1.5843
4035.00,1.5892
4034.00,1.5942
4033.00,1.5990
4032.00,1.6037
4031.00,1.6083
4030.00,1.6127
4029.00,1.6173
4028.00,1.6218
4027.00,1.6263
4026.00,1.6305
4025.00,1.6345
4024.00,1.6384
4023.00,1.6423
4022.00,1.6463
4021.00,1.6502
4020.00,1.6542
4019.00,1.6580
4018.00,1.6617
4017.00,1.6651
4016.00,1.6685
4015.00,1.6719
4014.00,1.6753
4013.00,1.6787
4012.00,1.6821
4011.00,1.6853
4010.00,1.6884
4009.00,1.6912
4008.00,1.6940
4007.00,1.6966
4006.00,1.6993
4005.00,1.7021
4004.00,1.7048
4003.00,1.7075
4002.00,1.7099
4001.00,1.7121
4000.00,1.7142
3999.00,1.7163
3998.00,1.7185
3997.00,1.7207
3996.00,1.7229
3995.00,1.7250
3994.00,1.7269
3993.00,1.7287
3992.00,1.7304
3991.00,1.7320
3990.00,1.7336
3989.00,1.7352
3988.00,1.7369
3987.00,1.7386
3986.00,1.7403
3985.00,1.7419
3984.00,1.7435
3983.00,1.7450
3982.00,1.7464
3981.00,1.7477
3980.00,1.7488
3979.00,1.7498
3978.00,1.7509
3977.00,1.7520
3976.00,1.7530
3975.00,1.7539
3974.00,1.7546
3973.00,1.7552
3972.00,1.7556
3971.00,1.7558
3970.00,1.7560
3969.00,1.7563
3968.00,1.7569
3967.00,1.7576
3966.00,1.7581
3965.00,1.7584
3964.00,1.7586
3963.00,1.7586
3962.00,1.7586
3961.00,1.7585
3960.00,1.7582
3959.00,1.7578
3958.00,1.7572
3957.00,1.7568
3956.00,1.7564
3955.00,1.7562
3954.00,1.7560
3953.00,1.7558
3952.00,1.7555
3951.00,1.7552
3950.00,1.7547
3949.00,1.7539
3948.00,1.7528
3947.00,1.7516
3946.00,1.7506
3945.00,1.7498
3944.00,1.7489
3943.00,1.7478
3942.00,1.7465
3941.00,1.7451
3940.00,1.7437
3939.00,1.7422
3938.00,1.7405
3937.00,1.7388
3936.00,1.7370
3935.00,1.7353
3934.00,1.7337
3933.00,1.7321
3932.00,1.7301
3931.00,1.7279
3930.00,1.7255
3929.00,1.7233
3928.00,1.7211
3927.00,1.7188
3926.00,1.7163
3925.00,1.7136
3924.00,1.7110
3923.00,1.7085
3922.00,1.7061
3921.00,1.7036
3920.00,1.7010
3919.00,1.6982
3918.00,1.6951
3917.00,1.6916
3916.00,1.6880
3915.00,1.6844
3914.00,1.6810
3913.00,1.6777
3912.00,1.6745
3911.00,1.6712
3910.00,1.6678
3909.00,1.6644
3908.00,1.6609
3907.00,1.6572
3906.00,1.6533
3905.00,1.6489
3904.00,1.6442
3903.00,1.6394
3902.00,1.6344
3901.00,1.6293
3900.00,1.6244
3899.00,1.6197
3898.00,1.6153
3897.00,1.6109
3896.00,1.6063
3895.00,1.6016
3894.00,1.5967
3893.00,1.5915
3892.00,1.5861
3891.00,1.5807
3890.00,1.5754
3889.00,1.5700
3888.00,1.5643
3887.00,1.5583
3886.00,1.5523
3885.00,1.5463
3884.00,1.5402
3883.00,1.5338
3882.00,1.5270
3881.00,1.5202
3880.00,1.5137
3879.00,1.5076
3878.00,1.5015
3877.00,1.4950
3876.00,1.4882
3875.00,1.4813
3874.00,1.4744
3873.00,1.4673
3872.00,1.4597
3871.00,1.4516
3870.00,1.4436
3869.00,1.4358
3868.00,1.4280
3867.00,1.4198
3866.00,1.4113
3865.00,1.4029
3864.00,1.3949
3863.00,1.3872
3862.00,1.3794
3861.00,1.3714
3860.00,1.3632
3859.00,1.3551
3858.00,1.3469
3857.00,1.3384
3856.00,1.3294
3855.00,1.3198
3854.00,1.3100
3853.00,1.3002
3852.00,1.2902
3851.00,1.2803
3850.00,1.2707
3849.00,1.2617
3848.00,1.2535
3847.00,1.2458
3846.00,1.2380
3845.00,1.2298
3844.00,1.2211
3843.00,1.2121
3842.00,1.2028
3841.00,1.1931
3840.00,1.1832
3839.00,1.1733
3838.00,1.1636
3837.00,1.1542
3836.00,1.1449
3835.00,1.1356
3834.00,1.1264
3833.00,1.1175
3832.00,1.1090
3831.00,1.1010
3830.00,1.0931
3829.00,1.0851
3828.00,1.0770
3827.00,1.0690
3826.00,1.0612
3825.00,1.0535
3824.00,1.0458
3823.00,1.0378
3822.00,1.0295
3821.00,1.0211
3820.00,1.0129
3819.00,1.0050
3818.00,0.9973
3817.00,0.9898
3816.00,0.9826
3815.00,0.9755
3814.00,0.9685
3813.00,0.9617
3812.00,0.9555
3811.00,0.9498
3810.00,0.9446
3809.00,0.9392
3808.00,0.9334
3807.00,0.9270
3806.00,0.9203
3805.00,0.9138
3804.00,0.9079
3803.00,0.9025
3802.00,0.8971
3801.00,0.8914
3800.00,0.8855
3799.00,0.8798
3798.00,0.8748
3797.00,0.8707
3796.00,0.8671
3795.00,0.8637
3794.00,0.8604
3793.00,0.8573
3792.00,0.8545
3791.00,0.8520
3790.00,0.8496
3789.00,0.8474
3788.00,0.8453
3787.00,0.8433
3786.00,0.8415
3785.00,0.8398
3784.00,0.8383
3783.00,0.8372
3782.00,0.8364
3781.00,0.8359
3780.00,0.8356
3779.00,0.8355
3778.00,0.8356
3777.00,0.8360
3776.00,0.8370
3775.00,0.8386
3774.00,0.8407
3773.00,0.8432
3772.00,0.8458
3771.00,0.8486
3770.00,0.8515
3769.00,0.8544
3768.00,0.8575
3767.00,0.8610
3766.00,0.8649
3765.00,0.8692
3764.00,0.8739
3763.00,0.8789
3762.00,0.8841
3761.00,0.8896
3760.00,0.8955
3759.00,0.9015
3758.00,0.9076
3757.00,0.9138
3756.00,0.9203
3755.00,0.9269
3754.00,0.9337
3753.00,0.9406
3752.00,0.9477
3751.00,0.9553
3750.00,0.9635
3749.00,0.9721
3748.00,0.9808
3747.00,0.9892
3746.00,0.9976
3745.00,1.0070
3744.00,1.0179
3743.00,1.0292
3742.00,1.0399
3741.00,1.0500
3740.00,1.0601
3739.00,1.0705
3738.00,1.0811
3737.00,1.0918
3736.00,1.1027
3735.00,1.1134
3734.00,1.1239
3733.00,1.1346
3732.00,1.1460
3731.00,1.1579
3730.00,1.1698
3729.00,1.1813
3728.00,1.1924
3727.00,1.2033
3726.00,1.2143
3725.00,1.2253
3724.00,1.2363
3723.00,1.2473
3722.00,1.2586
3721.00,1.2703
3720.00,1.2822
3719.00,1.2942
3718.00,1.3063
3717.00,1.3182
3716.00,1.3298
3715.00,1.3407
3714.00,1.3508
3713.00,1.3607
3712.00,1.3711
3711.00,1.3822
3710.00,1.3936
3709.00,1.4050
3708.00,1.4163
3707.00,1.4272
3706.00,1.4377
3705.00,1.4478
3704.00,1.4575
3703.00,1.4672
3702.00,1.4769
3701.00,1.4868
3700.00,1.4968
3699.00,1.5066
3698.00,1.5160
3697.00,1.5254
3696.00,1.5347
3695.00,1.5438
3694.00,1.5525
3693.00,1.5607
3692.00,1.5686
3691.00,1.5762
3690.00,1.5837
3689.00,1.5917
3688.00,1.6005
3687.00,1.6096
3686.00,1.6185
3685.00,1.6271
3684.00,1.6355
3683.00,1.6434
3682.00,1.6509
3681.00,1.6578
3680.00,1.6645
3679.00,1.6709
3678.00,1.6767
3677.00,1.6824
3676.00,1.6885
3675.00,1.6952
3674.00,1.7021
3673.00,1.7086
3672.00,1.7148
3671.00,1.7209
3670.00,1.7274
3669.00,1.7341
3668.00,1.7408
3667.00,1.7470
3666.00,1.7527
3665.00,1.7583
3664.00,1.7639
3663.00,1.7693
3662.00,1.7747
3661.00,1.7801
3660.00,1.7855
3659.00,1.7905
3658.00,1.7948
3657.00,1.7987
3656.00,1.8031
3655.00,1.8079
3654.00,1.8128
3653.00,1.8174
3652.00,1.8214
3651.00,1.8247
3650.00,1.8277
3649.00,1.8308
3648.00,1.8342
3647.00,1.8379
3646.00,1.8418
3645.00,1.8461
3644.00,1.8506
3643.00,1.8550
3642.00,1.8591
3641.00,1.8629
3640.00,1.8664
3639.00,1.8696
3638.00,1.8727
3637.00,1.8757
3636.00,1.8787
3635.00,1.8815
3634.00,1.8842
3633.00,1.8869
3632.00,1.8898
3631.00,1.8926
3630.00,1.8947
3629.00,1.8964
3628.00,1.8976
3627.00,1.8988
3626.00,1.9002
3625.00,1.9021
3624.00,1.9047
3623.00,1.9077
3622.00,1.9106
3621.00,1.9133
3620.00,1.9156
3619.00,1.9173
3618.00,1.9187
3617.00,1.9200
3616.00,1.9215
3615.00,1.9232
3614.00,1.9250
3613.00,1.9271
3612.00,1.9292
3611.00,1.9310
3610.00,1.9323
3609.00,1.9334
3608.00,1.9345
3607.00,1.9354
3606.00,1.9361
3605.00,1.9367
3604.00,1.9375
3603.00,1.9383
3602.00,1.9390
3601.00,1.9396
3600.00,1.9403
3599.00,1.9409
3598.00,1.9416
3597.00,1.9425
3596.00,1.9435
3595.00,1.9443
3594.00,1.9448
3593.00,1.9451
3592.00,1.9453
3591.00,1.9454
3590.00,1.9455
3589.00,1.9455
3588.00,1.9453
3587.00,1.9447
3586.00,1.9439
3585.00,1.9435
3584.00,1.9436
3583.00,1.9440
3582.00,1.9441
3581.00,1.9438
3580.00,1.9433
3579.00,1.9426
3578.00,1.9419
3577.00,1.9414
3576.00,1.9410
3575.00,1.9406
3574.00,1.9400
3573.00,1.9393
3572.00,1.9387
3571.00,1.9380
3570.00,1.9373
3569.00,1.9363
3568.00,1.9349
3567.00,1.9330
3566.00,1.9308
3565.00,1.9285
3564.00,1.9267
3563.00,1.9251
3562.00,1.9236
3561.00,1.9221
3560.00,1.9204
3559.00,1.9184
3558.00,1.9164
3557.00,1.9147
3556.00,1.9133
3555.00,1.9119
3554.00,1.9101
3553.00,1.9079
3552.00,1.9055
3551.00,1.9031
3550.00,1.9008
3549.00,1.8985
3548.00,1.8962
3547.00,1.8936
3546.00,1.8905
3545.00,1.8872
3544.00,1.8841
3543.00,1.8810
3542.00,1.8781
3541.00,1.8751
3540.00,1.8721
3539.00,1.8690
3538.00,1.8658
3537.00,1.8626
3536.00,1.8593
3535.00,1.8558
3534.00,1.8521
3533.00,1.8483
3532.00,1.8445
3531.00,1.8406
3530.00,1.8364
3529.00,1.8321
3528.00,1.8277
3527.00,1.8233
3526.00,1.8189
3525.00,1.8148
3524.00,1.8106
3523.00,1.8061
3522.00,1.8015
3521.00,1.7967
3520.00,1.7919
3519.00,1.7871
3518.00,1.7821
3517.00,1.7771
3516.00,1.7721
3515.00,1.7671
3514.00,1.7618
3513.00,1.7563
3512.00,1.7504
3511.00,1.7442
3510.00,1.7378
3509.00,1.7315
3508.00,1.7254
3507.00,1.7193
3506.00,1.7131
3505.00,1.7070
3504.00,1.7007
3503.00,1.6941
3502.00,1.6872
3501.00,1.6800
3500.00,1.6727
3499.00,1.6655
3498.00,1.6583
3497.00,1.6510
3496.00,1.6436
3495.00,1.6360
3494.00,1.6283
3493.00,1.6205
3492.00,1.6125
3491.00,1.6042
3490.00,1.5957
3489.00,1.5870
3488.00,1.5783
3487.00,1.5697
3486.00,1.5610
3485.00,1.5524
3484.00,1.5437
3483.00,1.5348
3482.00,1.5257
3481.00,1.5165
3480.00,1.5070
3479.00,1.4973
3478.00,1.4877
3477.00,1.4780
3476.00,1.4683
3475.00,1.4585
3474.00,1.4486
3473.00,1.4388
3472.00,1.4289
3471.00,1.4189
3470.00,1.4090
3469.00,1.3990
3468.00,1.3891
3467.00,1.3792
3466.00,1.3692
3465.00,1.3591
3464.00,1.3491
3463.00,1.3392
3462.00,1.3294
3461.00,1.3197
3460.00,1.3100
3459.00,1.3002
3458.00,1.2905
3457.00,1.2808
3456.00,1.2713
3455.00,1.2619
3454.00,1.2526
3453.00,1.2436
3452.00,1.2347
3451.00,1.2260
3450.00,1.2175
3449.00,1.2091
3448.00,1.2007
3447.00,1.1924
3446.00,1.1841
3445.00,1.1761
3444.00,1.1683
3443.00,1.1608
3442.00,1.1535
3441.00,1.1464
3440.00,1.1395
3439.00,1.1328
3438.00,1.1264
3437.00,1.1202
3436.00,1.1143
3435.00,1.1086
3434.00,1.1031
3433.00,1.0979
3432.00,1.0931
3431.00,1.0886
3430.00,1.0845
3429.00,1.0809
3428.00,1.0775
3427.00,1.0746
3426.00,1.0721
3425.00,1.0700
3424.00,1.0685
3423.00,1.0675
3422.00,1.0669
3421.00,1.0667
3420.00,1.0669
3419.00,1.0675
3418.00,1.0686
3417.00,1.0702
3416.00,1.0721
3415.00,1.0744
3414.00,1.0768
3413.00,1.0793
3412.00,1.0817
3411.00,1.0841
3410.00,1.0863
3409.00,1.0882
3408.00,1.0898
3407.00,1.0910
3406.00,1.0916
3405.00,1.0917
3404.00,1.0913
3403.00,1.0903
3402.00,1.0887
3401.00,1.0868
3400.00,1.0846
3399.00,1.0824
3398.00,1.0801
3397.00,1.0779
3396.00,1.0759
3395.00,1.0742
3394.00,1.0729
3393.00,1.0722
3392.00,1.0720
3391.00,1.0724
3390.00,1.0734
3389.00,1.0751
3388.00,1.0775
3387.00,1.0803
3386.00,1.0837
3385.00,1.0875
3384.00,1.0919
3383.00,1.0967
3382.00,1.1021
3381.00,1.1079
3380.00,1.1142
3379.00,1.1209
3378.00,1.1280
3377.00,1.1355
3376.00,1.1434
3375.00,1.1517
3374.00,1.1603
3373.00,1.1691
3372.00,1.1783
3371.00,1.1876
3370.00,1.1972
3369.00,1.2071
3368.00,1.2172
3367.00,1.2275
3366.00,1.2380
3365.00,1.2488
3364.00,1.2597
3363.00,1.2708
3362.00,1.2819
3361.00,1.2931
3360.00,1.3044
3359.00,1.3158
3358.00,1.3272
3357.00,1.3386
3356.00,1.3501
3355.00,1.3615
3354.00,1.3730
3353.00,1.3846
3352.00,1.3962
3351.00,1.4077
3350.00,1.4192
3349.00,1.4305
3348.00,1.4420
3347.00,1.4534
3346.00,1.4649
3345.00,1.4763
3344.00,1.4875
3343.00,1.4987
3342.00,1.5096
3341.00,1.5205
3340.00,1.5314
3339.00,1.5423
3338.00,1.5529
3337.00,1.5634
3336.00,1.5738
3335.00,1.5843
3334.00,1.5947
3333.00,1.6050
3332.00,1.6150
3331.00,1.6247
3330.00,1.6342
3329.00,1.6437
3328.00,1.6533
3327.00,1.6628
3326.00,1.6723
3325.00,1.6816
3324.00,1.6908
3323.00,1.6998
3322.00,1.7085
3321.00,1.7171
3320.00,1.7255
3319.00,1.7338
3318.00,1.7421
3317.00,1.7503
3316.00,1.7583
3315.00,1.7663
3314.00,1.7742
3313.00,1.7822
3312.00,1.7901
3311.00,1.7979
3310.00,1.8052
3309.00,1.8123
3308.00,1.8191
3307.00,1.8258
3306.00,1.8327
3305.00,1.8395
3304.00,1.8463
3303.00,1.8529
3302.00,1.8592
3301.00,1.8656
3300.00,1.8721
3299.00,1.8784
3298.00,1.8845
3297.00,1.8905
3296.00,1.8964
3295.00,1.9023
3294.00,1.9080
3293.00,1.9137
3292.00,1.9193
3291.00,1.9249
3290.00,1.9301
3289.00,1.9351
3288.00,1.9401
3287.00,1.9451
3286.00,1.9503
3285.00,1.9555
3284.00,1.9605
3283.00,1.9652
3282.00,1.9696
3281.00,1.9740
3280.00,1.9786
3279.00,1.9833
3278.00,1.9879
3277.00,1.9923
3276.00,1.9967
3275.00,2.0008
3274.00,2.0047
3273.00,2.0085
3272.00,2.0122
3271.00,2.0158
3270.00,2.0192
3269.00,2.0227
3268.00,2.0264
3267.00,2.0303
3266.00,2.0339
3265.00,2.0372
3264.00,2.0399
3263.00,2.0425
3262.00,2.0453
3261.00,2.0485
3260.00,2.0519
3259.00,2.0548
3258.00,2.0573
3257.00,2.0598
3256.00,2.0625
3255.00,2.0655
3254.00,2.0683
3253.00,2.0709
3252.00,2.0731
3251.00,2.0750
3250.00,2.0768
3249.00,2.0787
3248.00,2.0808
3247.00,2.0828
3246.00,2.0847
3245.00,2.0868
3244.00,2.0889
3243.00,2.0909
3242.00,2.0925
3241.00,2.0940
3240.00,2.0955
3239.00,2.0971
3238.00,2.0986
3237.00,2.0999
3236.00,2.1012
3235.00,2.1025
3234.00,2.1036
3233.00,2.1045
3232.00,2.1054
3231.00,2.1061
3230.00,2.1069
3229.00,2.1080
3228.00,2.1091
3227.00,2.1100
3226.00,2.1104
3225.00,2.1106
3224.00,2.1110
3223.00,2.1119
3222.00,2.1129
3221.00,2.1136
3220.00,2.1140
3219.00,2.1142
3218.00,2.1143
3217.00,2.1143
3216.00,2.1141
3215.00,2.1138
3214.00,2.1133
3213.00,2.1129
3212.00,2.1126
3211.00,2.1123
3210.00,2.1121
3209.00,2.1118
3208.00,2.1116
3207.00,2.1114
3206.00,2.1112
3205.00,2.1108
3204.00,2.1101
3203.00,2.1088
3202.00,2.1072
3201.00,2.1057
3200.00,2.1044
3199.00,2.1033
3198.00,2.1022
3197.00,2.1009
3196.00,2.0993
3195.00,2.0975
3194.00,2.0957
3193.00,2.0942
3192.00,2.0927
3191.00,2.0912
3190.00,2.0895
3189.00,2.0877
3188.00,2.0859
3187.00,2.0840
3186.00,2.0819
3185.00,2.0799
3184.00,2.0779
3183.00,2.0756
3182.00,2.0730
3181.00,2.0702
3180.00,2.0676
3179.00,2.0652
3178.00,2.0629
3177.00,2.0606
3176.00,2.0581
3175.00,2.0551
3174.00,2.0517
3173.00,2.0480
3172.00,2.0446
3171.00,2.0414
3170.00,2.0384
3169.00,2.0352
3168.00,2.0315
3167.00,2.0274
3166.00,2.0230
3165.00,2.0187
3164.00,2.0145
3163.00,2.0103
3162.00,2.0061
3161.00,2.0019
3160.00,1.9977
3159.00,1.9934
3158.00,1.9891
3157.00,1.9847
3156.00,1.9801
3155.00,1.9753
3154.00,1.9703
3153.00,1.9651
3152.00,1.9598
3151.00,1.9542
3150.00,1.9486
3149.00,1.9431
3148.00,1.9376
3147.00,1.9318
3146.00,1.9257
3145.00,1.9195
3144.00,1.9131
3143.00,1.9066
3142.00,1.9000
3141.00,1.8933
3140.00,1.8865
3139.00,1.8798
3138.00,1.8728
3137.00,1.8655
3136.00,1.8579
3135.00,1.8503
3134.00,1.8426
3133.00,1.8349
3132.00,1.8271
3131.00,1.8191
3130.00,1.8108
3129.00,1.8023
3128.00,1.7935
3127.00,1.7845
3126.00,1.7753
3125.00,1.7660
3124.00,1.7565
3123.00,1.7469
3122.00,1.7373
3121.00,1.7275
3120.00,1.7175
3119.00,1.7072
3118.00,1.6966
3117.00,1.6857
3116.00,1.6747
3115.00,1.6635
3114.00,1.6522
3113.00,1.6407
3112.00,1.6290
3111.00,1.6172
3110.00,1.6054
3109.00,1.5934
3108.00,1.5811
3107.00,1.5686
3106.00,1.5560
3105.00,1.5432
3104.00,1.5304
3103.00,1.5175
3102.00,1.5045
3101.00,1.4914
3100.00,1.4782
3099.00,1.4649
3098.00,1.4515
3097.00,1.4382
3096.00,1.4250
3095.00,1.4118
3094.00,1.3986
3093.00,1.3855
3092.00,1.3725
3091.00,1.3597
3090.00,1.3471
3089.00,1.3346
3088.00,1.3223
3087.00,1.3102
3086.00,1.2982
3085.00,1.2864
3084.00,1.2747
3083.00,1.2632
3082.00,1.2520
3081.00,1.2410
3080.00,1.2303
3079.00,1.2199
3078.00,1.2097
3077.00,1.1997
3076.00,1.1899
3075.00,1.1805
3074.00,1.1714
3073.00,1.1627
3072.00,1.1543
3071.00,1.1462
3070.00,1.1385
3069.00,1.1311
3068.00,1.1242
3067.00,1.1176
3066.00,1.1113
3065.00,1.1054
3064.00,1.1000
3063.00,1.0949
3062.00,1.0903
3061.00,1.0860
3060.00,1.0822
3059.00,1.0789
3058.00,1.0762
3057.00,1.0739
3056.00,1.0722
3055.00,1.0710
3054.00,1.0703
3053.00,1.0702
3052.00,1.0706
3051.00,1.0714
3050.00,1.0729
3049.00,1.0749
3048.00,1.0776
3047.00,1.0811
3046.00,1.0853
3045.00,1.0904
3044.00,1.0964
3043.00,1.1034
3042.00,1.1113
3041.00,1.1201
3040.00,1.1299
3039.00,1.1405
3038.00,1.1520
3037.00,1.1644
3036.00,1.1776
3035.00,1.1915
3034.00,1.2060
3033.00,1.2211
3032.00,1.2367
3031.00,1.2527
3030.00,1.2692
3029.00,1.2860
3028.00,1.3031
3027.00,1.3205
3026.00,1.3381
3025.00,1.3562
3024.00,1.3746
3023.00,1.3933
3022.00,1.4122
3021.00,1.4314
3020.00,1.4507
3019.00,1.4703
3018.00,1.4901
3017.00,1.5103
3016.00,1.5308
3015.00,1.5516
3014.00,1.5723
3013.00,1.5928
3012.00,1.6132
3011.00,1.6336
3010.00,1.6539
3009.00,1.6743
3008.00,1.6946
3007.00,1.7149
3006.00,1.7352
3005.00,1.7554
3004.00,1.7755
3003.00,1.7953
3002.00,1.8148
3001.00,1.8341
3000.00,1.8534
2999.00,1.8725
2998.00,1.8914
2997.00,1.9102
2996.00,1.9289
2995.00,1.9474
2994.00,1.9659
2993.00,1.9843
2992.00,2.0025
2991.00,2.0204
2990.00,2.0379
2989.00,2.0551
2988.00,2.0721
2987.00,2.0890
2986.00,2.1059
2985.00,2.1229
2984.00,2.1400
2983.00,2.1567
2982.00,2.1731
2981.00,2.1898
2980.00,2.2067
2979.00,2.2237
2978.00,2.2403
2977.00,2.2566
2976.00,2.2729
2975.00,2.2898
2974.00,2.3072
2973.00,2.3252
2972.00,2.3440
2971.00,2.3637
2970.00,2.3846
2969.00,2.4069
2968.00,2.4305
2967.00,2.4551
2966.00,2.4806
2965.00,2.5072
2964.00,2.5350
2963.00,2.5633
2962.00,2.5913
2961.00,2.6185
2960.00,2.6452
2959.00,2.6712
2958.00,2.6958
2957.00,2.7185
2956.00,2.7393
2955.00,2.7592
2954.00,2.7795
2953.00,2.8010
2952.00,2.8239
2951.00,2.8473
2950.00,2.8702
2949.00,2.8915
2948.00,2.9122
2947.00,2.9345
2946.00,2.9601
2945.00,2.9881
2944.00,3.0156
2943.00,3.0397
2942.00,3.0601
2941.00,3.0766
2940.00,3.0885
2939.00,3.0956
2938.00,3.0989
2937.00,3.0992
2936.00,3.0944
2935.00,3.0817
2934.00,3.0601
2933.00,3.0312
2932.00,2.9973
2931.00,2.9606
2930.00,2.9222
2929.00,2.8815
2928.00,2.8370
2927.00,2.7889
2926.00,2.7397
2925.00,2.6915
2924.00,2.6445
2923.00,2.5984
2922.00,2.5536
2921.00,2.5102
2920.00,2.4678
2919.00,2.4260
2918.00,2.3854
2917.00,2.3476
2916.00,2.3136
2915.00,2.2839
2914.00,2.2584
2913.00,2.2372
2912.00,2.2200
2911.00,2.2068
2910.00,2.1972
2909.00,2.1907
2908.00,2.1863
2907.00,2.1831
2906.00,2.1809
2905.00,2.1796
2904.00,2.1791
2903.00,2.1787
2902.00,2.1781
2901.00,2.1776
2900.00,2.1779
2899.00,2.1793
2898.00,2.1817
2897.00,2.1850
2896.00,2.1890
2895.00,2.1937
2894.00,2.1991
2893.00,2.2054
2892.00,2.2125
2891.00,2.2200
2890.00,2.2278
2889.00,2.2361
2888.00,2.2450
2887.00,2.2546
2886.00,2.2648
2885.00,2.2754
2884.00,2.2863
2883.00,2.2977
2882.00,2.3103
2881.00,2.3247
2880.00,2.3404
2879.00,2.3564
2878.00,2.3718
2877.00,2.3868
2876.00,2.4022
2875.00,2.4184
2874.00,2.4355
2873.00,2.4536
2872.00,2.4735
2871.00,2.4950
2870.00,2.5176
2869.00,2.5404
2868.00,2.5626
2867.00,2.5834
2866.00,2.6016
2865.00,2.6151
2864.00,2.6218
2863.00,2.6207
2862.00,2.6113
2861.00,2.5940
2860.00,2.5690
2859.00,2.5371
2858.00,2.5002
2857.00,2.4607
2856.00,2.4201
2855.00,2.3798
2854.00,2.3410
2853.00,2.3047
2852.00,2.2719
2851.00,2.2439
2850.00,2.2218
2849.00,2.2057
2848.00,2.1950
2847.00,2.1886
2846.00,2.1857
2845.00,2.1861
2844.00,2.1890
2843.00,2.1940
2842.00,2.2006
2841.00,2.2086
2840.00,2.2176
2839.00,2.2266
2838.00,2.2352
2837.00,2.2434
2836.00,2.2517
2835.00,2.2599
2834.00,2.2678
2833.00,2.2748
2832.00,2.2810
2831.00,2.2866
2830.00,2.2919
2829.00,2.2971
2828.00,2.3021
2827.00,2.3066
2826.00,2.3106
2825.00,2.3138
2824.00,2.3164
2823.00,2.3186
2822.00,2.3209
2821.00,2.3235
2820.00,2.3261
2819.00,2.3285
2818.00,2.3305
2817.00,2.3327
2816.00,2.3353
2815.00,2.3380
2814.00,2.3404
2813.00,2.3427
2812.00,2.3450
2811.00,2.3471
2810.00,2.3490
2809.00,2.3505
2808.00,2.3519
2807.00,2.3531
2806.00,2.3544
2805.00,2.3560
2804.00,2.3578
2803.00,2.3596
2802.00,2.3612
2801.00,2.3624
2800.00,2.3633
2799.00,2.3635
2798.00,2.3631
2797.00,2.3625
2796.00,2.3621
2795.00,2.3626
2794.00,2.3637
2793.00,2.3646
2792.00,2.3647
2791.00,2.3639
2790.00,2.3631
2789.00,2.3631
2788.00,2.3638
2787.00,2.3646
2786.00,2.3649
2785.00,2.3645
2784.00,2.3635
2783.00,2.3620
2782.00,2.3605
2781.00,2.3591
2780.00,2.3575
2779.00,2.3556
2778.00,2.3536
2777.00,2.3520
2776.00,2.3508
2775.00,2.3497
2774.00,2.3484
2773.00,2.3467
2772.00,2.3445
2771.00,2.3421
2770.00,2.3396
2769.00,2.3371
2768.00,2.3348
2767.00,2.3326
2766.00,2.3305
2765.00,2.3284
2764.00,2.3263
2763.00,2.3239
2762.00,2.3213
2761.00,2.3185
2760.00,2.3154
2759.00,2.3120
2758.00,2.3085
2757.00,2.3049
2756.00,2.3013
2755.00,2.2978
2754.00,2.2944
2753.00,2.2911
2752.00,2.2875
2751.00,2.2836
2750.00,2.2795
2749.00,2.2753
2748.00,2.2710
2747.00,2.2663
2746.00,2.2614
2745.00,2.2567
2744.00,2.2524
2743.00,2.2483
2742.00,2.2441
2741.00,2.2394
2740.00,2.2343
2739.00,2.2288
2738.00,2.2231
2737.00,2.2173
2736.00,2.2113
2735.00,2.2049
2734.00,2.1982
2733.00,2.1915
2732.00,2.1850
2731.00,2.1789
2730.00,2.1732
2729.00,2.1676
2728.00,2.1617
2727.00,2.1551
2726.00,2.1479
2725.00,2.1405
2724.00,2.1330
2723.00,2.1253
2722.00,2.1173
2721.00,2.1088
2720.00,2.1003
2719.00,2.0918
2718.00,2.0836
2717.00,2.0756
2716.00,2.0675
2715.00,2.0590
2714.00,2.0498
2713.00,2.0403
2712.00,2.0307
2711.00,2.0212
2710.00,2.0114
2709.00,2.0014
2708.00,1.9909
2707.00,1.9802
2706.00,1.9693
2705.00,1.9582
2704.00,1.9468
2703.00,1.9352
2702.00,1.9234
2701.00,1.9115
2700.00,1.8993
2699.00,1.8869
2698.00,1.8742
2697.00,1.8614
2696.00,1.8484
2695.00,1.8351
2694.00,1.8214
2693.00,1.8076
2692.00,1.7936
2691.00,1.7793
2690.00,1.7648
2689.00,1.7501
2688.00,1.7356
2687.00,1.7213
2686.00,1.7071
2685.00,1.6931
2684.00,1.6795
2683.00,1.6665
2682.00,1.6542
2681.00,1.6430
2680.00,1.6326
2679.00,1.6231
2678.00,1.6142
2677.00,1.6057
2676.00,1.5974
2675.00,1.5888
2674.00,1.5798
2673.00,1.5703
2672.00,1.5605
2671.00,1.5506
2670.00,1.5406
2669.00,1.5302
2668.00,1.5192
2667.00,1.5069
2666.00,1.4933
2665.00,1.4785
2664.00,1.4625
2663.00,1.4459
2662.00,1.4290
2661.00,1.4124
2660.00,1.3964
2659.00,1.3812
2658.00,1.3669
2657.00,1.3534
2656.00,1.3409
2655.00,1.3292
2654.00,1.3181
2653.00,1.3076
2652.00,1.2974
2651.00,1.2875
2650.00,1.2777
2649.00,1.2680
2648.00,1.2583
2647.00,1.2486
2646.00,1.2388
2645.00,1.2288
2644.00,1.2188
2643.00,1.2088
2642.00,1.1988
2641.00,1.1889
2640.00,1.1795
2639.00,1.1707
2638.00,1.1626
2637.00,1.1553
2636.00,1.1489
2635.00,1.1435
2634.00,1.1390
2633.00,1.1356
2632.00,1.1333
2631.00,1.1321
2630.00,1.1320
2629.00,1.1331
2628.00,1.1353
2627.00,1.1386
2626.00,1.1430
2625.00,1.1484
2624.00,1.1549
2623.00,1.1624
2622.00,1.1707
2621.00,1.1799
2620.00,1.1897
2619.00,1.2000
2618.00,1.2110
2617.00,1.2224
2616.00,1.2343
2615.00,1.2465
2614.00,1.2590
2613.00,1.2717
2612.00,1.2846
2611.00,1.2977
2610.00,1.3108
2609.00,1.3240
2608.00,1.3372
2607.00,1.3505
2606.00,1.3640
2605.00,1.3779
2604.00,1.3923
2603.00,1.4070
2602.00,1.4224
2601.00,1.4383
2600.00,1.4547
2599.00,1.4715
2598.00,1.4886
2597.00,1.5059
2596.00,1.5236
2595.00,1.5416
2594.00,1.5598
2593.00,1.5781
2592.00,1.5964
2591.00,1.6145
2590.00,1.6326
2589.00,1.6507
2588.00,1.6686
2587.00,1.6863
2586.00,1.7038
2585.00,1.7210
2584.00,1.7381
2583.00,1.7550
2582.00,1.7716
2581.00,1.7880
2580.00,1.8041
2579.00,1.8199
2578.00,1.8354
2577.00,1.8507
2576.00,1.8658
2575.00,1.8806
2574.00,1.8949
2573.00,1.9089
2572.00,1.9227
2571.00,1.9362
2570.00,1.9496
2569.00,1.9629
2568.00,1.9760
2567.00,1.9885
2566.00,2.0005
2565.00,2.0122
2564.00,2.0236
2563.00,2.0349
2562.00,2.0460
2561.00,2.0572
2560.00,2.0685
2559.00,2.0798
2558.00,2.0910
2557.00,2.1018
2556.00,2.1124
2555.00,2.1228
2554.00,2.1331
2553.00,2.1432
2552.00,2.1533
2551.00,2.1632
2550.00,2.1727
2549.00,2.1820
2548.00,2.1908
2547.00,2.1995
2546.00,2.2082
2545.00,2.2172
2544.00,2.2262
2543.00,2.2349
2542.00,2.2431
2541.00,2.2510
2540.00,2.2589
2539.00,2.2669
2538.00,2.2748
2537.00,2.2826
2536.00,2.2902
2535.00,2.2975
2534.00,2.3045
2533.00,2.3115
2532.00,2.3184
2531.00,2.3248
2530.00,2.3306
2529.00,2.3362
2528.00,2.3421
2527.00,2.3485
2526.00,2.3552
2525.00,2.3618
2524.00,2.3680
2523.00,2.3740
2522.00,2.3797
2521.00,2.3850
2520.00,2.3898
2519.00,2.3939
2518.00,2.3979
2517.00,2.4025
2516.00,2.4080
2515.00,2.4141
2514.00,2.4202
2513.00,2.4263
2512.00,2.4320
2511.00,2.4375
2510.00,2.4429
2509.00,2.4483
2508.00,2.4538
2507.00,2.4588
2506.00,2.4632
2505.00,2.4672
2504.00,2.4712
2503.00,2.4749
2502.00,2.4785
2501.00,2.4818
2500.00,2.4852
2499.00,2.4885
2498.00,2.4917
2497.00,2.4947
2496.00,2.4978
2495.00,2.5016
2494.00,2.5064
2493.00,2.5114
2492.00,2.5151
2491.00,2.5171
2490.00,2.5181
2489.00,2.5196
2488.00,2.5219
2487.00,2.5249
2486.00,2.5286
2485.00,2.5330
2484.00,2.5376
2483.00,2.5412
2482.00,2.5436
2481.00,2.5451
2480.00,2.5467
2479.00,2.5484
2478.00,2.5503
2477.00,2.5524
2476.00,2.5546
2475.00,2.5566
2474.00,2.5584
2473.00,2.5605
2472.00,2.5628
2471.00,2.5655
2470.00,2.5686
2469.00,2.5721
2468.00,2.5752
2467.00,2.5773
2466.00,2.5781
2465.00,2.5785
2464.00,2.5789
2463.00,2.5793
2462.00,2.5797
2461.00,2.5803
2460.00,2.5810
2459.00,2.5816
2458.00,2.5823
2457.00,2.5838
2456.00,2.5862
2455.00,2.5889
2454.00,2.5913
2453.00,2.5934
2452.00,2.5953
2451.00,2.5964
2450.00,2.5963
2449.00,2.5951
2448.00,2.5939
2447.00,2.5933
2446.00,2.5931
2445.00,2.5927
2444.00,2.5917
2443.00,2.5905
2442.00,2.5899
2441.00,2.5907
2440.00,2.5928
2439.00,2.5952
2438.00,2.5965
2437.00,2.5966
2436.00,2.5961
2435.00,2.5954
2434.00,2.5948
2433.00,2.5943
2432.00,2.5937
2431.00,2.5926
2430.00,2.5910
2429.00,2.5896
2428.00,2.5890
2427.00,2.5890
2426.00,2.5889
2425.00,2.5884
2424.00,2.5875
2423.00,2.5865
2422.00,2.5852
2421.00,2.5836
2420.00,2.5815
2419.00,2.5793
2418.00,2.5771
2417.00,2.5750
2416.00,2.5731
2415.00,2.5714
2414.00,2.5699
2413.00,2.5686
2412.00,2.5674
2411.00,2.5658
2410.00,2.5638
2409.00,2.5613
2408.00,2.5587
2407.00,2.5561
2406.00,2.5538
2405.00,2.5520
2404.00,2.5503
2403.00,2.5483
2402.00,2.5456
2401.00,2.5426
2400.00,2.5396
2399.00,2.5368
2398.00,2.5341
2397.00,2.5313
2396.00,2.5282
2395.00,2.5248
2394.00,2.5211
2393.00,2.5170
2392.00,2.5122
2391.00,2.5071
2390.00,2.5021
2389.00,2.4978
2388.00,2.4943
2387.00,2.4912
2386.00,2.4878
2385.00,2.4838
2384.00,2.4792
2383.00,2.4745
2382.00,2.4701
2381.00,2.4662
2380.00,2.4622
2379.00,2.4573
2378.00,2.4515
2377.00,2.4452
2376.00,2.4391
2375.00,2.4331
2374.00,2.4274
2373.00,2.4218
2372.00,2.4162
2371.00,2.4107
2370.00,2.4053
2369.00,2.3998
2368.00,2.3940
2367.00,2.3878
2366.00,2.3814
2365.00,2.3753
2364.00,2.3691
2363.00,2.3625
2362.00,2.3552
2361.00,2.3475
2360.00,2.3397
2359.00,2.3320
2358.00,2.3243
2357.00,2.3164
2356.00,2.3083
2355.00,2.3006
2354.00,2.2939
2353.00,2.2887
2352.00,2.2853
2351.00,2.2834
2350.00,2.2816
2349.00,2.2777
2348.00,2.2706
2347.00,2.2599
2346.00,2.2468
2345.00,2.2325
2344.00,2.2183
2343.00,2.2046
2342.00,2.1914
2341.00,2.1784
2340.00,2.1659
2339.00,2.1539
2338.00,2.1425
2337.00,2.1311
2336.00,2.1194
2335.00,2.1069
2334.00,2.0936
2333.00,2.0800
2332.00,2.0662
2331.00,2.0528
2330.00,2.0398
2329.00,2.0275
2328.00,2.0153
2327.00,2.0024
2326.00,1.9888
2325.00,1.9746
2324.00,1.9600
2323.00,1.9449
2322.00,1.9297
2321.00,1.9145
2320.00,1.8995
2319.00,1.8845
2318.00,1.8694
2317.00,1.8540
2316.00,1.8382
2315.00,1.8221
2314.00,1.8057
2313.00,1.7894
2312.00,1.7731
2311.00,1.7567
2310.00,1.7402
2309.00,1.7239
2308.00,1.7077
2307.00,1.6915
2306.00,1.6753
2305.00,1.6590
2304.00,1.6428
2303.00,1.6269
2302.00,1.6112
2301.00,1.5958
2300.00,1.5806
2299.00,1.5656
2298.00,1.5508
2297.00,1.5363
2296.00,1.5221
2295.00,1.5081
2294.00,1.4943
2293.00,1.4806
2292.00,1.4671
2291.00,1.4538
2290.00,1.4406
2289.00,1.4277
2288.00,1.4150
2287.00,1.4025
2286.00,1.3901
2285.00,1.3781
2284.00,1.3664
2283.00,1.3550
2282.00,1.3440
2281.00,1.3335
2280.00,1.3236
2279.00,1.3143
2278.00,1.3056
2277.00,1.2976
2276.00,1.2904
2275.00,1.2840
2274.00,1.2783
2273.00,1.2734
2272.00,1.2691
2271.00,1.2655
2270.00,1.2626
2269.00,1.2605
2268.00,1.2592
2267.00,1.2589
2266.00,1.2594
2265.00,1.2611
2264.00,1.2640
2263.00,1.2681
2262.00,1.2735
2261.00,1.2801
2260.00,1.2880
2259.00,1.2969
2258.00,1.3068
2257.00,1.3176
2256.00,1.3291
2255.00,1.3414
2254.00,1.3542
2253.00,1.3677
2252.00,1.3819
2251.00,1.3970
2250.00,1.4128
2249.00,1.4293
2248.00,1.4466
2247.00,1.4645
2246.00,1.4827
2245.00,1.5014
2244.00,1.5203
2243.00,1.5395
2242.00,1.5591
2241.00,1.5789
2240.00,1.5991
2239.00,1.6194
2238.00,1.6397
2237.00,1.6600
2236.00,1.6804
2235.00,1.7008
2234.00,1.7212
2233.00,1.7415
2232.00,1.7617
2231.00,1.7819
2230.00,1.8020
2229.00,1.8220
2228.00,1.8417
2227.00,1.8612
2226.00,1.8804
2225.00,1.8993
2224.00,1.9179
2223.00,1.9362
2222.00,1.9541
2221.00,1.9718
2220.00,1.9895
2219.00,2.0068
2218.00,2.0237
2217.00,2.0402
2216.00,2.0565
2215.00,2.0725
2214.00,2.0882
2213.00,2.1039
2212.00,2.1195
2211.00,2.1348
2210.00,2.1495
2209.00,2.1637
2208.00,2.1776
2207.00,2.1913
2206.00,2.2048
2205.00,2.2179
2204.00,2.2308
2203.00,2.2432
2202.00,2.2553
2201.00,2.2676
2200.00,2.2801
2199.00,2.2923
2198.00,2.3037
2197.00,2.3144
2196.00,2.3249
2195.00,2.3357
2194.00,2.3467
2193.00,2.3578
2192.00,2.3687
2191.00,2.3795
2190.00,2.3897
2189.00,2.3994
2188.00,2.4087
2187.00,2.4180
2186.00,2.4277
2185.00,2.4377
2184.00,2.4472
2183.00,2.4558
2182.00,2.4636
2181.00,2.4717
2180.00,2.4809
2179.00,2.4909
2178.00,2.5006
2177.00,2.5090
2176.00,2.5162
2175.00,2.5226
2174.00,2.5286
2173.00,2.5347
2172.00,2.5407
2171.00,2.5469
2170.00,2.5533
2169.00,2.5601
2168.00,2.5669
2167.00,2.5734
2166.00,2.5796
2165.00,2.5853
2164.00,2.5911
2163.00,2.5974
2162.00,2.6049
2161.00,2.6132
2160.00,2.6216
2159.00,2.6291
2158.00,2.6358
2157.00,2.6421
2156.00,2.6482
2155.00,2.6538
2154.00,2.6590
2153.00,2.6640
2152.00,2.6689
2151.00,2.6731
2150.00,2.6772
2149.00,2.6819
2148.00,2.6873
2147.00,2.6921
2146.00,2.6958
2145.00,2.6994
2144.00,2.7040
2143.00,2.7096
2142.00,2.7154
2141.00,2.7209
2140.00,2.7259
2139.00,2.7306
2138.00,2.7348
2137.00,2.7387
2136.00,2.7426
2135.00,2.7467
2134.00,2.7506
2133.00,2.7535
2132.00,2.7551
2131.00,2.7562
2130.00,2.7582
2129.00,2.7623
2128.00,2.7682
2127.00,2.7745
2126.00,2.7798
2125.00,2.7837
2124.00,2.7861
2123.00,2.7875
2122.00,2.7887
2121.00,2.7908
2120.00,2.7934
2119.00,2.7952
2118.00,2.7960
2117.00,2.7969
2116.00,2.7991
2115.00,2.8028
2114.00,2.8070
2113.00,2.8110
2112.00,2.8145
2111.00,2.8172
2110.00,2.8193
2109.00,2.8209
2108.00,2.8222
2107.00,2.8237
2106.00,2.8259
2105.00,2.8289
2104.00,2.8314
2103.00,2.8325
2102.00,2.8333
2101.00,2.8355
2100.00,2.8397
2099.00,2.8441
2098.00,2.8475
2097.00,2.8497
2096.00,2.8513
2095.00,2.8522
2094.00,2.8527
2093.00,2.8534
2092.00,2.8539
2091.00,2.8533
2090.00,2.8517
2089.00,2.8507
2088.00,2.8519
2087.00,2.8548
2086.00,2.8581
2085.00,2.8604
2084.00,2.8613
2083.00,2.8607
2082.00,2.8592
2081.00,2.8580
2080.00,2.8580
2079.00,2.8586
2078.00,2.8592
2077.00,2.8597
2076.00,2.8611
2075.00,2.8631
2074.00,2.8649
2073.00,2.8657
2072.00,2.8656
2071.00,2.8657
2070.00,2.8664
2069.00,2.8670
2068.00,2.8665
2067.00,2.8646
2066.00,2.8628
2065.00,2.8627
2064.00,2.8640
2063.00,2.8650
2062.00,2.8646
2061.00,2.8628
2060.00,2.8600
2059.00,2.8565
2058.00,2.8531
2057.00,2.8506
2056.00,2.8495
2055.00,2.8488
2054.00,2.8477
2053.00,2.8460
2052.00,2.8439
2051.00,2.8420
2050.00,2.8410
2049.00,2.8411
2048.00,2.8415
2047.00,2.8408
2046.00,2.8387
2045.00,2.8365
2044.00,2.8351
2043.00,2.8343
2042.00,2.8330
2041.00,2.8307
2040.00,2.8274
2039.00,2.8238
2038.00,2.8200
2037.00,2.8161
2036.00,2.8121
2035.00,2.8087
2034.00,2.8066
2033.00,2.8059
2032.00,2.8053
2031.00,2.8038
2030.00,2.8014
2029.00,2.7986
2028.00,2.7950
2027.00,2.7900
2026.00,2.7842
2025.00,2.7793
2024.00,2.7757
2023.00,2.7720
2022.00,2.7680
2021.00,2.7649
2020.00,2.7634
2019.00,2.7622
2018.00,2.7599
2017.00,2.7562
2016.00,2.7515
2015.00,2.7461
2014.00,2.7400
2013.00,2.7340
2012.00,2.7285
2011.00,2.7234
2010.00,2.7184
2009.00,2.7136
2008.00,2.7090
2007.00,2.7037
2006.00,2.6972
2005.00,2.6901
2004.00,2.6835
2003.00,2.6775
2002.00,2.6721
2001.00,2.6672
2000.00,2.6628
1999.00,2.6582
1998.00,2.6528
1997.00,2.6467
1996.00,2.6402
1995.00,2.6331
1994.00,2.6259
1993.00,2.6188
1992.00,2.6114
1991.00,2.6032
1990.00,2.5943
1989.00,2.5855
1988.00,2.5768
1987.00,2.5677
1986.00,2.5580
1985.00,2.5484
1984.00,2.5395
1983.00,2.5306
1982.00,2.5214
1981.00,2.5121
1980.00,2.5034
1979.00,2.4946
1978.00,2.4852
1977.00,2.4752
1976.00,2.4648
1975.00,2.4545
1974.00,2.4444
1973.00,2.4348
1972.00,2.4253
1971.00,2.4154
1970.00,2.4047
1969.00,2.3936
1968.00,2.3820
1967.00,2.3693
1966.00,2.3551
1965.00,2.3398
1964.00,2.3243
1963.00,2.3089
1962.00,2.2938
1961.00,2.2789
1960.00,2.2642
1959.00,2.2491
1958.00,2.2335
1957.00,2.2177
1956.00,2.2019
1955.00,2.1853
1954.00,2.1676
1953.00,2.1493
1952.00,2.1310
1951.00,2.1130
1950.00,2.0951
1949.00,2.0773
1948.00,2.0596
1947.00,2.0417
1946.00,2.0238
1945.00,2.0061
1944.00,1.9884
1943.00,1.9697
1942.00,1.9491
1941.00,1.9262
1940.00,1.9021
1939.00,1.8780
1938.00,1.8546
1937.00,1.8321
1936.00,1.8102
1935.00,1.7886
1934.00,1.7672
1933.00,1.7462
1932.00,1.7255
1931.00,1.7051
1930.00,1.6851
1929.00,1.6658
1928.00,1.6474
1927.00,1.6300
1926.00,1.6138
1925.00,1.5990
1924.00,1.5850
1923.00,1.5712
1922.00,1.5569
1921.00,1.5429
1920.00,1.5299
1919.00,1.5183
1918.00,1.5076
1917.00,1.4968
1916.00,1.4856
1915.00,1.4751
1914.00,1.4664
1913.00,1.4604
1912.00,1.4568
1911.00,1.4547
1910.00,1.4536
1909.00,1.4531
1908.00,1.4533
1907.00,1.4541
1906.00,1.4563
1905.00,1.4604
1904.00,1.4668
1903.00,1.4750
1902.00,1.4847
1901.00,1.4960
1900.00,1.5089
1899.00,1.5234
1898.00,1.5399
1897.00,1.5581
1896.00,1.5777
1895.00,1.5981
1894.00,1.6191
1893.00,1.6409
1892.00,1.6645
1891.00,1.6899
1890.00,1.7165
1889.00,1.7429
1888.00,1.7680
1887.00,1.7920
1886.00,1.8164
1885.00,1.8423
1884.00,1.8696
1883.00,1.8970
1882.00,1.9240
1881.00,1.9506
1880.00,1.9769
1879.00,2.0028
1878.00,2.0280
1877.00,2.0527
1876.00,2.0770
1875.00,2.1007
1874.00,2.1239
1873.00,2.1468
1872.00,2.1696
1871.00,2.1926
1870.00,2.2158
1869.00,2.2381
1868.00,2.2579
1867.00,2.2743
1866.00,2.2885
1865.00,2.3024
1864.00,2.3175
1863.00,2.3339
1862.00,2.3511
1861.00,2.3690
1860.00,2.3873
1859.00,2.4054
1858.00,2.4228
1857.00,2.4395
1856.00,2.4557
1855.00,2.4718
1854.00,2.4880
1853.00,2.5045
1852.00,2.5211
1851.00,2.5373
1850.00,2.5536
1849.00,2.5703
1848.00,2.5867
1847.00,2.6018
1846.00,2.6161
1845.00,2.6316
1844.00,2.6482
1843.00,2.6629
1842.00,2.6736
1841.00,2.6816
1840.00,2.6901
1839.00,2.7012
1838.00,2.7140
1837.00,2.7262
1836.00,2.7365
1835.00,2.7461
1834.00,2.7567
1833.00,2.7691
1832.00,2.7833
1831.00,2.7980
1830.00,2.8115
1829.00,2.8224
1828.00,2.8308
1827.00,2.8385
1826.00,2.8471
1825.00,2.8565
1824.00,2.8649
1823.00,2.8715
1822.00,2.8770
1821.00,2.8831
1820.00,2.8911
1819.00,2.9011
1818.00,2.9115
1817.00,2.9201
1816.00,2.9262
1815.00,2.9320
1814.00,2.9397
1813.00,2.9494
1812.00,2.9589
1811.00,2.9666
1810.00,2.9727
1809.00,2.9776
1808.00,2.9813
1807.00,2.9842
1806.00,2.9874
1805.00,2.9921
1804.00,2.9988
1803.00,3.0063
1802.00,3.0134
1801.00,3.0191
1800.00,3.0234
1799.00,3.0273
1798.00,3.0319
1797.00,3.0368
1796.00,3.0416
1795.00,3.0469
1794.00,3.0553
1793.00,3.0676
1792.00,3.0795
1791.00,3.0855
1790.00,3.0846
1789.00,3.0809
1788.00,3.0792
1787.00,3.0824
1786.00,3.0899
1785.00,3.0989
1784.00,3.1059
1783.00,3.1100
1782.00,3.1124
1781.00,3.1147
1780.00,3.1164
1779.00,3.1168
1778.00,3.1174
1777.00,3.1209
1776.00,3.1267
1775.00,3.1314
1774.00,3.1339
1773.00,3.1371
1772.00,3.1429
1771.00,3.1487
1770.00,3.1505
1769.00,3.1478
1768.00,3.1438
1767.00,3.1424
1766.00,3.1445
1765.00,3.1488
1764.00,3.1541
1763.00,3.1595
1762.00,3.1634
1761.00,3.1634
1760.00,3.1598
1759.00,3.1554
1758.00,3.1524
1757.00,3.1509
1756.00,3.1497
1755.00,3.1482
1754.00,3.1468
1753.00,3.1468
1752.00,3.1479
1751.00,3.1476
1750.00,3.1433
1749.00,3.1343
1748.00,3.1217
1747.00,3.1071
1746.00,3.0920
1745.00,3.0779
1744.00,3.0644
1743.00,3.0496
1742.00,3.0321
1741.00,3.0109
1740.00,2.9858
1739.00,2.9569
1738.00,2.9235
1737.00,2.8862
1736.00,2.8490
1735.00,2.8205
1734.00,2.8076
1733.00,2.8134
1732.00,2.8400
1731.00,2.8888
1730.00,2.9612
1729.00,3.0589
1728.00,3.1807
1727.00,3.3218
1726.00,3.4810
1725.00,3.6610
1724.00,3.8607
1723.00,4.0681
1722.00,4.2517
1721.00,4.3596
1720.00,4.3785
1719.00,4.3766
1718.00,4.4165
1717.00,4.5033
1716.00,4.5705
1715.00,4.5663
1714.00,4.5332
1713.00,4.5323
1712.00,4.5838
1711.00,4.7627
1710.00,5.1149
1709.00,5.0332
1708.00,4.8617
1707.00,4.8934
1706.00,5.1982
1705.00,5.1238
1704.00,4.5319
1703.00,4.2263
1702.00,4.0130
1701.00,3.8100
1700.00,3.6099
1699.00,3.4288
1698.00,3.2659
1697.00,3.1048
1696.00,2.9495
1695.00,2.8211
1694.00,2.7320
1693.00,2.6790
1692.00,2.6534
1691.00,2.6520
1690.00,2.6729
1689.00,2.7075
1688.00,2.7437
1687.00,2.7752
1686.00,2.8093
1685.00,2.8577
1684.00,2.9186
1683.00,2.9748
1682.00,3.0128
1681.00,3.0350
1680.00,3.0502
1679.00,3.0652
1678.00,3.0813
1677.00,3.0976
1676.00,3.1128
1675.00,3.1229
1674.00,3.1259
1673.00,3.1257
1672.00,3.1274
1671.00,3.1346
1670.00,3.1466
1669.00,3.1585
1668.00,3.1652
1667.00,3.1668
1666.00,3.1662
1665.00,3.1662
1664.00,3.1686
1663.00,3.1739
1662.00,3.1805
1661.00,3.1859
1660.00,3.1881
1659.00,3.1875
1658.00,3.1877
1657.00,3.1904
1656.00,3.1929
1655.00,3.1938
1654.00,3.1964
1653.00,3.1999
1652.00,3.2023
1651.00,3.2093
1650.00,3.2209
1649.00,3.2293
1648.00,3.2332
1647.00,3.2349
1646.00,3.2340
1645.00,3.2298
1644.00,3.2258
1643.00,3.2244
1642.00,3.2247
1641.00,3.2281
1640.00,3.2344
1639.00,3.2396
1638.00,3.2391
1637.00,3.2330
1636.00,3.2250
1635.00,3.2182
1634.00,3.2143
1633.00,3.2132
1632.00,3.2119
1631.00,3.2091
1630.00,3.2069
1629.00,3.2070
1628.00,3.2088
1627.00,3.2102
1626.00,3.2101
1625.00,3.2085
1624.00,3.2047
1623.00,3.1986
1622.00,3.1922
1621.00,3.1873
1620.00,3.1808
1619.00,3.1684
1618.00,3.1527
1617.00,3.1418
1616.00,3.1393
1615.00,3.1410
1614.00,3.1409
1613.00,3.1377
1612.00,3.1332
1611.00,3.1282
1610.00,3.1225
1609.00,3.1173
1608.00,3.1146
1607.00,3.1132
1606.00,3.1106
1605.00,3.1074
1604.00,3.1054
1603.00,3.1034
1602.00,3.0974
1601.00,3.0860
1600.00,3.0722
1599.00,3.0608
1598.00,3.0546
1597.00,3.0533
1596.00,3.0545
1595.00,3.0547
1594.00,3.0518
1593.00,3.0463
1592.00,3.0383
1591.00,3.0273
1590.00,3.0134
1589.00,2.9993
1588.00,2.9886
1587.00,2.9828
1586.00,2.9804
1585.00,2.9789
1584.00,2.9764
1583.00,2.9715
1582.00,2.9650
1581.00,2.9593
1580.00,2.9538
1579.00,2.9440
1578.00,2.9277
1577.00,2.9097
1576.00,2.8971
1575.00,2.8917
1574.00,2.8886
1573.00,2.8826
1572.00,2.8730
1571.00,2.8638
1570.00,2.8567
1569.00,2.8486
1568.00,2.8367
1567.00,2.8213
1566.00,2.8050
1565.00,2.7895
1564.00,2.7744
1563.00,2.7576
1562.00,2.7390
1561.00,2.7265
1560.00,2.7252
1559.00,2.7244
1558.00,2.7120
1557.00,2.6893
1556.00,2.6651
1555.00,2.6420
1554.00,2.6202
1553.00,2.6015
1552.00,2.5852
1551.00,2.5683
1550.00,2.5481
1549.00,2.5248
1548.00,2.5015
1547.00,2.4814
1546.00,2.4655
1545.00,2.4511
1544.00,2.4341
1543.00,2.4114
1542.00,2.3834
1541.00,2.3511
1540.00,2.3166
1539.00,2.2821
1538.00,2.2517
1537.00,2.2281
1536.00,2.2083
1535.00,2.1890
1534.00,2.1697
1533.00,2.1486
1532.00,2.1243
1531.00,2.0997
1530.00,2.0796
1529.00,2.0664
1528.00,2.0592
1527.00,2.0555
1526.00,2.0539
1525.00,2.0537
1524.00,2.0543
1523.00,2.0560
1522.00,2.0599
1521.00,2.0647
1520.00,2.0661
1519.00,2.0619
1518.00,2.0512
1517.00,2.0337
1516.00,2.0101
1515.00,1.9827
1514.00,1.9559
1513.00,1.9345
1512.00,1.9212
1511.00,1.9156
1510.00,1.9140
1509.00,1.9136
1508.00,1.9132
1507.00,1.9135
1506.00,1.9131
1505.00,1.9134
1504.00,1.9209
1503.00,1.9358
1502.00,1.9546
1501.00,1.9775
1500.00,2.0041
1499.00,2.0316
1498.00,2.0578
1497.00,2.0836
1496.00,2.1114
1495.00,2.1424
1494.00,2.1762
1493.00,2.2128
1492.00,2.2540
1491.00,2.3001
1490.00,2.3460
1489.00,2.3843
1488.00,2.4113
1487.00,2.4291
1486.00,2.4426
1485.00,2.4563
1484.00,2.4733
1483.00,2.4948
1482.00,2.5204
1481.00,2.5479
1480.00,2.5745
1479.00,2.6001
1478.00,2.6269
1477.00,2.6562
1476.00,2.6865
1475.00,2.7167
1474.00,2.7486
1473.00,2.7833
1472.00,2.8163
1471.00,2.8428
1470.00,2.8648
1469.00,2.8874
1468.00,2.9132
1467.00,2.9415
1466.00,2.9705
1465.00,2.9975
1464.00,3.0192
1463.00,3.0345
1462.00,3.0470
1461.00,3.0599
1460.00,3.0759
1459.00,3.0989
1458.00,3.1344
1457.00,3.1808
1456.00,3.2266
1455.00,3.2648
1454.00,3.3002
1453.00,3.3386
1452.00,3.3771
1451.00,3.4012
1450.00,3.3920
1449.00,3.3398
1448.00,3.2533
1447.00,3.1540
1446.00,3.0624
1445.00,2.9898
1444.00,2.9397
1443.00,2.9119
1442.00,2.9050
1441.00,2.9163
1440.00,2.9411
1439.00,2.9761
1438.00,3.0197
1437.00,3.0681
1436.00,3.1138
1435.00,3.1531
1434.00,3.1863
1433.00,3.2128
1432.00,3.2298
1431.00,3.2375
1430.00,3.2391
1429.00,3.2371
1428.00,3.2312
1427.00,3.2228
1426.00,3.2162
1425.00,3.2141
1424.00,3.2128
1423.00,3.2054
1422.00,3.1896
1421.00,3.1694
1420.00,3.1485
1419.00,3.1261
1418.00,3.1000
1417.00,3.0716
1416.00,3.0450
1415.00,3.0249
1414.00,3.0139
1413.00,3.0113
1412.00,3.0144
1411.00,3.0221
1410.00,3.0344
1409.00,3.0497
1408.00,3.0660
1407.00,3.0831
1406.00,3.1012
1405.00,3.1183
1404.00,3.1308
1403.00,3.1386
1402.00,3.1471
1401.00,3.1618
1400.00,3.1828
1399.00,3.2051
1398.00,3.2239
1397.00,3.2375
1396.00,3.2468
1395.00,3.2539
1394.00,3.2600
1393.00,3.2648
1392.00,3.2674
1391.00,3.2689
1390.00,3.2738
1389.00,3.2874
1388.00,3.3092
1387.00,3.3321
1386.00,3.3468
1385.00,3.3504
1384.00,3.3476
1383.00,3.3468
1382.00,3.3526
1381.00,3.3625
1380.00,3.3714
1379.00,3.3769
1378.00,3.3818
1377.00,3.3889
1376.00,3.3974
1375.00,3.4049
1374.00,3.4110
1373.00,3.4166
1372.00,3.4215
1371.00,3.4253
1370.00,3.4297
1369.00,3.4377
1368.00,3.4502
1367.00,3.4670
1366.00,3.4884
1365.00,3.5124
1364.00,3.5322
1363.00,3.5407
1362.00,3.5380
1361.00,3.5320
1360.00,3.5299
1359.00,3.5324
1358.00,3.5347
1357.00,3.5335
1356.00,3.5306
1355.00,3.5299
1354.00,3.5338
1353.00,3.5424
1352.00,3.5558
1351.00,3.5728
1350.00,3.5899
1349.00,3.6030
1348.00,3.6108
1347.00,3.6157
1346.00,3.6204
1345.00,3.6236
1344.00,3.6227
1343.00,3.6190
1342.00,3.6163
1341.00,3.6150
1340.00,3.6125
1339.00,3.6074
1338.00,3.6005
1337.00,3.5920
1336.00,3.5821
1335.00,3.5749
1334.00,3.5758
1333.00,3.5836
1332.00,3.5900
1331.00,3.5911
1330.00,3.5898
1329.00,3.5848
1328.00,3.5711
1327.00,3.5507
1326.00,3.5360
1325.00,3.5391
1324.00,3.5609
1323.00,3.5889
1322.00,3.6051
1321.00,3.6020
1320.00,3.5876
1319.00,3.5761
1318.00,3.5777
1317.00,3.5939
1316.00,3.6200
1315.00,3.6540
1314.00,3.6953
1313.00,3.7355
1312.00,3.7640
1311.00,3.7764
1310.00,3.7708
1309.00,3.7487
1308.00,3.7111
1307.00,3.6635
1306.00,3.6214
1305.00,3.5961
1304.00,3.5857
1303.00,3.5786
1302.00,3.5671
1301.00,3.5549
1300.00,3.5510
1299.00,3.5594
1298.00,3.5759
1297.00,3.5919
1296.00,3.6004
1295.00,3.6005
1294.00,3.5974
1293.00,3.5970
1292.00,3.6006
1291.00,3.6051
1290.00,3.6062
1289.00,3.5996
1288.00,3.5856
1287.00,3.5698
1286.00,3.5574
1285.00,3.5506
1284.00,3.5504
1283.00,3.5567
1282.00,3.5687
1281.00,3.5857
1280.00,3.6081
1279.00,3.6344
1278.00,3.6575
1277.00,3.6676
1276.00,3.6613
1275.00,3.6444
1274.00,3.6229
1273.00,3.5987
1272.00,3.5769
1271.00,3.5676
1270.00,3.5776
1269.00,3.6007
1268.00,3.6179
1267.00,3.6149
1266.00,3.5987
1265.00,3.5882
1264.00,3.5943
1263.00,3.6133
1262.00,3.6335
1261.00,3.6430
1260.00,3.6375
1259.00,3.6225
1258.00,3.6062
1257.00,3.5899
1256.00,3.5726
1255.00,3.5593
1254.00,3.5565
1253.00,3.5626
1252.00,3.5683
1251.00,3.5684
1250.00,3.5662
1249.00,3.5664
1248.00,3.5680
1247.00,3.5655
1246.00,3.5558
1245.00,3.5430
1244.00,3.5364
1243.00,3.5401
1242.00,3.5462
1241.00,3.5415
1240.00,3.5260
1239.00,3.5143
1238.00,3.5146
1237.00,3.5162
1236.00,3.5027
1235.00,3.4766
1234.00,3.4576
1233.00,3.4571
1232.00,3.4694
1231.00,3.4849
1230.00,3.5007
1229.00,3.5173
1228.00,3.5345
1227.00,3.5543
1226.00,3.5822
1225.00,3.6216
1224.00,3.6711
1223.00,3.7279
1222.00,3.7883
1221.00,3.8407
1220.00,3.8655
1219.00,3.8545
1218.00,3.8233
1217.00,3.7898
1216.00,3.7576
1215.00,3.7263
1214.00,3.7023
1213.00,3.6905
1212.00,3.6860
1211.00,3.6785
1210.00,3.6648
1209.00,3.6470
1208.00,3.6231
1207.00,3.5922
1206.00,3.5642
1205.00,3.5528
1204.00,3.5589
1203.00,3.5660
1202.00,3.5571
1201.00,3.5335
1200.00,3.5107
1199.00,3.5017
1198.00,3.5078
1197.00,3.5193
1196.00,3.5239
1195.00,3.5171
1194.00,3.5021
1193.00,3.4819
1192.00,3.4592
1191.00,3.4381
1190.00,3.4220
1189.00,3.4100
1188.00,3.3970
1187.00,3.3808
1186.00,3.3634
1185.00,3.3470
1184.00,3.3321
1183.00,3.3196
1182.00,3.3097
1181.00,3.3001
1180.00,3.2872
1179.00,3.2701
1178.00,3.2517
1177.00,3.2357
1176.00,3.2230
1175.00,3.2118
1174.00,3.1993
1173.00,3.1831
1172.00,3.1641
1171.00,3.1461
1170.00,3.1326
1169.00,3.1224
1168.00,3.1089
1167.00,3.0866
1166.00,3.0572
1165.00,3.0272
1164.00,3.0009
1163.00,2.9768
1162.00,2.9513
1161.00,2.9231
1160.00,2.8958
1159.00,2.8738
1158.00,2.8582
1157.00,2.8445
1156.00,2.8268
1155.00,2.8021
1154.00,2.7713
1153.00,2.7371
1152.00,2.7023
1151.00,2.6694
1150.00,2.6399
1149.00,2.6141
1148.00,2.5917
1147.00,2.5725
1146.00,2.5564
1145.00,2.5428
1144.00,2.5313
1143.00,2.5216
1142.00,2.5148
1141.00,2.5123
1140.00,2.5158
1139.00,2.5266
1138.00,2.5450
1137.00,2.5705
1136.00,2.6029
1135.00,2.6428
1134.00,2.6906
1133.00,2.7453
1132.00,2.8047
1131.00,2.8675
1130.00,2.9341
1129.00,3.0055
1128.00,3.0834
1127.00,3.1697
1126.00,3.2647
1125.00,3.3633
1124.00,3.4570
1123.00,3.5424
1122.00,3.6215
1121.00,3.6884
1120.00,3.7226
1119.00,3.7174
1118.00,3.6931
1117.00,3.6604
1116.00,3.6091
1115.00,3.5298
1114.00,3.4253
1113.00,3.3099
1112.00,3.2020
1111.00,3.1137
1110.00,3.0460
1109.00,2.9921
1108.00,2.9435
1107.00,2.8989
1106.00,2.8639
1105.00,2.8424
1104.00,2.8328
1103.00,2.8303
1102.00,2.8339
1101.00,2.8463
1100.00,2.8697
1099.00,2.9022
1098.00,2.9386
1097.00,2.9738
1096.00,3.0071
1095.00,3.0433
1094.00,3.0862
1093.00,3.1313
1092.00,3.1672
1091.00,3.1885
1090.00,3.2031
1089.00,3.2217
1088.00,3.2471
1087.00,3.2770
1086.00,3.3114
1085.00,3.3530
1084.00,3.3987
1083.00,3.4388
1082.00,3.4656
1081.00,3.4765
1080.00,3.4745
1079.00,3.4721
1078.00,3.4832
1077.00,3.5119
1076.00,3.5440
1075.00,3.5593
1074.00,3.5622
1073.00,3.5724
1072.00,3.5895
1071.00,3.5916
1070.00,3.5735
1069.00,3.5591
1068.00,3.5687
1067.00,3.6041
1066.00,3.6523
1065.00,3.6925
1064.00,3.7090
1063.00,3.7016
1062.00,3.6845
1061.00,3.6740
1060.00,3.6792
1059.00,3.7030
1058.00,3.7423
1057.00,3.7781
1056.00,3.7811
1055.00,3.7538
1054.00,3.7225
1053.00,3.7045
1052.00,3.7095
1051.00,3.7274
1050.00,3.7302
1049.00,3.7084
1048.00,3.6827
1047.00,3.6708
1046.00,3.6651
1045.00,3.6475
1044.00,3.6205
1043.00,3.6096
1042.00,3.6350
1041.00,3.6955
1040.00,3.7673
1039.00,3.8161
1038.00,3.8260
1037.00,3.8153
1036.00,3.8168
1035.00,3.8537
1034.00,3.9249
1033.00,3.9965
1032.00,4.0178
1031.00,3.9873
1030.00,3.9464
1029.00,3.9073
1028.00,3.8613
1027.00,3.8211
1026.00,3.8171
1025.00,3.8599
1024.00,3.9236
1023.00,3.9586
1022.00,3.9576
1021.00,3.9683
1020.00,4.0123
1019.00,4.0570
1018.00,4.0569
1017.00,4.0244
1016.00,4.0078
1015.00,4.0085
1014.00,3.9829
1013.00,3.9236
1012.00,3.8651
1011.00,3.8342
1010.00,3.8431
1009.00,3.8841
1008.00,3.9391
1007.00,3.9949
1006.00,4.0301
1005.00,4.0482
1004.00,4.0791
1003.00,4.1164
1002.00,4.1311
1001.00,4.1166
1000.00,4.0944
999.00,4.0909
998.00,4.1178
997.00,4.1609
996.00,4.1764
995.00,4.1446
994.00,4.0992
993.00,4.0633
992.00,4.0394
991.00,4.0429
990.00,4.1038
989.00,4.2396
988.00,4.3928
987.00,4.3782
986.00,4.2608
985.00,4.2292
984.00,4.3445
983.00,4.5523
982.00,4.5897
981.00,4.5516
980.00,4.4933
979.00,4.3896
978.00,4.3306
977.00,4.3265
976.00,4.3366
975.00,4.3153
974.00,4.2475
973.00,4.1507
972.00,4.0554
971.00,3.9793
970.00,3.9440
969.00,3.9773
968.00,4.0942
967.00,4.2712
966.00,4.4743
965.00,4.7320
964.00,4.7511
963.00,4.5323
962.00,4.3454
961.00,4.1960
960.00,4.1025
959.00,4.0464
958.00,4.0096
957.00,4.0016
956.00,4.0471
955.00,4.1626
954.00,4.3608
953.00,4.5511
952.00,4.4839
951.00,4.4422
950.00,4.5235
949.00,4.5469
948.00,4.4833
947.00,4.3771
946.00,4.2535
945.00,4.1952
944.00,4.2063
943.00,4.2314
942.00,4.2528
941.00,4.3067
940.00,4.3572
939.00,4.3658
938.00,4.4595
937.00,4.4777
936.00,4.2721
935.00,4.2089
934.00,4.3275
933.00,4.5977
932.00,4.6890
931.00,4.4806
930.00,4.3801
929.00,4.3920
928.00,4.4928
927.00,4.6658
926.00,4.7348
925.00,4.6776
924.00,4.7027
923.00,4.5457
922.00,4.3424
921.00,4.2410
920.00,4.1800
919.00,4.1684
918.00,4.2996
917.00,4.7288
916.00,4.7845
915.00,4.3907
914.00,4.2394
913.00,4.2062
912.00,4.2322
911.00,4.2183
910.00,4.1581
909.00,4.1489
908.00,4.2105
907.00,4.3207
906.00,4.4491
905.00,4.5879
904.00,4.6554
903.00,4.5163
902.00,4.3980
901.00,4.3562
900.00,4.3051
899.00,4.1921
898.00,4.0847
897.00,4.0548
896.00,4.1619
895.00,4.4792
894.00,4.4292
893.00,4.1264
892.00,4.0256
891.00,4.0471
890.00,4.1495
889.00,4.3637
888.00,4.8639
887.00,4.6325
886.00,4.3393
885.00,4.2757
884.00,4.3113
883.00,4.3470
882.00,4.4043
881.00,4.6485
880.00,4.4474
879.00,4.1972
878.00,4.1461
877.00,4.1650
876.00,4.1617
875.00,4.1446
874.00,4.1615
873.00,4.1608
872.00,4.1603
871.00,4.3007
870.00,4.3387
869.00,4.0787
868.00,3.9374
867.00,3.8935
866.00,3.9098
865.00,3.9907
864.00,4.1532
863.00,4.4301
862.00,4.7247
861.00,4.7017
860.00,4.6387
859.00,4.6619
858.00,4.7409
857.00,4.9465
856.00,5.2399
855.00,5.2713
854.00,5.5767
853.00,4.8238
852.00,4.4530
851.00,4.3160
850.00,4.3473
849.00,4.5230
848.00,4.4723
847.00,4.2569
846.00,4.1571
845.00,4.1218
844.00,4.0999
843.00,4.1034
842.00,4.1336
841.00,4.1572
840.00,4.1631
839.00,4.1953
838.00,4.2826
837.00,4.4771
836.00,4.7445
835.00,4.4723
834.00,4.2587
833.00,4.2227
832.00,4.2811
831.00,4.3161
830.00,4.2657
829.00,4.2010
828.00,4.1323
827.00,4.0414
826.00,3.9563
825.00,3.9116
824.00,3.9385
823.00,4.0600
822.00,4.3392
821.00,4.8377
820.00,4.5571
819.00,4.3720
818.00,4.3373
817.00,4.3223
816.00,4.3011
815.00,4.2717
814.00,4.2474
813.00,4.2301
812.00,4.2051
811.00,4.1440
810.00,4.0664
809.00,4.0082
808.00,3.9892
807.00,4.0142
806.00,4.0511
805.00,4.0488
804.00,4.0226
803.00,4.0033
802.00,3.9780
801.00,3.9527
800.00,3.9833
799.00,4.1095
798.00,4.3040
797.00,4.4581
796.00,4.4788
795.00,4.3296
794.00,4.1651
793.00,4.0888
792.00,4.0737
791.00,4.0700
790.00,4.0905
789.00,4.1513
788.00,4.2038
787.00,4.2139
786.00,4.2547
785.00,4.4215
784.00,4.8261
783.00,4.8438
782.00,4.3354
781.00,4.1168
780.00,4.0508
779.00,4.0814
778.00,4.1792
777.00,4.3022
776.00,4.4045
775.00,4.4506
774.00,4.4176
773.00,4.3975
772.00,4.4271
771.00,4.4445
770.00,4.4743
769.00,4.7184
768.00,4.8882
767.00,4.4952
766.00,4.2634
765.00,4.0882
764.00,4.0345
763.00,4.0898
762.00,4.1803
761.00,4.1782
760.00,4.0389
759.00,3.9630
758.00,4.0020
757.00,4.1062
756.00,4.2056
755.00,4.3173
754.00,4.4835
753.00,4.5583
752.00,4.4278
751.00,4.2672
750.00,4.1699
749.00,4.1108
748.00,4.0224
747.00,3.9163
746.00,3.8803
745.00,3.9411
744.00,4.0541
743.00,4.1307
742.00,4.1470
741.00,4.1789
740.00,4.2600
739.00,4.3377
738.00,4.3361
737.00,4.2593
736.00,4.2121
735.00,4.2774
734.00,4.5413
733.00,4.9690
732.00,4.5671
731.00,4.3021
730.00,4.1622
729.00,4.0641
728.00,3.9962
727.00,4.0021
726.00,4.1503
725.00,4.4321
724.00,4.3260
723.00,4.2079
722.00,4.2653
721.00,4.3868
720.00,4.2183
719.00,3.9777
718.00,3.8855
717.00,3.9098
716.00,3.9764
715.00,3.9920
714.00,3.9560
713.00,3.9492
712.00,4.0281
711.00,4.2198
710.00,4.4059
709.00,4.3403
708.00,4.2054
707.00,4.0683
706.00,3.9907
705.00,3.9882
704.00,4.0422
703.00,4.1188
702.00,4.1462
701.00,4.1381
700.00,4.1626
699.00,4.2022
698.00,4.3279
697.00,4.5587
696.00,4.5802
695.00,4.8548
694.00,4.9349
693.00,4.4642
692.00,4.2303
691.00,4.0270
690.00,3.9022
689.00,3.8516
688.00,3.8464
687.00,3.8674
686.00,3.9024
685.00,3.9422
684.00,3.9709
683.00,3.9763
682.00,3.9717
681.00,3.9849
680.00,4.0157
679.00,4.0477
678.00,4.0843
677.00,4.1229
676.00,4.1561
675.00,4.1201
674.00,3.9764
673.00,3.8888
672.00,3.9069
671.00,3.9825
670.00,4.0230
669.00,3.9745
668.00,3.9021
667.00,3.8896
666.00,3.9413
665.00,3.9885
664.00,3.9512
663.00,3.8608
662.00,3.8182
661.00,3.8711
660.00,4.0259
659.00,4.2637
658.00,4.4353
657.00,4.3061
656.00,4.1465
655.00,4.0898
654.00,4.1231
653.00,4.1662
652.00,4.1037
651.00,3.9642
650.00,3.8501
649.00,3.7890
648.00,3.7610
647.00,3.7399
646.00,3.7203
645.00,3.7201
644.00,3.7530
643.00,3.8224
642.00,3.9376
641.00,4.1297
640.00,4.3620
639.00,4.2350
638.00,3.9687
637.00,3.8073
636.00,3.7498
635.00,3.7766
634.00,3.8626
633.00,3.9594
632.00,3.9819
631.00,3.9402
630.00,3.9180
629.00,3.9168
628.00,3.9216
627.00,3.9872
626.00,4.1310
625.00,4.1420
624.00,3.9912
623.00,3.8806
622.00,3.8404
621.00,3.8497
620.00,3.8687
619.00,3.8899
618.00,3.9608
617.00,4.1026
616.00,4.2202
615.00,4.1873
614.00,4.0675
613.00,4.0632
612.00,4.2464
611.00,4.4998
610.00,4.3035
609.00,3.9980
608.00,3.8166
607.00,3.7346
606.00,3.7319
605.00,3.8008
604.00,3.9156
603.00,4.0533
602.00,4.2031
601.00,4.3231
600.00,4.5502
599.00,4.7404
598.00,4.3889
597.00,4.1762
596.00,4.0932
595.00,4.0423
594.00,3.9316
593.00,3.8278
592.00,3.7910
591.00,3.8275
590.00,3.9034
589.00,3.9464
588.00,4.0280
587.00,4.3500
586.00,4.7214
585.00,4.2012
584.00,3.8832
583.00,3.7346
582.00,3.7344
581.00,3.8339
580.00,3.9397
579.00,3.9272
578.00,3.8825
577.00,3.9126
576.00,3.9542
575.00,3.9474
574.00,3.9884
573.00,4.0191
572.00,3.8765
571.00,3.7452
570.00,3.6815
569.00,3.6611
568.00,3.6812
567.00,3.7545
566.00,3.9129
565.00,4.1433
564.00,4.0514
563.00,3.7980
562.00,3.6714
561.00,3.6602
560.00,3.7142
559.00,3.7677
558.00,3.7763
557.00,3.7422
556.00,3.7155
555.00,3.7468
554.00,3.9031
553.00,4.2538
552.00,4.1846
551.00,4.0978
550.00,4.3431
549.00,4.9360
548.00,4.3927
547.00,4.0753
546.00,3.8485
545.00,3.7028
544.00,3.6264
543.00,3.6169
542.00,3.6897
541.00,3.8564
540.00,4.0529
539.00,4.0276
538.00,3.9815
537.00,4.0063
536.00,3.8810
535.00,3.7982
534.00,3.8899
533.00,4.0167
532.00,3.9281
531.00,3.9019
530.00,4.0509
529.00,4.5037
528.00,4.3251
527.00,3.8969
526.00,3.7208
525.00,3.6903
524.00,3.7145
523.00,3.7140
522.00,3.7093
521.00,3.7559
520.00,3.8471
519.00,3.8101
518.00,3.6831
517.00,3.6509
516.00,3.7567
515.00,4.0713
514.00,4.4889
513.00,3.9370
512.00,3.7477
511.00,3.7209
510.00,3.8390
509.00,4.0163
508.00,3.8943
507.00,3.7902
506.00,3.7766
505.00,3.7643
504.00,3.7192
503.00,3.6880
502.00,3.7748
501.00,4.0799
500.00,4.1808
499.00,3.8484
498.00,3.7683
497.00,3.7992
496.00,3.5124
495.00,3.2964
494.00,3.2206
493.00,3.2321
492.00,3.2856
491.00,3.3660
490.00,3.5305
489.00,3.9329
488.00,3.8168
487.00,3.4998
486.00,3.4843
485.00,3.6742
484.00,3.9421
483.00,3.8149
482.00,3.6410
481.00,3.5894
480.00,3.6592
479.00,3.6387
478.00,3.4445
477.00,3.3480
476.00,3.3839
475.00,3.4392
474.00,3.3161
473.00,3.2086
472.00,3.2055
471.00,3.2956
470.00,3.3985
469.00,3.3803
468.00,3.3865
467.00,3.6483
466.00,3.9928
465.00,3.3132
464.00,3.1780
463.00,3.1779
462.00,3.2002
461.00,3.1910
460.00,3.1924
459.00,3.2691
458.00,3.4135
457.00,3.5531
456.00,3.6147
455.00,3.6482
454.00,3.6720
453.00,3.6722
452.00,3.9256
451.00,4.1770
450.00,3.8756
449.00,4.1713
448.00,3.6677
447.00,3.5948
446.00,3.9822
445.00,4.0240
444.00,3.6595
443.00,3.7870
442.00,4.4987
441.00,3.8222
440.00,3.6417
439.00,3.6554
438.00,3.7177
437.00,3.6160
436.00,3.4711
435.00,3.2806
434.00,3.1277
433.00,3.0798
432.00,3.1289
431.00,3.2515
430.00,3.4784
429.00,3.8801
428.00,3.5197
427.00,3.3148
426.00,3.2312
425.00,3.1505
424.00,3.0618
423.00,2.9984
422.00,2.9893
421.00,3.0455
420.00,3.1618
419.00,3.3075
418.00,3.4024
417.00,3.4320
416.00,3.4629
415.00,3.3838
414.00,3.1962
413.00,3.0568
412.00,2.9689
411.00,2.9334
410.00,2.9781
409.00,3.1386
408.00,3.4571
407.00,3.7628
406.00,3.4922
405.00,3.0599
404.00,2.8488
403.00,2.7852
402.00,2.8208
401.00,2.9060
400.00,2.9226
