Created as New Dataset,Sample 182 By Administrator Date Friday, November 26 2021
cm-1,A
7000.00,1.0666
6999.00,1.0638
6998.00,1.0611
6997.00,1.0586
6996.00,1.0559
6995.00,1.0531
6994.00,1.0501
6993.00,1.0470
6992.00,1.0440
6991.00,1.0411
6990.00,1.0382
6989.00,1.0353
6988.00,1.0322
6987.00,1.0289
6986.00,1.0255
6985.00,1.0222
6984.00,1.0191
6983.00,1.0162
6982.00,1.0132
6981.00,1.0102
6980.00,1.0072
6979.00,1.0043
6978.00,1.0015
6977.00,0.9986
6976.00,0.9956
6975.00,0.9925
6974.00,0.9894
6973.00,0.9863
6972.00,0.9830
6971.00,0.9796
6970.00,0.9763
6969.00,0.9730
6968.00,0.9699
6967.00,0.9668
6966.00,0.9639
6965.00,0.9611
6964.00,0.9583
6963.00,0.9553
6962.00,0.9520
6961.00,0.9487
6960.00,0.9455
6959.00,0.9424
6958.00,0.9393
6957.00,0.9363
6956.00,0.9332
6955.00,0.9300
6954.00,0.9270
6953.00,0.9240
6952.00,0.9209
6951.00,0.9178
6950.00,0.9147
6949.00,0.9116
6948.00,0.9084
6947.00,0.9054
6946.00,0.9024
6945.00,0.8997
6944.00,0.8970
6943.00,0.8941
6942.00,0.8913
6941.00,0.8884
6940.00,0.8856
6939.00,0.8827
6938.00,0.8798
6937.00,0.8769
6936.00,0.8740
6935.00,0.8712
6934.00,0.8685
6933.00,0.8660
6932.00,0.8635
6931.00,0.8609
6930.00,0.8584
6929.00,0.8561
6928.00,0.8538
6927.00,0.8513
6926.00,0.8486
6925.00,0.8460
6924.00,0.8435
6923.00,0.8408
6922.00,0.8382
6921.00,0.8357
6920.00,0.8336
6919.00,0.8315
6918.00,0.8293
6917.00,0.8270
6916.00,0.8248
6915.00,0.8226
6914.00,0.8205
6913.00,0.8185
6912.00,0.8165
6911.00,0.8145
6910.00,0.8125
6909.00,0.8105
6908.00,0.8086
6907.00,0.8066
6906.00,0.8048
6905.00,0.8030
6904.00,0.8014
6903.00,0.7998
6902.00,0.7984
6901.00,0.7970
6900.00,0.7957
6899.00,0.7942
6898.00,0.7927
6897.00,0.7913
6896.00,0.7901
6895.00,0.7889
6894.00,0.7878
6893.00,0.7867
6892.00,0.7856
6891.00,0.7843
6890.00,0.7829
6889.00,0.7815
6888.00,0.7802
6887.00,0.7791
6886.00,0.7782
6885.00,0.7775
6884.00,0.7769
6883.00,0.7764
6882.00,0.7759
6881.00,0.7753
6880.00,0.7746
6879.00,0.7738
6878.00,0.7731
6877.00,0.7725
6876.00,0.7723
6875.00,0.7722
6874.00,0.7721
6873.00,0.7720
6872.00,0.7719
6871.00,0.7715
6870.00,0.7711
6869.00,0.7708
6868.00,0.7707
6867.00,0.7707
6866.00,0.7708
6865.00,0.7713
6864.00,0.7719
6863.00,0.7726
6862.00,0.7731
6861.00,0.7735
6860.00,0.7738
6859.00,0.7743
6858.00,0.7749
6857.00,0.7756
6856.00,0.7763
6855.00,0.7770
6854.00,0.7778
6853.00,0.7788
6852.00,0.7798
6851.00,0.7808
6850.00,0.7818
6849.00,0.7828
6848.00,0.7838
6847.00,0.7849
6846.00,0.7859
6845.00,0.7869
6844.00,0.7880
6843.00,0.7893
6842.00,0.7908
6841.00,0.7925
6840.00,0.7942
6839.00,0.7959
6838.00,0.7977
6837.00,0.7996
6836.00,0.8015
6835.00,0.8032
6834.00,0.8047
6833.00,0.8063
6832.00,0.8081
6831.00,0.8099
6830.00,0.8118
6829.00,0.8136
6828.00,0.8157
6827.00,0.8178
6826.00,0.8200
6825.00,0.8222
6824.00,0.8244
6823.00,0.8265
6822.00,0.8287
6821.00,0.8310
6820.00,0.8333
6819.00,0.8355
6818.00,0.8376
6817.00,0.8399
6816.00,0.8422
6815.00,0.8447
6814.00,0.8473
6813.00,0.8500
6812.00,0.8527
6811.00,0.8552
6810.00,0.8575
6809.00,0.8600
6808.00,0.8624
6807.00,0.8648
6806.00,0.8672
6805.00,0.8698
6804.00,0.8727
6803.00,0.8758
6802.00,0.8787
6801.00,0.8816
6800.00,0.8843
6799.00,0.8869
6798.00,0.8894
6797.00,0.8921
6796.00,0.8948
6795.00,0.8976
6794.00,0.9004
6793.00,0.9032
6792.00,0.9062
6791.00,0.9092
6790.00,0.9121
6789.00,0.9149
6788.00,0.9177
6787.00,0.9204
6786.00,0.9232
6785.00,0.9261
6784.00,0.9291
6783.00,0.9322
6782.00,0.9354
6781.00,0.9388
6780.00,0.9421
6779.00,0.9455
6778.00,0.9487
6777.00,0.9521
6776.00,0.9553
6775.00,0.9583
6774.00,0.9611
6773.00,0.9640
6772.00,0.9669
6771.00,0.9698
6770.00,0.9726
6769.00,0.9755
6768.00,0.9785
6767.00,0.9818
6766.00,0.9853
6765.00,0.9890
6764.00,0.9926
6763.00,0.9962
6762.00,0.9997
6761.00,1.0031
6760.00,1.0065
6759.00,1.0098
6758.00,1.0129
6757.00,1.0160
6756.00,1.0190
6755.00,1.0220
6754.00,1.0249
6753.00,1.0280
6752.00,1.0313
6751.00,1.0346
6750.00,1.0379
6749.00,1.0411
6748.00,1.0444
6747.00,1.0476
6746.00,1.0507
6745.00,1.0536
6744.00,1.0565
6743.00,1.0594
6742.00,1.0624
6741.00,1.0656
6740.00,1.0689
6739.00,1.0721
6738.00,1.0752
6737.00,1.0783
6736.00,1.0814
6735.00,1.0843
6734.00,1.0870
6733.00,1.0897
6732.00,1.0925
6731.00,1.0955
6730.00,1.0985
6729.00,1.1015
6728.00,1.1045
6727.00,1.1075
6726.00,1.1103
6725.00,1.1129
6724.00,1.1154
6723.00,1.1180
6722.00,1.1205
6721.00,1.1229
6720.00,1.1252
6719.00,1.1276
6718.00,1.1300
6717.00,1.1323
6716.00,1.1346
6715.00,1.1369
6714.00,1.1393
6713.00,1.1417
6712.00,1.1441
6711.00,1.1463
6710.00,1.1484
6709.00,1.1506
6708.00,1.1528
6707.00,1.1549
6706.00,1.1569
6705.00,1.1591
6704.00,1.1612
6703.00,1.1632
6702.00,1.1650
6701.00,1.1666
6700.00,1.1681
6699.00,1.1694
6698.00,1.1707
6697.00,1.1721
6696.00,1.1738
6695.00,1.1756
6694.00,1.1775
6693.00,1.1793
6692.00,1.1810
6691.00,1.1823
6690.00,1.1831
6689.00,1.1836
6688.00,1.1840
6687.00,1.1847
6686.00,1.1858
6685.00,1.1871
6684.00,1.1885
6683.00,1.1898
6682.00,1.1911
6681.00,1.1921
6680.00,1.1928
6679.00,1.1929
6678.00,1.1931
6677.00,1.1936
6676.00,1.1946
6675.00,1.1955
6674.00,1.1958
6673.00,1.1958
6672.00,1.1958
6671.00,1.1959
6670.00,1.1959
6669.00,1.1958
6668.00,1.1959
6667.00,1.1962
6666.00,1.1966
6665.00,1.1970
6664.00,1.1971
6663.00,1.1970
6662.00,1.1969
6661.00,1.1967
6660.00,1.1965
6659.00,1.1961
6658.00,1.1956
6657.00,1.1950
6656.00,1.1943
6655.00,1.1936
6654.00,1.1927
6653.00,1.1916
6652.00,1.1904
6651.00,1.1892
6650.00,1.1880
6649.00,1.1869
6648.00,1.1858
6647.00,1.1849
6646.00,1.1840
6645.00,1.1831
6644.00,1.1820
6643.00,1.1805
6642.00,1.1787
6641.00,1.1770
6640.00,1.1756
6639.00,1.1744
6638.00,1.1733
6637.00,1.1721
6636.00,1.1709
6635.00,1.1696
6634.00,1.1681
6633.00,1.1665
6632.00,1.1647
6631.00,1.1630
6630.00,1.1615
6629.00,1.1602
6628.00,1.1587
6627.00,1.1568
6626.00,1.1546
6625.00,1.1524
6624.00,1.1501
6623.00,1.1479
6622.00,1.1456
6621.00,1.1433
6620.00,1.1411
6619.00,1.1392
6618.00,1.1372
6617.00,1.1349
6616.00,1.1324
6615.00,1.1298
6614.00,1.1272
6613.00,1.1245
6612.00,1.1216
6611.00,1.1186
6610.00,1.1155
6609.00,1.1124
6608.00,1.1094
6607.00,1.1065
6606.00,1.1036
6605.00,1.1009
6604.00,1.0982
6603.00,1.0955
6602.00,1.0926
6601.00,1.0897
6600.00,1.0866
6599.00,1.0835
6598.00,1.0805
6597.00,1.0776
6596.00,1.0749
6595.00,1.0722
6594.00,1.0694
6593.00,1.0663
6592.00,1.0630
6591.00,1.0596
6590.00,1.0561
6589.00,1.0526
6588.00,1.0493
6587.00,1.0459
6586.00,1.0423
6585.00,1.0388
6584.00,1.0355
6583.00,1.0322
6582.00,1.0290
6581.00,1.0259
6580.00,1.0229
6579.00,1.0200
6578.00,1.0171
6577.00,1.0139
6576.00,1.0103
6575.00,1.0067
6574.00,1.0032
6573.00,0.9999
6572.00,0.9967
6571.00,0.9935
6570.00,0.9903
6569.00,0.9871
6568.00,0.9841
6567.00,0.9811
6566.00,0.9780
6565.00,0.9747
6564.00,0.9714
6563.00,0.9680
6562.00,0.9647
6561.00,0.9613
6560.00,0.9580
6559.00,0.9547
6558.00,0.9516
6557.00,0.9486
6556.00,0.9456
6555.00,0.9426
6554.00,0.9396
6553.00,0.9366
6552.00,0.9335
6551.00,0.9304
6550.00,0.9273
6549.00,0.9243
6548.00,0.9212
6547.00,0.9180
6546.00,0.9147
6545.00,0.9116
6544.00,0.9086
6543.00,0.9059
6542.00,0.9032
6541.00,0.9005
6540.00,0.8977
6539.00,0.8948
6538.00,0.8919
6537.00,0.8890
6536.00,0.8861
6535.00,0.8832
6534.00,0.8806
6533.00,0.8782
6532.00,0.8758
6531.00,0.8733
6530.00,0.8708
6529.00,0.8683
6528.00,0.8658
6527.00,0.8632
6526.00,0.8607
6525.00,0.8583
6524.00,0.8559
6523.00,0.8535
6522.00,0.8511
6521.00,0.8488
6520.00,0.8465
6519.00,0.8442
6518.00,0.8420
6517.00,0.8399
6516.00,0.8378
6515.00,0.8358
6514.00,0.8338
6513.00,0.8319
6512.00,0.8301
6511.00,0.8284
6510.00,0.8268
6509.00,0.8251
6508.00,0.8234
6507.00,0.8215
6506.00,0.8197
6505.00,0.8180
6504.00,0.8164
6503.00,0.8149
6502.00,0.8136
6501.00,0.8125
6500.00,0.8114
6499.00,0.8102
6498.00,0.8089
6497.00,0.8076
6496.00,0.8064
6495.00,0.8054
6494.00,0.8045
6493.00,0.8038
6492.00,0.8032
6491.00,0.8025
6490.00,0.8018
6489.00,0.8011
6488.00,0.8005
6487.00,0.8000
6486.00,0.7995
6485.00,0.7990
6484.00,0.7986
6483.00,0.7982
6482.00,0.7980
6481.00,0.7978
6480.00,0.7978
6479.00,0.7978
6478.00,0.7979
6477.00,0.7980
6476.00,0.7982
6475.00,0.7984
6474.00,0.7988
6473.00,0.7994
6472.00,0.8001
6471.00,0.8007
6470.00,0.8014
6469.00,0.8021
6468.00,0.8028
6467.00,0.8034
6466.00,0.8040
6465.00,0.8049
6464.00,0.8059
6463.00,0.8070
6462.00,0.8081
6461.00,0.8093
6460.00,0.8104
6459.00,0.8115
6458.00,0.8128
6457.00,0.8142
6456.00,0.8157
6455.00,0.8173
6454.00,0.8189
6453.00,0.8207
6452.00,0.8225
6451.00,0.8244
6450.00,0.8262
6449.00,0.8281
6448.00,0.8300
6447.00,0.8320
6446.00,0.8340
6445.00,0.8361
6444.00,0.8382
6443.00,0.8404
6442.00,0.8426
6441.00,0.8450
6440.00,0.8474
6439.00,0.8500
6438.00,0.8525
6437.00,0.8551
6436.00,0.8575
6435.00,0.8599
6434.00,0.8623
6433.00,0.8648
6432.00,0.8673
6431.00,0.8698
6430.00,0.8725
6429.00,0.8753
6428.00,0.8782
6427.00,0.8811
6426.00,0.8839
6425.00,0.8867
6424.00,0.8896
6423.00,0.8925
6422.00,0.8955
6421.00,0.8985
6420.00,0.9015
6419.00,0.9046
6418.00,0.9078
6417.00,0.9111
6416.00,0.9143
6415.00,0.9174
6414.00,0.9206
6413.00,0.9238
6412.00,0.9269
6411.00,0.9300
6410.00,0.9330
6409.00,0.9363
6408.00,0.9397
6407.00,0.9431
6406.00,0.9465
6405.00,0.9499
6404.00,0.9533
6403.00,0.9567
6402.00,0.9600
6401.00,0.9634
6400.00,0.9670
6399.00,0.9705
6398.00,0.9740
6397.00,0.9774
6396.00,0.9808
6395.00,0.9841
6394.00,0.9874
6393.00,0.9907
6392.00,0.9940
6391.00,0.9974
6390.00,1.0009
6389.00,1.0044
6388.00,1.0078
6387.00,1.0113
6386.00,1.0148
6385.00,1.0183
6384.00,1.0217
6383.00,1.0250
6382.00,1.0284
6381.00,1.0317
6380.00,1.0351
6379.00,1.0386
6378.00,1.0422
6377.00,1.0460
6376.00,1.0497
6375.00,1.0531
6374.00,1.0564
6373.00,1.0596
6372.00,1.0627
6371.00,1.0657
6370.00,1.0687
6369.00,1.0718
6368.00,1.0751
6367.00,1.0784
6366.00,1.0817
6365.00,1.0853
6364.00,1.0888
6363.00,1.0923
6362.00,1.0955
6361.00,1.0988
6360.00,1.1021
6359.00,1.1052
6358.00,1.1081
6357.00,1.1110
6356.00,1.1140
6355.00,1.1172
6354.00,1.1204
6353.00,1.1234
6352.00,1.1261
6351.00,1.1288
6350.00,1.1314
6349.00,1.1341
6348.00,1.1367
6347.00,1.1393
6346.00,1.1422
6345.00,1.1454
6344.00,1.1486
6343.00,1.1514
6342.00,1.1540
6341.00,1.1564
6340.00,1.1590
6339.00,1.1616
6338.00,1.1640
6337.00,1.1664
6336.00,1.1688
6335.00,1.1714
6334.00,1.1738
6333.00,1.1759
6332.00,1.1777
6331.00,1.1793
6330.00,1.1809
6329.00,1.1826
6328.00,1.1844
6327.00,1.1863
6326.00,1.1881
6325.00,1.1900
6324.00,1.1920
6323.00,1.1940
6322.00,1.1960
6321.00,1.1978
6320.00,1.1993
6319.00,1.2007
6318.00,1.2019
6317.00,1.2031
6316.00,1.2043
6315.00,1.2056
6314.00,1.2070
6313.00,1.2086
6312.00,1.2099
6311.00,1.2109
6310.00,1.2116
6309.00,1.2123
6308.00,1.2129
6307.00,1.2136
6306.00,1.2145
6305.00,1.2155
6304.00,1.2165
6303.00,1.2174
6302.00,1.2181
6301.00,1.2186
6300.00,1.2191
6299.00,1.2195
6298.00,1.2197
6297.00,1.2198
6296.00,1.2198
6295.00,1.2198
6294.00,1.2200
6293.00,1.2204
6292.00,1.2205
6291.00,1.2202
6290.00,1.2198
6289.00,1.2196
6288.00,1.2195
6287.00,1.2194
6286.00,1.2191
6285.00,1.2187
6284.00,1.2181
6283.00,1.2175
6282.00,1.2167
6281.00,1.2158
6280.00,1.2152
6279.00,1.2149
6278.00,1.2146
6277.00,1.2141
6276.00,1.2133
6275.00,1.2122
6274.00,1.2110
6273.00,1.2099
6272.00,1.2088
6271.00,1.2078
6270.00,1.2067
6269.00,1.2055
6268.00,1.2042
6267.00,1.2026
6266.00,1.2011
6265.00,1.1995
6264.00,1.1978
6263.00,1.1961
6262.00,1.1943
6261.00,1.1926
6260.00,1.1907
6259.00,1.1887
6258.00,1.1866
6257.00,1.1847
6256.00,1.1829
6255.00,1.1808
6254.00,1.1785
6253.00,1.1763
6252.00,1.1741
6251.00,1.1718
6250.00,1.1694
6249.00,1.1668
6248.00,1.1643
6247.00,1.1620
6246.00,1.1597
6245.00,1.1574
6244.00,1.1550
6243.00,1.1524
6242.00,1.1496
6241.00,1.1469
6240.00,1.1441
6239.00,1.1412
6238.00,1.1381
6237.00,1.1352
6236.00,1.1325
6235.00,1.1298
6234.00,1.1270
6233.00,1.1239
6232.00,1.1209
6231.00,1.1178
6230.00,1.1147
6229.00,1.1114
6228.00,1.1082
6227.00,1.1049
6226.00,1.1017
6225.00,1.0983
6224.00,1.0948
6223.00,1.0914
6222.00,1.0882
6221.00,1.0849
6220.00,1.0815
6219.00,1.0780
6218.00,1.0745
6217.00,1.0710
6216.00,1.0673
6215.00,1.0637
6214.00,1.0601
6213.00,1.0566
6212.00,1.0532
6211.00,1.0494
6210.00,1.0454
6209.00,1.0415
6208.00,1.0377
6207.00,1.0340
6206.00,1.0305
6205.00,1.0272
6204.00,1.0239
6203.00,1.0204
6202.00,1.0168
6201.00,1.0130
6200.00,1.0093
6199.00,1.0055
6198.00,1.0017
6197.00,0.9979
6196.00,0.9942
6195.00,0.9905
6194.00,0.9868
6193.00,0.9831
6192.00,0.9796
6191.00,0.9761
6190.00,0.9728
6189.00,0.9694
6188.00,0.9660
6187.00,0.9625
6186.00,0.9589
6185.00,0.9554
6184.00,0.9518
6183.00,0.9482
6182.00,0.9447
6181.00,0.9413
6180.00,0.9380
6179.00,0.9346
6178.00,0.9313
6177.00,0.9281
6176.00,0.9249
6175.00,0.9215
6174.00,0.9181
6173.00,0.9147
6172.00,0.9115
6171.00,0.9083
6170.00,0.9052
6169.00,0.9021
6168.00,0.8992
6167.00,0.8963
6166.00,0.8934
6165.00,0.8905
6164.00,0.8875
6163.00,0.8846
6162.00,0.8816
6161.00,0.8787
6160.00,0.8758
6159.00,0.8730
6158.00,0.8701
6157.00,0.8672
6156.00,0.8645
6155.00,0.8617
6154.00,0.8590
6153.00,0.8563
6152.00,0.8538
6151.00,0.8514
6150.00,0.8490
6149.00,0.8467
6148.00,0.8444
6147.00,0.8421
6146.00,0.8398
6145.00,0.8374
6144.00,0.8350
6143.00,0.8325
6142.00,0.8301
6141.00,0.8277
6140.00,0.8255
6139.00,0.8232
6138.00,0.8211
6137.00,0.8190
6136.00,0.8170
6135.00,0.8150
6134.00,0.8131
6133.00,0.8113
6132.00,0.8096
6131.00,0.8079
6130.00,0.8062
6129.00,0.8045
6128.00,0.8028
6127.00,0.8010
6126.00,0.7992
6125.00,0.7975
6124.00,0.7959
6123.00,0.7943
6122.00,0.7928
6121.00,0.7914
6120.00,0.7900
6119.00,0.7886
6118.00,0.7873
6117.00,0.7860
6116.00,0.7848
6115.00,0.7836
6114.00,0.7826
6113.00,0.7817
6112.00,0.7810
6111.00,0.7802
6110.00,0.7794
6109.00,0.7786
6108.00,0.7780
6107.00,0.7773
6106.00,0.7766
6105.00,0.7760
6104.00,0.7754
6103.00,0.7749
6102.00,0.7746
6101.00,0.7745
6100.00,0.7745
6099.00,0.7746
6098.00,0.7747
6097.00,0.7749
6096.00,0.7751
6095.00,0.7752
6094.00,0.7755
6093.00,0.7760
6092.00,0.7765
6091.00,0.7771
6090.00,0.7777
6089.00,0.7784
6088.00,0.7791
6087.00,0.7799
6086.00,0.7809
6085.00,0.7819
6084.00,0.7830
6083.00,0.7841
6082.00,0.7853
6081.00,0.7866
6080.00,0.7881
6079.00,0.7896
6078.00,0.7912
6077.00,0.7929
6076.00,0.7946
6075.00,0.7963
6074.00,0.7980
6073.00,0.7998
6072.00,0.8018
6071.00,0.8037
6070.00,0.8058
6069.00,0.8080
6068.00,0.8103
6067.00,0.8127
6066.00,0.8149
6065.00,0.8172
6064.00,0.8196
6063.00,0.8220
6062.00,0.8245
6061.00,0.8272
6060.00,0.8299
6059.00,0.8326
6058.00,0.8353
6057.00,0.8381
6056.00,0.8409
6055.00,0.8438
6054.00,0.8467
6053.00,0.8497
6052.00,0.8528
6051.00,0.8559
6050.00,0.8588
6049.00,0.8618
6048.00,0.8649
6047.00,0.8681
6046.00,0.8714
6045.00,0.8748
6044.00,0.8783
6043.00,0.8818
6042.00,0.8854
6041.00,0.8889
6040.00,0.8923
6039.00,0.8957
6038.00,0.8990
6037.00,0.9024
6036.00,0.9059
6035.00,0.9095
6034.00,0.9132
6033.00,0.9170
6032.00,0.9208
6031.00,0.9246
6030.00,0.9283
6029.00,0.9321
6028.00,0.9359
6027.00,0.9397
6026.00,0.9435
6025.00,0.9473
6024.00,0.9511
6023.00,0.9549
6022.00,0.9587
6021.00,0.9626
6020.00,0.9665
6019.00,0.9704
6018.00,0.9741
6017.00,0.9779
6016.00,0.9818
6015.00,0.9856
6014.00,0.9896
6013.00,0.9938
6012.00,0.9979
6011.00,1.0021
6010.00,1.0063
6009.00,1.0103
6008.00,1.0143
6007.00,1.0182
6006.00,1.0222
6005.00,1.0264
6004.00,1.0305
6003.00,1.0346
6002.00,1.0385
6001.00,1.0425
6000.00,1.0464
5999.00,1.0503
5998.00,1.0541
5997.00,1.0581
5996.00,1.0621
5995.00,1.0662
5994.00,1.0704
5993.00,1.0746
5992.00,1.0787
5991.00,1.0827
5990.00,1.0867
5989.00,1.0905
5988.00,1.0942
5987.00,1.0979
5986.00,1.1015
5985.00,1.1052
5984.00,1.1088
5983.00,1.1125
5982.00,1.1161
5981.00,1.1199
5980.00,1.1237
5979.00,1.1276
5978.00,1.1314
5977.00,1.1351
5976.00,1.1388
5975.00,1.1424
5974.00,1.1459
5973.00,1.1495
5972.00,1.1529
5971.00,1.1564
5970.00,1.1598
5969.00,1.1634
5968.00,1.1670
5967.00,1.1706
5966.00,1.1741
5965.00,1.1774
5964.00,1.1805
5963.00,1.1834
5962.00,1.1861
5961.00,1.1888
5960.00,1.1918
5959.00,1.1951
5958.00,1.1985
5957.00,1.2018
5956.00,1.2048
5955.00,1.2076
5954.00,1.2104
5953.00,1.2130
5952.00,1.2157
5951.00,1.2185
5950.00,1.2213
5949.00,1.2241
5948.00,1.2267
5947.00,1.2291
5946.00,1.2313
5945.00,1.2333
5944.00,1.2353
5943.00,1.2374
5942.00,1.2398
5941.00,1.2423
5940.00,1.2448
5939.00,1.2470
5938.00,1.2490
5937.00,1.2510
5936.00,1.2528
5935.00,1.2547
5934.00,1.2567
5933.00,1.2590
5932.00,1.2614
5931.00,1.2637
5930.00,1.2655
5929.00,1.2671
5928.00,1.2685
5927.00,1.2696
5926.00,1.2706
5925.00,1.2716
5924.00,1.2726
5923.00,1.2738
5922.00,1.2750
5921.00,1.2762
5920.00,1.2774
5919.00,1.2784
5918.00,1.2793
5917.00,1.2801
5916.00,1.2808
5915.00,1.2815
5914.00,1.2820
5913.00,1.2825
5912.00,1.2831
5911.00,1.2837
5910.00,1.2842
5909.00,1.2845
5908.00,1.2848
5907.00,1.2853
5906.00,1.2857
5905.00,1.2860
5904.00,1.2861
5903.00,1.2862
5902.00,1.2861
5901.00,1.2859
5900.00,1.2857
5899.00,1.2855
5898.00,1.2854
5897.00,1.2852
5896.00,1.2849
5895.00,1.2846
5894.00,1.2843
5893.00,1.2839
5892.00,1.2835
5891.00,1.2829
5890.00,1.2823
5889.00,1.2817
5888.00,1.2810
5887.00,1.2801
5886.00,1.2790
5885.00,1.2779
5884.00,1.2769
5883.00,1.2758
5882.00,1.2744
5881.00,1.2728
5880.00,1.2714
5879.00,1.2701
5878.00,1.2687
5877.00,1.2672
5876.00,1.2657
5875.00,1.2643
5874.00,1.2630
5873.00,1.2615
5872.00,1.2598
5871.00,1.2581
5870.00,1.2562
5869.00,1.2543
5868.00,1.2522
5867.00,1.2501
5866.00,1.2481
5865.00,1.2460
5864.00,1.2439
5863.00,1.2417
5862.00,1.2394
5861.00,1.2371
5860.00,1.2347
5859.00,1.2322
5858.00,1.2297
5857.00,1.2272
5856.00,1.2245
5855.00,1.2218
5854.00,1.2190
5853.00,1.2163
5852.00,1.2135
5851.00,1.2107
5850.00,1.2077
5849.00,1.2045
5848.00,1.2014
5847.00,1.1982
5846.00,1.1951
5845.00,1.1920
5844.00,1.1890
5843.00,1.1859
5842.00,1.1827
5841.00,1.1793
5840.00,1.1757
5839.00,1.1722
5838.00,1.1688
5837.00,1.1654
5836.00,1.1620
5835.00,1.1586
5834.00,1.1551
5833.00,1.1514
5832.00,1.1476
5831.00,1.1437
5830.00,1.1398
5829.00,1.1362
5828.00,1.1326
5827.00,1.1289
5826.00,1.1252
5825.00,1.1214
5824.00,1.1176
5823.00,1.1137
5822.00,1.1096
5821.00,1.1054
5820.00,1.1012
5819.00,1.0972
5818.00,1.0932
5817.00,1.0893
5816.00,1.0855
5815.00,1.0816
5814.00,1.0777
5813.00,1.0737
5812.00,1.0696
5811.00,1.0653
5810.00,1.0610
5809.00,1.0568
5808.00,1.0526
5807.00,1.0484
5806.00,1.0443
5805.00,1.0403
5804.00,1.0364
5803.00,1.0324
5802.00,1.0283
5801.00,1.0241
5800.00,1.0197
5799.00,1.0154
5798.00,1.0112
5797.00,1.0071
5796.00,1.0030
5795.00,0.9990
5794.00,0.9951
5793.00,0.9912
5792.00,0.9872
5791.00,0.9832
5790.00,0.9791
5789.00,0.9750
5788.00,0.9708
5787.00,0.9666
5786.00,0.9625
5785.00,0.9585
5784.00,0.9547
5783.00,0.9509
5782.00,0.9471
5781.00,0.9432
5780.00,0.9393
5779.00,0.9354
5778.00,0.9315
5777.00,0.9276
5776.00,0.9236
5775.00,0.9198
5774.00,0.9160
5773.00,0.9124
5772.00,0.9089
5771.00,0.9055
5770.00,0.9020
5769.00,0.8987
5768.00,0.8953
5767.00,0.8920
5766.00,0.8887
5765.00,0.8854
5764.00,0.8822
5763.00,0.8791
5762.00,0.8759
5761.00,0.8727
5760.00,0.8695
5759.00,0.8664
5758.00,0.8634
5757.00,0.8605
5756.00,0.8577
5755.00,0.8549
5754.00,0.8523
5753.00,0.8497
5752.00,0.8471
5751.00,0.8444
5750.00,0.8418
5749.00,0.8392
5748.00,0.8366
5747.00,0.8342
5746.00,0.8319
5745.00,0.8297
5744.00,0.8275
5743.00,0.8253
5742.00,0.8231
5741.00,0.8211
5740.00,0.8191
5739.00,0.8172
5738.00,0.8154
5737.00,0.8136
5736.00,0.8120
5735.00,0.8103
5734.00,0.8086
5733.00,0.8071
5732.00,0.8056
5731.00,0.8040
5730.00,0.8025
5729.00,0.8011
5728.00,0.7998
5727.00,0.7986
5726.00,0.7975
5725.00,0.7966
5724.00,0.7958
5723.00,0.7950
5722.00,0.7942
5721.00,0.7935
5720.00,0.7928
5719.00,0.7920
5718.00,0.7914
5717.00,0.7909
5716.00,0.7906
5715.00,0.7904
5714.00,0.7903
5713.00,0.7903
5712.00,0.7903
5711.00,0.7904
5710.00,0.7906
5709.00,0.7909
5708.00,0.7912
5707.00,0.7917
5706.00,0.7922
5705.00,0.7927
5704.00,0.7934
5703.00,0.7941
5702.00,0.7950
5701.00,0.7959
5700.00,0.7969
5699.00,0.7980
5698.00,0.7991
5697.00,0.8004
5696.00,0.8017
5695.00,0.8032
5694.00,0.8047
5693.00,0.8064
5692.00,0.8082
5691.00,0.8101
5690.00,0.8121
5689.00,0.8142
5688.00,0.8163
5687.00,0.8184
5686.00,0.8206
5685.00,0.8228
5684.00,0.8250
5683.00,0.8273
5682.00,0.8296
5681.00,0.8321
5680.00,0.8347
5679.00,0.8374
5678.00,0.8402
5677.00,0.8430
5676.00,0.8459
5675.00,0.8487
5674.00,0.8516
5673.00,0.8545
5672.00,0.8576
5671.00,0.8608
5670.00,0.8640
5669.00,0.8674
5668.00,0.8707
5667.00,0.8741
5666.00,0.8776
5665.00,0.8812
5664.00,0.8847
5663.00,0.8882
5662.00,0.8917
5661.00,0.8954
5660.00,0.8991
5659.00,0.9029
5658.00,0.9068
5657.00,0.9107
5656.00,0.9146
5655.00,0.9183
5654.00,0.9221
5653.00,0.9259
5652.00,0.9298
5651.00,0.9338
5650.00,0.9379
5649.00,0.9419
5648.00,0.9460
5647.00,0.9501
5646.00,0.9541
5645.00,0.9582
5644.00,0.9625
5643.00,0.9669
5642.00,0.9713
5641.00,0.9756
5640.00,0.9799
5639.00,0.9842
5638.00,0.9884
5637.00,0.9927
5636.00,0.9969
5635.00,1.0011
5634.00,1.0053
5633.00,1.0097
5632.00,1.0141
5631.00,1.0185
5630.00,1.0229
5629.00,1.0273
5628.00,1.0317
5627.00,1.0360
5626.00,1.0402
5625.00,1.0445
5624.00,1.0489
5623.00,1.0534
5622.00,1.0579
5621.00,1.0624
5620.00,1.0669
5619.00,1.0713
5618.00,1.0756
5617.00,1.0799
5616.00,1.0843
5615.00,1.0887
5614.00,1.0931
5613.00,1.0974
5612.00,1.1017
5611.00,1.1059
5610.00,1.1100
5609.00,1.1143
5608.00,1.1186
5607.00,1.1230
5606.00,1.1275
5605.00,1.1318
5604.00,1.1360
5603.00,1.1402
5602.00,1.1442
5601.00,1.1483
5600.00,1.1525
5599.00,1.1567
5598.00,1.1608
5597.00,1.1650
5596.00,1.1692
5595.00,1.1733
5594.00,1.1774
5593.00,1.1814
5592.00,1.1854
5591.00,1.1892
5590.00,1.1929
5589.00,1.1965
5588.00,1.2001
5587.00,1.2039
5586.00,1.2077
5585.00,1.2114
5584.00,1.2150
5583.00,1.2186
5582.00,1.2221
5581.00,1.2256
5580.00,1.2291
5579.00,1.2326
5578.00,1.2360
5577.00,1.2392
5576.00,1.2421
5575.00,1.2448
5574.00,1.2475
5573.00,1.2503
5572.00,1.2532
5571.00,1.2563
5570.00,1.2593
5569.00,1.2623
5568.00,1.2653
5567.00,1.2683
5566.00,1.2713
5565.00,1.2743
5564.00,1.2771
5563.00,1.2797
5562.00,1.2821
5561.00,1.2843
5560.00,1.2864
5559.00,1.2885
5558.00,1.2908
5557.00,1.2931
5556.00,1.2953
5555.00,1.2974
5554.00,1.2994
5553.00,1.3013
5552.00,1.3032
5551.00,1.3052
5550.00,1.3071
5549.00,1.3089
5548.00,1.3106
5547.00,1.3121
5546.00,1.3136
5545.00,1.3152
5544.00,1.3168
5543.00,1.3183
5542.00,1.3197
5541.00,1.3210
5540.00,1.3221
5539.00,1.3230
5538.00,1.3238
5537.00,1.3247
5536.00,1.3256
5535.00,1.3267
5534.00,1.3277
5533.00,1.3288
5532.00,1.3298
5531.00,1.3307
5530.00,1.3313
5529.00,1.3317
5528.00,1.3321
5527.00,1.3324
5526.00,1.3329
5525.00,1.3334
5524.00,1.3339
5523.00,1.3341
5522.00,1.3340
5521.00,1.3338
5520.00,1.3338
5519.00,1.3339
5518.00,1.3341
5517.00,1.3344
5516.00,1.3346
5515.00,1.3344
5514.00,1.3339
5513.00,1.3334
5512.00,1.3329
5511.00,1.3327
5510.00,1.3324
5509.00,1.3320
5508.00,1.3314
5507.00,1.3306
5506.00,1.3297
5505.00,1.3287
5504.00,1.3278
5503.00,1.3269
5502.00,1.3260
5501.00,1.3249
5500.00,1.3237
5499.00,1.3224
5498.00,1.3211
5497.00,1.3199
5496.00,1.3188
5495.00,1.3175
5494.00,1.3160
5493.00,1.3144
5492.00,1.3126
5491.00,1.3107
5490.00,1.3085
5489.00,1.3064
5488.00,1.3042
5487.00,1.3022
5486.00,1.3002
5485.00,1.2983
5484.00,1.2965
5483.00,1.2948
5482.00,1.2930
5481.00,1.2911
5480.00,1.2890
5479.00,1.2865
5478.00,1.2839
5477.00,1.2813
5476.00,1.2787
5475.00,1.2762
5474.00,1.2737
5473.00,1.2712
5472.00,1.2685
5471.00,1.2657
5470.00,1.2626
5469.00,1.2595
5468.00,1.2564
5467.00,1.2534
5466.00,1.2504
5465.00,1.2474
5464.00,1.2443
5463.00,1.2410
5462.00,1.2376
5461.00,1.2342
5460.00,1.2307
5459.00,1.2271
5458.00,1.2236
5457.00,1.2202
5456.00,1.2167
5455.00,1.2131
5454.00,1.2095
5453.00,1.2058
5452.00,1.2019
5451.00,1.1978
5450.00,1.1936
5449.00,1.1894
5448.00,1.1853
5447.00,1.1811
5446.00,1.1768
5445.00,1.1726
5444.00,1.1684
5443.00,1.1642
5442.00,1.1600
5441.00,1.1559
5440.00,1.1516
5439.00,1.1472
5438.00,1.1427
5437.00,1.1382
5436.00,1.1337
5435.00,1.1292
5434.00,1.1245
5433.00,1.1198
5432.00,1.1151
5431.00,1.1105
5430.00,1.1059
5429.00,1.1013
5428.00,1.0967
5427.00,1.0921
5426.00,1.0875
5425.00,1.0830
5424.00,1.0783
5423.00,1.0736
5422.00,1.0688
5421.00,1.0640
5420.00,1.0590
5419.00,1.0541
5418.00,1.0492
5417.00,1.0444
5416.00,1.0396
5415.00,1.0348
5414.00,1.0301
5413.00,1.0254
5412.00,1.0207
5411.00,1.0159
5410.00,1.0111
5409.00,1.0063
5408.00,1.0015
5407.00,0.9966
5406.00,0.9918
5405.00,0.9872
5404.00,0.9826
5403.00,0.9780
5402.00,0.9733
5401.00,0.9687
5400.00,0.9640
5399.00,0.9595
5398.00,0.9549
5397.00,0.9505
5396.00,0.9460
5395.00,0.9415
5394.00,0.9370
5393.00,0.9325
5392.00,0.9281
5391.00,0.9238
5390.00,0.9194
5389.00,0.9151
5388.00,0.9108
5387.00,0.9065
5386.00,0.9023
5385.00,0.8982
5384.00,0.8942
5383.00,0.8902
5382.00,0.8862
5381.00,0.8823
5380.00,0.8784
5379.00,0.8745
5378.00,0.8707
5377.00,0.8670
5376.00,0.8632
5375.00,0.8595
5374.00,0.8558
5373.00,0.8522
5372.00,0.8487
5371.00,0.8452
5370.00,0.8419
5369.00,0.8386
5368.00,0.8354
5367.00,0.8323
5366.00,0.8293
5365.00,0.8264
5364.00,0.8235
5363.00,0.8208
5362.00,0.8181
5361.00,0.8155
5360.00,0.8129
5359.00,0.8104
5358.00,0.8079
5357.00,0.8056
5356.00,0.8033
5355.00,0.8010
5354.00,0.7989
5353.00,0.7968
5352.00,0.7948
5351.00,0.7929
5350.00,0.7910
5349.00,0.7892
5348.00,0.7876
5347.00,0.7860
5346.00,0.7845
5345.00,0.7832
5344.00,0.7818
5343.00,0.7805
5342.00,0.7793
5341.00,0.7783
5340.00,0.7773
5339.00,0.7764
5338.00,0.7754
5337.00,0.7746
5336.00,0.7739
5335.00,0.7733
5334.00,0.7729
5333.00,0.7725
5332.00,0.7722
5331.00,0.7720
5330.00,0.7720
5329.00,0.7722
5328.00,0.7726
5327.00,0.7730
5326.00,0.7734
5325.00,0.7738
5324.00,0.7742
5323.00,0.7747
5322.00,0.7754
5321.00,0.7763
5320.00,0.7774
5319.00,0.7787
5318.00,0.7800
5317.00,0.7814
5316.00,0.7828
5315.00,0.7843
5314.00,0.7860
5313.00,0.7878
5312.00,0.7898
5311.00,0.7918
5310.00,0.7939
5309.00,0.7960
5308.00,0.7982
5307.00,0.8005
5306.00,0.8029
5305.00,0.8054
5304.00,0.8080
5303.00,0.8107
5302.00,0.8136
5301.00,0.8165
5300.00,0.8195
5299.00,0.8225
5298.00,0.8256
5297.00,0.8288
5296.00,0.8320
5295.00,0.8353
5294.00,0.8386
5293.00,0.8420
5292.00,0.8455
5291.00,0.8491
5290.00,0.8528
5289.00,0.8565
5288.00,0.8603
5287.00,0.8640
5286.00,0.8677
5285.00,0.8716
5284.00,0.8756
5283.00,0.8797
5282.00,0.8838
5281.00,0.8880
5280.00,0.8923
5279.00,0.8965
5278.00,0.9008
5277.00,0.9051
5276.00,0.9095
5275.00,0.9138
5274.00,0.9182
5273.00,0.9227
5272.00,0.9272
5271.00,0.9318
5270.00,0.9364
5269.00,0.9411
5268.00,0.9458
5267.00,0.9505
5266.00,0.9551
5265.00,0.9598
5264.00,0.9647
5263.00,0.9696
5262.00,0.9745
5261.00,0.9794
5260.00,0.9842
5259.00,0.9890
5258.00,0.9938
5257.00,0.9985
5256.00,1.0033
5255.00,1.0082
5254.00,1.0132
5253.00,1.0184
5252.00,1.0235
5251.00,1.0286
5250.00,1.0336
5249.00,1.0386
5248.00,1.0436
5247.00,1.0488
5246.00,1.0540
5245.00,1.0592
5244.00,1.0644
5243.00,1.0695
5242.00,1.0745
5241.00,1.0794
5240.00,1.0844
5239.00,1.0894
5238.00,1.0944
5237.00,1.0994
5236.00,1.1044
5235.00,1.1094
5234.00,1.1146
5233.00,1.1196
5232.00,1.1247
5231.00,1.1297
5230.00,1.1347
5229.00,1.1397
5228.00,1.1447
5227.00,1.1496
5226.00,1.1544
5225.00,1.1594
5224.00,1.1644
5223.00,1.1694
5222.00,1.1744
5221.00,1.1793
5220.00,1.1840
5219.00,1.1886
5218.00,1.1932
5217.00,1.1980
5216.00,1.2027
5215.00,1.2074
5214.00,1.2120
5213.00,1.2164
5212.00,1.2207
5211.00,1.2248
5210.00,1.2291
5209.00,1.2334
5208.00,1.2378
5207.00,1.2423
5206.00,1.2469
5205.00,1.2516
5204.00,1.2562
5203.00,1.2605
5202.00,1.2645
5201.00,1.2684
5200.00,1.2721
5199.00,1.2758
5198.00,1.2796
5197.00,1.2835
5196.00,1.2874
5195.00,1.2911
5194.00,1.2946
5193.00,1.2979
5192.00,1.3013
5191.00,1.3047
5190.00,1.3083
5189.00,1.3119
5188.00,1.3154
5187.00,1.3188
5186.00,1.3219
5185.00,1.3249
5184.00,1.3279
5183.00,1.3308
5182.00,1.3338
5181.00,1.3366
5180.00,1.3394
5179.00,1.3421
5178.00,1.3448
5177.00,1.3475
5176.00,1.3501
5175.00,1.3526
5174.00,1.3550
5173.00,1.3573
5172.00,1.3596
5171.00,1.3619
5170.00,1.3642
5169.00,1.3665
5168.00,1.3686
5167.00,1.3705
5166.00,1.3724
5165.00,1.3742
5164.00,1.3760
5163.00,1.3777
5162.00,1.3794
5161.00,1.3811
5160.00,1.3829
5159.00,1.3845
5158.00,1.3861
5157.00,1.3875
5156.00,1.3887
5155.00,1.3896
5154.00,1.3906
5153.00,1.3916
5152.00,1.3926
5151.00,1.3937
5150.00,1.3947
5149.00,1.3957
5148.00,1.3966
5147.00,1.3974
5146.00,1.3983
5145.00,1.3992
5144.00,1.3999
5143.00,1.4004
5142.00,1.4008
5141.00,1.4013
5140.00,1.4019
5139.00,1.4025
5138.00,1.4029
5137.00,1.4030
5136.00,1.4030
5135.00,1.4028
5134.00,1.4026
5133.00,1.4024
5132.00,1.4022
5131.00,1.4020
5130.00,1.4017
5129.00,1.4015
5128.00,1.4013
5127.00,1.4012
5126.00,1.4010
5125.00,1.4005
5124.00,1.3999
5123.00,1.3991
5122.00,1.3983
5121.00,1.3977
5120.00,1.3971
5119.00,1.3963
5118.00,1.3954
5117.00,1.3943
5116.00,1.3931
5115.00,1.3917
5114.00,1.3903
5113.00,1.3890
5112.00,1.3877
5111.00,1.3863
5110.00,1.3848
5109.00,1.3833
5108.00,1.3816
5107.00,1.3799
5106.00,1.3781
5105.00,1.3763
5104.00,1.3745
5103.00,1.3726
5102.00,1.3708
5101.00,1.3688
5100.00,1.3668
5099.00,1.3646
5098.00,1.3624
5097.00,1.3602
5096.00,1.3579
5095.00,1.3555
5094.00,1.3530
5093.00,1.3505
5092.00,1.3478
5091.00,1.3451
5090.00,1.3423
5089.00,1.3395
5088.00,1.3367
5087.00,1.3338
5086.00,1.3308
5085.00,1.3278
5084.00,1.3248
5083.00,1.3216
5082.00,1.3183
5081.00,1.3148
5080.00,1.3112
5079.00,1.3076
5078.00,1.3039
5077.00,1.3004
5076.00,1.2970
5075.00,1.2936
5074.00,1.2900
5073.00,1.2863
5072.00,1.2824
5071.00,1.2783
5070.00,1.2742
5069.00,1.2700
5068.00,1.2658
5067.00,1.2617
5066.00,1.2574
5065.00,1.2531
5064.00,1.2487
5063.00,1.2443
5062.00,1.2399
5061.00,1.2354
5060.00,1.2308
5059.00,1.2261
5058.00,1.2213
5057.00,1.2164
5056.00,1.2116
5055.00,1.2068
5054.00,1.2019
5053.00,1.1970
5052.00,1.1919
5051.00,1.1867
5050.00,1.1815
5049.00,1.1763
5048.00,1.1712
5047.00,1.1661
5046.00,1.1610
5045.00,1.1559
5044.00,1.1507
5043.00,1.1454
5042.00,1.1402
5041.00,1.1349
5040.00,1.1295
5039.00,1.1241
5038.00,1.1186
5037.00,1.1132
5036.00,1.1077
5035.00,1.1022
5034.00,1.0967
5033.00,1.0912
5032.00,1.0857
5031.00,1.0802
5030.00,1.0748
5029.00,1.0694
5028.00,1.0640
5027.00,1.0586
5026.00,1.0531
5025.00,1.0477
5024.00,1.0422
5023.00,1.0368
5022.00,1.0315
5021.00,1.0261
5020.00,1.0208
5019.00,1.0155
5018.00,1.0102
5017.00,1.0049
5016.00,0.9996
5015.00,0.9944
5014.00,0.9892
5013.00,0.9841
5012.00,0.9789
5011.00,0.9738
5010.00,0.9687
5009.00,0.9636
5008.00,0.9586
5007.00,0.9537
5006.00,0.9488
5005.00,0.9439
5004.00,0.9391
5003.00,0.9342
5002.00,0.9295
5001.00,0.9248
5000.00,0.9202
4999.00,0.9157
4998.00,0.9112
4997.00,0.9067
4996.00,0.9023
4995.00,0.8979
4994.00,0.8936
4993.00,0.8894
4992.00,0.8852
4991.00,0.8810
4990.00,0.8769
4989.00,0.8729
4988.00,0.8690
4987.00,0.8651
4986.00,0.8614
4985.00,0.8577
4984.00,0.8541
4983.00,0.8504
4982.00,0.8469
4981.00,0.8435
4980.00,0.8402
4979.00,0.8369
4978.00,0.8337
4977.00,0.8306
4976.00,0.8276
4975.00,0.8247
4974.00,0.8218
4973.00,0.8191
4972.00,0.8164
4971.00,0.8138
4970.00,0.8113
4969.00,0.8090
4968.00,0.8068
4967.00,0.8047
4966.00,0.8027
4965.00,0.8007
4964.00,0.7988
4963.00,0.7969
4962.00,0.7952
4961.00,0.7936
4960.00,0.7922
4959.00,0.7909
4958.00,0.7898
4957.00,0.7887
4956.00,0.7877
4955.00,0.7868
4954.00,0.7860
4953.00,0.7853
4952.00,0.7848
4951.00,0.7845
4950.00,0.7843
4949.00,0.7842
4948.00,0.7843
4947.00,0.7844
4946.00,0.7847
4945.00,0.7851
4944.00,0.7856
4943.00,0.7862
4942.00,0.7870
4941.00,0.7880
4940.00,0.7891
4939.00,0.7903
4938.00,0.7916
4937.00,0.7931
4936.00,0.7946
4935.00,0.7962
4934.00,0.7979
4933.00,0.7999
4932.00,0.8020
4931.00,0.8042
4930.00,0.8065
4929.00,0.8089
4928.00,0.8114
4927.00,0.8139
4926.00,0.8166
4925.00,0.8194
4924.00,0.8224
4923.00,0.8254
4922.00,0.8285
4921.00,0.8317
4920.00,0.8350
4919.00,0.8385
4918.00,0.8421
4917.00,0.8457
4916.00,0.8494
4915.00,0.8532
4914.00,0.8570
4913.00,0.8610
4912.00,0.8652
4911.00,0.8694
4910.00,0.8736
4909.00,0.8780
4908.00,0.8823
4907.00,0.8867
4906.00,0.8911
4905.00,0.8957
4904.00,0.9004
4903.00,0.9051
4902.00,0.9100
4901.00,0.9148
4900.00,0.9197
4899.00,0.9245
4898.00,0.9293
4897.00,0.9343
4896.00,0.9394
4895.00,0.9446
4894.00,0.9500
4893.00,0.9553
4892.00,0.9605
4891.00,0.9657
4890.00,0.9710
4889.00,0.9763
4888.00,0.9817
4887.00,0.9871
4886.00,0.9925
4885.00,0.9980
4884.00,1.0036
4883.00,1.0092
4882.00,1.0149
4881.00,1.0205
4880.00,1.0262
4879.00,1.0319
4878.00,1.0376
4877.00,1.0434
4876.00,1.0491
4875.00,1.0548
4874.00,1.0605
4873.00,1.0662
4872.00,1.0720
4871.00,1.0777
4870.00,1.0835
4869.00,1.0893
4868.00,1.0952
4867.00,1.1010
4866.00,1.1068
4865.00,1.1126
4864.00,1.1184
4863.00,1.1241
4862.00,1.1300
4861.00,1.1358
4860.00,1.1417
4859.00,1.1476
4858.00,1.1534
4857.00,1.1594
4856.00,1.1653
4855.00,1.1712
4854.00,1.1770
4853.00,1.1828
4852.00,1.1885
4851.00,1.1942
4850.00,1.1998
4849.00,1.2055
4848.00,1.2111
4847.00,1.2166
4846.00,1.2222
4845.00,1.2277
4844.00,1.2332
4843.00,1.2386
4842.00,1.2439
4841.00,1.2491
4840.00,1.2544
4839.00,1.2596
4838.00,1.2649
4837.00,1.2702
4836.00,1.2754
4835.00,1.2806
4834.00,1.2857
4833.00,1.2907
4832.00,1.2957
4831.00,1.3008
4830.00,1.3058
4829.00,1.3108
4828.00,1.3158
4827.00,1.3206
4826.00,1.3253
4825.00,1.3298
4824.00,1.3341
4823.00,1.3384
4822.00,1.3426
4821.00,1.3467
4820.00,1.3509
4819.00,1.3550
4818.00,1.3591
4817.00,1.3631
4816.00,1.3672
4815.00,1.3713
4814.00,1.3753
4813.00,1.3792
4812.00,1.3831
4811.00,1.3868
4810.00,1.3903
4809.00,1.3938
4808.00,1.3973
4807.00,1.4007
4806.00,1.4042
4805.00,1.4077
4804.00,1.4112
4803.00,1.4146
4802.00,1.4177
4801.00,1.4206
4800.00,1.4234
4799.00,1.4262
4798.00,1.4290
4797.00,1.4318
4796.00,1.4345
4795.00,1.4372
4794.00,1.4397
4793.00,1.4421
4792.00,1.4445
4791.00,1.4468
4790.00,1.4490
4789.00,1.4512
4788.00,1.4534
4787.00,1.4555
4786.00,1.4577
4785.00,1.4597
4784.00,1.4617
4783.00,1.4635
4782.00,1.4652
4781.00,1.4669
4780.00,1.4686
4779.00,1.4702
4778.00,1.4717
4777.00,1.4731
4776.00,1.4745
4775.00,1.4759
4774.00,1.4774
4773.00,1.4789
4772.00,1.4803
4771.00,1.4814
4770.00,1.4823
4769.00,1.4830
4768.00,1.4836
4767.00,1.4844
4766.00,1.4853
4765.00,1.4861
4764.00,1.4869
4763.00,1.4874
4762.00,1.4878
4761.00,1.4882
4760.00,1.4885
4759.00,1.4887
4758.00,1.4889
4757.00,1.4891
4756.00,1.4893
4755.00,1.4895
4754.00,1.4897
4753.00,1.4897
4752.00,1.4895
4751.00,1.4893
4750.00,1.4892
4749.00,1.4892
4748.00,1.4893
4747.00,1.4891
4746.00,1.4886
4745.00,1.4880
4744.00,1.4874
4743.00,1.4869
4742.00,1.4864
4741.00,1.4857
4740.00,1.4848
4739.00,1.4837
4738.00,1.4825
4737.00,1.4816
4736.00,1.4808
4735.00,1.4799
4734.00,1.4789
4733.00,1.4776
4732.00,1.4761
4731.00,1.4743
4730.00,1.4725
4729.00,1.4708
4728.00,1.4693
4727.00,1.4678
4726.00,1.4663
4725.00,1.4646
4724.00,1.4628
4723.00,1.4609
4722.00,1.4590
4721.00,1.4571
4720.00,1.4550
4719.00,1.4528
4718.00,1.4504
4717.00,1.4479
4716.00,1.4454
4715.00,1.4430
4714.00,1.4406
4713.00,1.4382
4712.00,1.4357
4711.00,1.4330
4710.00,1.4300
4709.00,1.4268
4708.00,1.4236
4707.00,1.4204
4706.00,1.4173
4705.00,1.4141
4704.00,1.4109
4703.00,1.4076
4702.00,1.4042
4701.00,1.4007
4700.00,1.3971
4699.00,1.3934
4698.00,1.3897
4697.00,1.3859
4696.00,1.3822
4695.00,1.3784
4694.00,1.3747
4693.00,1.3709
4692.00,1.3670
4691.00,1.3630
4690.00,1.3588
4689.00,1.3545
4688.00,1.3502
4687.00,1.3460
4686.00,1.3417
4685.00,1.3374
4684.00,1.3329
4683.00,1.3283
4682.00,1.3235
4681.00,1.3186
4680.00,1.3137
4679.00,1.3089
4678.00,1.3042
4677.00,1.2993
4676.00,1.2943
4675.00,1.2892
4674.00,1.2840
4673.00,1.2788
4672.00,1.2735
4671.00,1.2681
4670.00,1.2628
4669.00,1.2573
4668.00,1.2518
4667.00,1.2462
4666.00,1.2405
4665.00,1.2347
4664.00,1.2289
4663.00,1.2230
4662.00,1.2171
4661.00,1.2109
4660.00,1.2047
4659.00,1.1984
4658.00,1.1921
4657.00,1.1859
4656.00,1.1797
4655.00,1.1734
4654.00,1.1671
4653.00,1.1608
4652.00,1.1545
4651.00,1.1480
4650.00,1.1416
4649.00,1.1351
4648.00,1.1286
4647.00,1.1220
4646.00,1.1155
4645.00,1.1091
4644.00,1.1025
4643.00,1.0960
4642.00,1.0895
4641.00,1.0830
4640.00,1.0766
4639.00,1.0702
4638.00,1.0638
4637.00,1.0574
4636.00,1.0510
4635.00,1.0447
4634.00,1.0385
4633.00,1.0324
4632.00,1.0263
4631.00,1.0203
4630.00,1.0142
4629.00,1.0081
4628.00,1.0020
4627.00,0.9960
4626.00,0.9901
4625.00,0.9844
4624.00,0.9787
4623.00,0.9730
4622.00,0.9673
4621.00,0.9616
4620.00,0.9560
4619.00,0.9505
4618.00,0.9450
4617.00,0.9397
4616.00,0.9344
4615.00,0.9291
4614.00,0.9240
4613.00,0.9190
4612.00,0.9140
4611.00,0.9091
4610.00,0.9041
4609.00,0.8993
4608.00,0.8945
4607.00,0.8898
4606.00,0.8851
4605.00,0.8805
4604.00,0.8760
4603.00,0.8716
4602.00,0.8674
4601.00,0.8633
4600.00,0.8592
4599.00,0.8551
4598.00,0.8510
4597.00,0.8471
4596.00,0.8432
4595.00,0.8394
4594.00,0.8358
4593.00,0.8323
4592.00,0.8289
4591.00,0.8256
4590.00,0.8224
4589.00,0.8194
4588.00,0.8164
4587.00,0.8135
4586.00,0.8107
4585.00,0.8081
4584.00,0.8056
4583.00,0.8032
4582.00,0.8011
4581.00,0.7991
4580.00,0.7972
4579.00,0.7954
4578.00,0.7937
4577.00,0.7922
4576.00,0.7908
4575.00,0.7896
4574.00,0.7886
4573.00,0.7878
4572.00,0.7871
4571.00,0.7865
4570.00,0.7861
4569.00,0.7858
4568.00,0.7856
4567.00,0.7857
4566.00,0.7859
4565.00,0.7863
4564.00,0.7869
4563.00,0.7877
4562.00,0.7887
4561.00,0.7898
4560.00,0.7911
4559.00,0.7925
4558.00,0.7941
4557.00,0.7958
4556.00,0.7977
4555.00,0.7998
4554.00,0.8020
4553.00,0.8043
4552.00,0.8068
4551.00,0.8094
4550.00,0.8122
4549.00,0.8151
4548.00,0.8182
4547.00,0.8214
4546.00,0.8248
4545.00,0.8283
4544.00,0.8320
4543.00,0.8357
4542.00,0.8396
4541.00,0.8435
4540.00,0.8476
4539.00,0.8518
4538.00,0.8561
4537.00,0.8605
4536.00,0.8649
4535.00,0.8695
4534.00,0.8742
4533.00,0.8791
4532.00,0.8840
4531.00,0.8890
4530.00,0.8940
4529.00,0.8991
4528.00,0.9043
4527.00,0.9095
4526.00,0.9149
4525.00,0.9203
4524.00,0.9258
4523.00,0.9315
4522.00,0.9372
4521.00,0.9429
4520.00,0.9487
4519.00,0.9545
4518.00,0.9604
4517.00,0.9664
4516.00,0.9725
4515.00,0.9786
4514.00,0.9849
4513.00,0.9911
4512.00,0.9975
4511.00,1.0038
4510.00,1.0101
4509.00,1.0164
4508.00,1.0228
4507.00,1.0292
4506.00,1.0356
4505.00,1.0422
4504.00,1.0487
4503.00,1.0554
4502.00,1.0621
4501.00,1.0689
4500.00,1.0756
4499.00,1.0823
4498.00,1.0890
4497.00,1.0957
4496.00,1.1025
4495.00,1.1094
4494.00,1.1163
4493.00,1.1231
4492.00,1.1299
4491.00,1.1367
4490.00,1.1436
4489.00,1.1505
4488.00,1.1575
4487.00,1.1644
4486.00,1.1712
4485.00,1.1780
4484.00,1.1849
4483.00,1.1918
4482.00,1.1987
4481.00,1.2057
4480.00,1.2125
4479.00,1.2193
4478.00,1.2261
4477.00,1.2329
4476.00,1.2397
4475.00,1.2464
4474.00,1.2531
4473.00,1.2598
4472.00,1.2663
4471.00,1.2729
4470.00,1.2795
4469.00,1.2860
4468.00,1.2925
4467.00,1.2989
4466.00,1.3054
4465.00,1.3118
4464.00,1.3181
4463.00,1.3244
4462.00,1.3306
4461.00,1.3368
4460.00,1.3429
4459.00,1.3489
4458.00,1.3548
4457.00,1.3607
4456.00,1.3664
4455.00,1.3721
4454.00,1.3778
4453.00,1.3835
4452.00,1.3892
4451.00,1.3948
4450.00,1.4002
4449.00,1.4055
4448.00,1.4107
4447.00,1.4159
4446.00,1.4210
4445.00,1.4260
4444.00,1.4308
4443.00,1.4356
4442.00,1.4404
4441.00,1.4452
4440.00,1.4500
4439.00,1.4549
4438.00,1.4596
4437.00,1.4642
4436.00,1.4687
4435.00,1.4729
4434.00,1.4770
4433.00,1.4811
4432.00,1.4851
4431.00,1.4891
4430.00,1.4931
4429.00,1.4970
4428.00,1.5008
4427.00,1.5044
4426.00,1.5080
4425.00,1.5115
4424.00,1.5149
4423.00,1.5183
4422.00,1.5219
4421.00,1.5256
4420.00,1.5290
4419.00,1.5321
4418.00,1.5349
4417.00,1.5375
4416.00,1.5402
4415.00,1.5432
4414.00,1.5462
4413.00,1.5490
4412.00,1.5516
4411.00,1.5540
4410.00,1.5563
4409.00,1.5586
4408.00,1.5610
4407.00,1.5634
4406.00,1.5657
4405.00,1.5678
4404.00,1.5699
4403.00,1.5720
4402.00,1.5741
4401.00,1.5761
4400.00,1.5782
4399.00,1.5801
4398.00,1.5819
4397.00,1.5835
4396.00,1.5850
4395.00,1.5862
4394.00,1.5874
4393.00,1.5886
4392.00,1.5900
4391.00,1.5914
4390.00,1.5927
4389.00,1.5939
4388.00,1.5950
4387.00,1.5960
4386.00,1.5969
4385.00,1.5979
4384.00,1.5989
4383.00,1.5997
4382.00,1.6004
4381.00,1.6008
4380.00,1.6012
4379.00,1.6016
4378.00,1.6021
4377.00,1.6027
4376.00,1.6034
4375.00,1.6039
4374.00,1.6042
4373.00,1.6043
4372.00,1.6043
4371.00,1.6041
4370.00,1.6038
4369.00,1.6035
4368.00,1.6032
4367.00,1.6031
4366.00,1.6030
4365.00,1.6029
4364.00,1.6025
4363.00,1.6019
4362.00,1.6012
4361.00,1.6007
4360.00,1.6002
4359.00,1.5996
4358.00,1.5989
4357.00,1.5982
4356.00,1.5973
4355.00,1.5962
4354.00,1.5949
4353.00,1.5936
4352.00,1.5922
4351.00,1.5909
4350.00,1.5895
4349.00,1.5880
4348.00,1.5866
4347.00,1.5853
4346.00,1.5839
4345.00,1.5825
4344.00,1.5810
4343.00,1.5794
4342.00,1.5776
4341.00,1.5757
4340.00,1.5736
4339.00,1.5714
4338.00,1.5691
4337.00,1.5667
4336.00,1.5642
4335.00,1.5617
4334.00,1.5592
4333.00,1.5567
4332.00,1.5541
4331.00,1.5514
4330.00,1.5486
4329.00,1.5458
4328.00,1.5429
4327.00,1.5400
4326.00,1.5369
4325.00,1.5337
4324.00,1.5303
4323.00,1.5268
4322.00,1.5235
4321.00,1.5202
4320.00,1.5169
4319.00,1.5136
4318.00,1.5102
4317.00,1.5065
4316.00,1.5027
4315.00,1.4989
4314.00,1.4950
4313.00,1.4911
4312.00,1.4870
4311.00,1.4828
4310.00,1.4784
4309.00,1.4740
4308.00,1.4696
4307.00,1.4651
4306.00,1.4606
4305.00,1.4561
4304.00,1.4514
4303.00,1.4466
4302.00,1.4418
4301.00,1.4370
4300.00,1.4320
4299.00,1.4269
4298.00,1.4217
4297.00,1.4165
4296.00,1.4111
4295.00,1.4057
4294.00,1.4002
4293.00,1.3947
4292.00,1.3892
4291.00,1.3837
4290.00,1.3781
4289.00,1.3724
4288.00,1.3665
4287.00,1.3607
4286.00,1.3548
4285.00,1.3489
4284.00,1.3430
4283.00,1.3370
4282.00,1.3309
4281.00,1.3247
4280.00,1.3185
4279.00,1.3122
4278.00,1.3059
4277.00,1.2995
4276.00,1.2929
4275.00,1.2863
4274.00,1.2797
4273.00,1.2729
4272.00,1.2661
4271.00,1.2593
4270.00,1.2523
4269.00,1.2454
4268.00,1.2384
4267.00,1.2313
4266.00,1.2241
4265.00,1.2170
4264.00,1.2098
4263.00,1.2026
4262.00,1.1954
4261.00,1.1881
4260.00,1.1808
4259.00,1.1734
4258.00,1.1659
4257.00,1.1585
4256.00,1.1510
4255.00,1.1435
4254.00,1.1362
4253.00,1.1288
4252.00,1.1215
4251.00,1.1142
4250.00,1.1069
4249.00,1.0997
4248.00,1.0925
4247.00,1.0853
4246.00,1.0781
4245.00,1.0710
4244.00,1.0639
4243.00,1.0568
4242.00,1.0499
4241.00,1.0430
4240.00,1.0362
4239.00,1.0295
4238.00,1.0228
4237.00,1.0162
4236.00,1.0097
4235.00,1.0033
4234.00,0.9970
4233.00,0.9908
4232.00,0.9848
4231.00,0.9788
4230.00,0.9730
4229.00,0.9673
4228.00,0.9617
4227.00,0.9562
4226.00,0.9508
4225.00,0.9455
4224.00,0.9403
4223.00,0.9352
4222.00,0.9302
4221.00,0.9253
4220.00,0.9204
4219.00,0.9157
4218.00,0.9110
4217.00,0.9064
4216.00,0.9018
4215.00,0.8973
4214.00,0.8929
4213.00,0.8886
4212.00,0.8843
4211.00,0.8801
4210.00,0.8761
4209.00,0.8721
4208.00,0.8684
4207.00,0.8647
4206.00,0.8612
4205.00,0.8578
4204.00,0.8546
4203.00,0.8515
4202.00,0.8485
4201.00,0.8458
4200.00,0.8432
4199.00,0.8409
4198.00,0.8388
4197.00,0.8369
4196.00,0.8351
4195.00,0.8336
4194.00,0.8323
4193.00,0.8313
4192.00,0.8304
4191.00,0.8298
4190.00,0.8294
4189.00,0.8293
4188.00,0.8292
4187.00,0.8294
4186.00,0.8298
4185.00,0.8304
4184.00,0.8312
4183.00,0.8322
4182.00,0.8334
4181.00,0.8348
4180.00,0.8363
4179.00,0.8380
4178.00,0.8399
4177.00,0.8420
4176.00,0.8442
4175.00,0.8467
4174.00,0.8493
4173.00,0.8522
4172.00,0.8553
4171.00,0.8585
4170.00,0.8619
4169.00,0.8654
4168.00,0.8691
4167.00,0.8730
4166.00,0.8770
4165.00,0.8812
4164.00,0.8855
4163.00,0.8899
4162.00,0.8945
4161.00,0.8992
4160.00,0.9040
4159.00,0.9090
4158.00,0.9141
4157.00,0.9193
4156.00,0.9247
4155.00,0.9301
4154.00,0.9357
4153.00,0.9414
4152.00,0.9471
4151.00,0.9529
4150.00,0.9588
4149.00,0.9647
4148.00,0.9707
4147.00,0.9768
4146.00,0.9830
4145.00,0.9893
4144.00,0.9956
4143.00,1.0020
4142.00,1.0085
4141.00,1.0151
4140.00,1.0218
4139.00,1.0285
4138.00,1.0352
4137.00,1.0421
4136.00,1.0491
4135.00,1.0561
4134.00,1.0633
4133.00,1.0705
4132.00,1.0778
4131.00,1.0851
4130.00,1.0925
4129.00,1.0999
4128.00,1.1073
4127.00,1.1147
4126.00,1.1222
4125.00,1.1297
4124.00,1.1373
4123.00,1.1450
4122.00,1.1527
4121.00,1.1604
4120.00,1.1682
4119.00,1.1758
4118.00,1.1835
4117.00,1.1911
4116.00,1.1988
4115.00,1.2065
4114.00,1.2144
4113.00,1.2224
4112.00,1.2304
4111.00,1.2384
4110.00,1.2462
4109.00,1.2540
4108.00,1.2618
4107.00,1.2696
4106.00,1.2775
4105.00,1.2855
4104.00,1.2934
4103.00,1.3012
4102.00,1.3090
4101.00,1.3167
4100.00,1.3244
4099.00,1.3320
4098.00,1.3397
4097.00,1.3474
4096.00,1.3551
4095.00,1.3628
4094.00,1.3703
4093.00,1.3777
4092.00,1.3850
4091.00,1.3922
4090.00,1.3994
4089.00,1.4067
4088.00,1.4139
4087.00,1.4211
4086.00,1.4281
4085.00,1.4351
4084.00,1.4420
4083.00,1.4489
4082.00,1.4557
4081.00,1.4624
4080.00,1.4690
4079.00,1.4756
4078.00,1.4821
4077.00,1.4884
4076.00,1.4946
4075.00,1.5005
4074.00,1.5062
4073.00,1.5119
4072.00,1.5175
4071.00,1.5231
4070.00,1.5287
4069.00,1.5344
4068.00,1.5401
4067.00,1.5457
4066.00,1.5514
4065.00,1.5569
4064.00,1.5622
4063.00,1.5673
4062.00,1.5722
4061.00,1.5771
4060.00,1.5821
4059.00,1.5872
4058.00,1.5923
4057.00,1.5972
4056.00,1.6017
4055.00,1.6060
4054.00,1.6102
4053.00,1.6143
4052.00,1.6184
4051.00,1.6225
4050.00,1.6268
4049.00,1.6310
4048.00,1.6350
4047.00,1.6388
4046.00,1.6423
4045.00,1.6459
4044.00,1.6495
4043.00,1.6531
4042.00,1.6566
4041.00,1.6600
4040.00,1.6632
4039.00,1.6662
4038.00,1.6692
4037.00,1.6721
4036.00,1.6750
4035.00,1.6780
4034.00,1.6810
4033.00,1.6839
4032.00,1.6866
4031.00,1.6893
4030.00,1.6921
4029.00,1.6949
4028.00,1.6977
4027.00,1.7003
4026.00,1.7025
4025.00,1.7045
4024.00,1.7064
4023.00,1.7083
4022.00,1.7102
4021.00,1.7122
4020.00,1.7142
4019.00,1.7161
4018.00,1.7179
4017.00,1.7197
4016.00,1.7213
4015.00,1.7230
4014.00,1.7246
4013.00,1.7261
4012.00,1.7274
4011.00,1.7284
4010.00,1.7293
4009.00,1.7303
4008.00,1.7313
4007.00,1.7325
4006.00,1.7335
4005.00,1.7343
4004.00,1.7350
4003.00,1.7355
4002.00,1.7362
4001.00,1.7370
4000.00,1.7379
3999.00,1.7388
3998.00,1.7395
3997.00,1.7401
3996.00,1.7404
3995.00,1.7406
3994.00,1.7407
3993.00,1.7408
3992.00,1.7408
3991.00,1.7407
3990.00,1.7404
3989.00,1.7400
3988.00,1.7396
3987.00,1.7392
3986.00,1.7390
3985.00,1.7391
3984.00,1.7392
3983.00,1.7392
3982.00,1.7388
3981.00,1.7382
3980.00,1.7373
3979.00,1.7363
3978.00,1.7353
3977.00,1.7343
3976.00,1.7334
3975.00,1.7325
3974.00,1.7314
3973.00,1.7303
3972.00,1.7291
3971.00,1.7278
3970.00,1.7266
3969.00,1.7253
3968.00,1.7240
3967.00,1.7227
3966.00,1.7213
3965.00,1.7198
3964.00,1.7181
3963.00,1.7162
3962.00,1.7142
3961.00,1.7120
3960.00,1.7099
3959.00,1.7079
3958.00,1.7060
3957.00,1.7040
3956.00,1.7019
3955.00,1.6996
3954.00,1.6973
3953.00,1.6948
3952.00,1.6922
3951.00,1.6896
3950.00,1.6868
3949.00,1.6842
3948.00,1.6815
3947.00,1.6788
3946.00,1.6758
3945.00,1.6725
3944.00,1.6690
3943.00,1.6653
3942.00,1.6617
3941.00,1.6581
3940.00,1.6546
3939.00,1.6512
3938.00,1.6479
3937.00,1.6446
3936.00,1.6412
3935.00,1.6376
3934.00,1.6337
3933.00,1.6295
3932.00,1.6252
3931.00,1.6207
3930.00,1.6161
3929.00,1.6114
3928.00,1.6066
3927.00,1.6018
3926.00,1.5972
3925.00,1.5925
3924.00,1.5878
3923.00,1.5828
3922.00,1.5776
3921.00,1.5723
3920.00,1.5667
3919.00,1.5609
3918.00,1.5548
3917.00,1.5487
3916.00,1.5426
3915.00,1.5365
3914.00,1.5305
3913.00,1.5246
3912.00,1.5186
3911.00,1.5125
3910.00,1.5065
3909.00,1.5003
3908.00,1.4939
3907.00,1.4872
3906.00,1.4802
3905.00,1.4728
3904.00,1.4651
3903.00,1.4571
3902.00,1.4491
3901.00,1.4409
3900.00,1.4329
3899.00,1.4249
3898.00,1.4171
3897.00,1.4097
3896.00,1.4026
3895.00,1.3955
3894.00,1.3882
3893.00,1.3806
3892.00,1.3727
3891.00,1.3645
3890.00,1.3563
3889.00,1.3482
3888.00,1.3399
3887.00,1.3311
3886.00,1.3220
3885.00,1.3130
3884.00,1.3045
3883.00,1.2961
3882.00,1.2874
3881.00,1.2783
3880.00,1.2691
3879.00,1.2603
3878.00,1.2521
3877.00,1.2438
3876.00,1.2351
3875.00,1.2260
3874.00,1.2171
3873.00,1.2086
3872.00,1.2002
3871.00,1.1915
3870.00,1.1823
3869.00,1.1730
3868.00,1.1643
3867.00,1.1560
3866.00,1.1475
3865.00,1.1385
3864.00,1.1295
3863.00,1.1209
3862.00,1.1129
3861.00,1.1052
3860.00,1.0973
3859.00,1.0895
3858.00,1.0819
3857.00,1.0747
3856.00,1.0678
3855.00,1.0605
3854.00,1.0521
3853.00,1.0428
3852.00,1.0335
3851.00,1.0252
3850.00,1.0176
3849.00,1.0103
3848.00,1.0030
3847.00,0.9963
3846.00,0.9901
3845.00,0.9840
3844.00,0.9777
3843.00,0.9713
3842.00,0.9648
3841.00,0.9586
3840.00,0.9525
3839.00,0.9464
3838.00,0.9400
3837.00,0.9335
3836.00,0.9274
3835.00,0.9217
3834.00,0.9162
3833.00,0.9106
3832.00,0.9049
3831.00,0.8995
3830.00,0.8946
3829.00,0.8902
3828.00,0.8863
3827.00,0.8825
3826.00,0.8789
3825.00,0.8759
3824.00,0.8737
3823.00,0.8717
3822.00,0.8693
3821.00,0.8660
3820.00,0.8623
3819.00,0.8593
3818.00,0.8575
3817.00,0.8561
3816.00,0.8543
3815.00,0.8521
3814.00,0.8502
3813.00,0.8490
3812.00,0.8485
3811.00,0.8484
3810.00,0.8489
3809.00,0.8503
3808.00,0.8521
3807.00,0.8535
3806.00,0.8543
3805.00,0.8551
3804.00,0.8567
3803.00,0.8592
3802.00,0.8620
3801.00,0.8645
3800.00,0.8667
3799.00,0.8691
3798.00,0.8721
3797.00,0.8753
3796.00,0.8786
3795.00,0.8822
3794.00,0.8862
3793.00,0.8906
3792.00,0.8952
3791.00,0.9000
3790.00,0.9051
3789.00,0.9106
3788.00,0.9163
3787.00,0.9222
3786.00,0.9281
3785.00,0.9341
3784.00,0.9402
3783.00,0.9465
3782.00,0.9529
3781.00,0.9594
3780.00,0.9662
3779.00,0.9731
3778.00,0.9800
3777.00,0.9870
3776.00,0.9939
3775.00,1.0008
3774.00,1.0078
3773.00,1.0151
3772.00,1.0227
3771.00,1.0308
3770.00,1.0391
3769.00,1.0475
3768.00,1.0557
3767.00,1.0636
3766.00,1.0715
3765.00,1.0795
3764.00,1.0876
3763.00,1.0958
3762.00,1.1040
3761.00,1.1123
3760.00,1.1211
3759.00,1.1303
3758.00,1.1397
3757.00,1.1489
3756.00,1.1577
3755.00,1.1659
3754.00,1.1737
3753.00,1.1819
3752.00,1.1910
3751.00,1.2014
3750.00,1.2128
3749.00,1.2245
3748.00,1.2351
3747.00,1.2439
3746.00,1.2514
3745.00,1.2595
3744.00,1.2698
3743.00,1.2817
3742.00,1.2933
3741.00,1.3031
3740.00,1.3113
3739.00,1.3189
3738.00,1.3269
3737.00,1.3358
3736.00,1.3457
3735.00,1.3561
3734.00,1.3666
3733.00,1.3770
3732.00,1.3872
3731.00,1.3973
3730.00,1.4068
3729.00,1.4158
3728.00,1.4242
3727.00,1.4323
3726.00,1.4404
3725.00,1.4488
3724.00,1.4575
3723.00,1.4664
3722.00,1.4754
3721.00,1.4846
3720.00,1.4939
3719.00,1.5033
3718.00,1.5127
3717.00,1.5220
3716.00,1.5311
3715.00,1.5398
3714.00,1.5480
3713.00,1.5564
3712.00,1.5654
3711.00,1.5748
3710.00,1.5842
3709.00,1.5933
3708.00,1.6021
3707.00,1.6106
3706.00,1.6184
3705.00,1.6255
3704.00,1.6321
3703.00,1.6385
3702.00,1.6448
3701.00,1.6514
3700.00,1.6582
3699.00,1.6651
3698.00,1.6721
3697.00,1.6789
3696.00,1.6856
3695.00,1.6922
3694.00,1.6985
3693.00,1.7048
3692.00,1.7111
3691.00,1.7175
3690.00,1.7240
3689.00,1.7308
3688.00,1.7381
3687.00,1.7455
3686.00,1.7524
3685.00,1.7583
3684.00,1.7635
3683.00,1.7683
3682.00,1.7732
3681.00,1.7782
3680.00,1.7833
3679.00,1.7882
3678.00,1.7928
3677.00,1.7973
3676.00,1.8019
3675.00,1.8066
3674.00,1.8114
3673.00,1.8159
3672.00,1.8201
3671.00,1.8236
3670.00,1.8271
3669.00,1.8312
3668.00,1.8358
3667.00,1.8402
3666.00,1.8439
3665.00,1.8469
3664.00,1.8497
3663.00,1.8526
3662.00,1.8559
3661.00,1.8595
3660.00,1.8630
3659.00,1.8663
3658.00,1.8692
3657.00,1.8720
3656.00,1.8748
3655.00,1.8776
3654.00,1.8802
3653.00,1.8825
3652.00,1.8845
3651.00,1.8863
3650.00,1.8880
3649.00,1.8898
3648.00,1.8917
3647.00,1.8937
3646.00,1.8958
3645.00,1.8979
3644.00,1.8996
3643.00,1.9013
3642.00,1.9030
3641.00,1.9051
3640.00,1.9074
3639.00,1.9095
3638.00,1.9112
3637.00,1.9124
3636.00,1.9133
3635.00,1.9141
3634.00,1.9150
3633.00,1.9161
3632.00,1.9171
3631.00,1.9179
3630.00,1.9182
3629.00,1.9185
3628.00,1.9188
3627.00,1.9192
3626.00,1.9193
3625.00,1.9191
3624.00,1.9188
3623.00,1.9188
3622.00,1.9192
3621.00,1.9200
3620.00,1.9207
3619.00,1.9212
3618.00,1.9213
3617.00,1.9214
3616.00,1.9214
3615.00,1.9216
3614.00,1.9220
3613.00,1.9229
3612.00,1.9238
3611.00,1.9243
3610.00,1.9242
3609.00,1.9236
3608.00,1.9228
3607.00,1.9218
3606.00,1.9211
3605.00,1.9210
3604.00,1.9211
3603.00,1.9209
3602.00,1.9201
3601.00,1.9190
3600.00,1.9180
3599.00,1.9171
3598.00,1.9163
3597.00,1.9156
3596.00,1.9147
3595.00,1.9134
3594.00,1.9118
3593.00,1.9102
3592.00,1.9085
3591.00,1.9070
3590.00,1.9055
3589.00,1.9040
3588.00,1.9025
3587.00,1.9007
3586.00,1.8989
3585.00,1.8971
3584.00,1.8956
3583.00,1.8942
3582.00,1.8930
3581.00,1.8918
3580.00,1.8905
3579.00,1.8888
3578.00,1.8867
3577.00,1.8845
3576.00,1.8822
3575.00,1.8797
3574.00,1.8773
3573.00,1.8748
3572.00,1.8724
3571.00,1.8699
3570.00,1.8671
3569.00,1.8638
3568.00,1.8600
3567.00,1.8556
3566.00,1.8512
3565.00,1.8473
3564.00,1.8440
3563.00,1.8410
3562.00,1.8380
3561.00,1.8351
3560.00,1.8321
3559.00,1.8290
3558.00,1.8255
3557.00,1.8217
3556.00,1.8174
3555.00,1.8131
3554.00,1.8088
3553.00,1.8047
3552.00,1.8005
3551.00,1.7960
3550.00,1.7911
3549.00,1.7862
3548.00,1.7812
3547.00,1.7761
3546.00,1.7709
3545.00,1.7656
3544.00,1.7604
3543.00,1.7551
3542.00,1.7498
3541.00,1.7446
3540.00,1.7395
3539.00,1.7341
3538.00,1.7284
3537.00,1.7224
3536.00,1.7162
3535.00,1.7101
3534.00,1.7039
3533.00,1.6977
3532.00,1.6913
3531.00,1.6847
3530.00,1.6779
3529.00,1.6710
3528.00,1.6641
3527.00,1.6572
3526.00,1.6504
3525.00,1.6435
3524.00,1.6364
3523.00,1.6290
3522.00,1.6215
3521.00,1.6140
3520.00,1.6062
3519.00,1.5983
3518.00,1.5903
3517.00,1.5823
3516.00,1.5743
3515.00,1.5663
3514.00,1.5581
3513.00,1.5498
3512.00,1.5413
3511.00,1.5327
3510.00,1.5239
3509.00,1.5150
3508.00,1.5061
3507.00,1.4971
3506.00,1.4879
3505.00,1.4785
3504.00,1.4690
3503.00,1.4594
3502.00,1.4498
3501.00,1.4403
3500.00,1.4308
3499.00,1.4212
3498.00,1.4115
3497.00,1.4018
3496.00,1.3922
3495.00,1.3826
3494.00,1.3730
3493.00,1.3634
3492.00,1.3537
3491.00,1.3440
3490.00,1.3343
3489.00,1.3245
3488.00,1.3148
3487.00,1.3052
3486.00,1.2957
3485.00,1.2863
3484.00,1.2769
3483.00,1.2675
3482.00,1.2582
3481.00,1.2491
3480.00,1.2401
3479.00,1.2313
3478.00,1.2225
3477.00,1.2138
3476.00,1.2053
3475.00,1.1968
3474.00,1.1885
3473.00,1.1803
3472.00,1.1722
3471.00,1.1642
3470.00,1.1563
3469.00,1.1486
3468.00,1.1410
3467.00,1.1336
3466.00,1.1264
3465.00,1.1194
3464.00,1.1126
3463.00,1.1060
3462.00,1.0996
3461.00,1.0933
3460.00,1.0873
3459.00,1.0815
3458.00,1.0759
3457.00,1.0705
3456.00,1.0653
3455.00,1.0603
3454.00,1.0557
3453.00,1.0514
3452.00,1.0474
3451.00,1.0435
3450.00,1.0399
3449.00,1.0366
3448.00,1.0335
3447.00,1.0307
3446.00,1.0282
3445.00,1.0260
3444.00,1.0243
3443.00,1.0228
3442.00,1.0216
3441.00,1.0208
3440.00,1.0204
3439.00,1.0204
3438.00,1.0207
3437.00,1.0213
3436.00,1.0223
3435.00,1.0237
3434.00,1.0256
3433.00,1.0280
3432.00,1.0308
3431.00,1.0341
3430.00,1.0378
3429.00,1.0419
3428.00,1.0464
3427.00,1.0513
3426.00,1.0567
3425.00,1.0625
3424.00,1.0687
3423.00,1.0752
3422.00,1.0821
3421.00,1.0892
3420.00,1.0966
3419.00,1.1043
3418.00,1.1121
3417.00,1.1201
3416.00,1.1281
3415.00,1.1361
3414.00,1.1441
3413.00,1.1519
3412.00,1.1595
3411.00,1.1669
3410.00,1.1740
3409.00,1.1806
3408.00,1.1868
3407.00,1.1924
3406.00,1.1974
3405.00,1.2020
3404.00,1.2060
3403.00,1.2095
3402.00,1.2126
3401.00,1.2155
3400.00,1.2183
3399.00,1.2211
3398.00,1.2241
3397.00,1.2273
3396.00,1.2308
3395.00,1.2345
3394.00,1.2387
3393.00,1.2432
3392.00,1.2483
3391.00,1.2538
3390.00,1.2598
3389.00,1.2661
3388.00,1.2727
3387.00,1.2796
3386.00,1.2867
3385.00,1.2941
3384.00,1.3018
3383.00,1.3098
3382.00,1.3180
3381.00,1.3264
3380.00,1.3351
3379.00,1.3440
3378.00,1.3531
3377.00,1.3624
3376.00,1.3717
3375.00,1.3813
3374.00,1.3909
3373.00,1.4007
3372.00,1.4105
3371.00,1.4205
3370.00,1.4305
3369.00,1.4406
3368.00,1.4508
3367.00,1.4609
3366.00,1.4711
3365.00,1.4813
3364.00,1.4916
3363.00,1.5018
3362.00,1.5120
3361.00,1.5222
3360.00,1.5323
3359.00,1.5424
3358.00,1.5525
3357.00,1.5625
3356.00,1.5724
3355.00,1.5823
3354.00,1.5921
3353.00,1.6019
3352.00,1.6116
3351.00,1.6213
3350.00,1.6307
3349.00,1.6401
3348.00,1.6492
3347.00,1.6582
3346.00,1.6671
3345.00,1.6760
3344.00,1.6848
3343.00,1.6935
3342.00,1.7021
3341.00,1.7106
3340.00,1.7190
3339.00,1.7271
3338.00,1.7352
3337.00,1.7432
3336.00,1.7513
3335.00,1.7593
3334.00,1.7671
3333.00,1.7749
3332.00,1.7825
3331.00,1.7899
3330.00,1.7971
3329.00,1.8042
3328.00,1.8114
3327.00,1.8186
3326.00,1.8257
3325.00,1.8325
3324.00,1.8390
3323.00,1.8453
3322.00,1.8517
3321.00,1.8583
3320.00,1.8648
3319.00,1.8711
3318.00,1.8771
3317.00,1.8830
3316.00,1.8887
3315.00,1.8942
3314.00,1.8995
3313.00,1.9047
3312.00,1.9101
3311.00,1.9157
3310.00,1.9212
3309.00,1.9266
3308.00,1.9318
3307.00,1.9370
3306.00,1.9419
3305.00,1.9466
3304.00,1.9511
3303.00,1.9553
3302.00,1.9596
3301.00,1.9641
3300.00,1.9686
3299.00,1.9729
3298.00,1.9770
3297.00,1.9809
3296.00,1.9848
3295.00,1.9887
3294.00,1.9927
3293.00,1.9971
3292.00,2.0015
3291.00,2.0056
3290.00,2.0093
3289.00,2.0124
3288.00,2.0151
3287.00,2.0179
3286.00,2.0209
3285.00,2.0242
3284.00,2.0278
3283.00,2.0313
3282.00,2.0347
3281.00,2.0377
3280.00,2.0406
3279.00,2.0432
3278.00,2.0456
3277.00,2.0480
3276.00,2.0504
3275.00,2.0527
3274.00,2.0551
3273.00,2.0577
3272.00,2.0602
3271.00,2.0626
3270.00,2.0646
3269.00,2.0661
3268.00,2.0673
3267.00,2.0684
3266.00,2.0701
3265.00,2.0722
3264.00,2.0746
3263.00,2.0767
3262.00,2.0781
3261.00,2.0791
3260.00,2.0799
3259.00,2.0810
3258.00,2.0826
3257.00,2.0847
3256.00,2.0867
3255.00,2.0883
3254.00,2.0893
3253.00,2.0900
3252.00,2.0904
3251.00,2.0905
3250.00,2.0906
3249.00,2.0911
3248.00,2.0921
3247.00,2.0933
3246.00,2.0941
3245.00,2.0943
3244.00,2.0943
3243.00,2.0945
3242.00,2.0950
3241.00,2.0957
3240.00,2.0963
3239.00,2.0966
3238.00,2.0968
3237.00,2.0968
3236.00,2.0968
3235.00,2.0966
3234.00,2.0962
3233.00,2.0955
3232.00,2.0946
3231.00,2.0937
3230.00,2.0929
3229.00,2.0924
3228.00,2.0920
3227.00,2.0917
3226.00,2.0914
3225.00,2.0910
3224.00,2.0903
3223.00,2.0893
3222.00,2.0880
3221.00,2.0866
3220.00,2.0852
3219.00,2.0835
3218.00,2.0817
3217.00,2.0800
3216.00,2.0783
3215.00,2.0766
3214.00,2.0748
3213.00,2.0731
3212.00,2.0714
3211.00,2.0698
3210.00,2.0681
3209.00,2.0663
3208.00,2.0644
3207.00,2.0624
3206.00,2.0601
3205.00,2.0576
3204.00,2.0549
3203.00,2.0520
3202.00,2.0489
3201.00,2.0460
3200.00,2.0432
3199.00,2.0407
3198.00,2.0382
3197.00,2.0358
3196.00,2.0332
3195.00,2.0301
3194.00,2.0268
3193.00,2.0235
3192.00,2.0202
3191.00,2.0168
3190.00,2.0129
3189.00,2.0089
3188.00,2.0049
3187.00,2.0011
3186.00,1.9975
3185.00,1.9938
3184.00,1.9899
3183.00,1.9856
3182.00,1.9812
3181.00,1.9768
3180.00,1.9725
3179.00,1.9680
3178.00,1.9631
3177.00,1.9579
3176.00,1.9525
3175.00,1.9470
3174.00,1.9417
3173.00,1.9365
3172.00,1.9313
3171.00,1.9259
3170.00,1.9201
3169.00,1.9142
3168.00,1.9081
3167.00,1.9020
3166.00,1.8957
3165.00,1.8892
3164.00,1.8827
3163.00,1.8763
3162.00,1.8697
3161.00,1.8631
3160.00,1.8561
3159.00,1.8487
3158.00,1.8410
3157.00,1.8332
3156.00,1.8255
3155.00,1.8176
3154.00,1.8097
3153.00,1.8017
3152.00,1.7935
3151.00,1.7850
3150.00,1.7763
3149.00,1.7675
3148.00,1.7586
3147.00,1.7494
3146.00,1.7401
3145.00,1.7308
3144.00,1.7213
3143.00,1.7119
3142.00,1.7021
3141.00,1.6922
3140.00,1.6820
3139.00,1.6717
3138.00,1.6612
3137.00,1.6505
3136.00,1.6395
3135.00,1.6283
3134.00,1.6168
3133.00,1.6052
3132.00,1.5935
3131.00,1.5817
3130.00,1.5700
3129.00,1.5582
3128.00,1.5463
3127.00,1.5343
3126.00,1.5221
3125.00,1.5097
3124.00,1.4971
3123.00,1.4846
3122.00,1.4720
3121.00,1.4594
3120.00,1.4468
3119.00,1.4342
3118.00,1.4215
3117.00,1.4088
3116.00,1.3962
3115.00,1.3838
3114.00,1.3715
3113.00,1.3593
3112.00,1.3471
3111.00,1.3351
3110.00,1.3231
3109.00,1.3113
3108.00,1.2996
3107.00,1.2881
3106.00,1.2768
3105.00,1.2657
3104.00,1.2548
3103.00,1.2440
3102.00,1.2334
3101.00,1.2230
3100.00,1.2128
3099.00,1.2029
3098.00,1.1932
3097.00,1.1837
3096.00,1.1745
3095.00,1.1655
3094.00,1.1567
3093.00,1.1484
3092.00,1.1404
3091.00,1.1328
3090.00,1.1255
3089.00,1.1185
3088.00,1.1118
3087.00,1.1055
3086.00,1.0996
3085.00,1.0941
3084.00,1.0891
3083.00,1.0844
3082.00,1.0801
3081.00,1.0763
3080.00,1.0729
3079.00,1.0700
3078.00,1.0676
3077.00,1.0657
3076.00,1.0643
3075.00,1.0635
3074.00,1.0633
3073.00,1.0638
3072.00,1.0650
3071.00,1.0668
3070.00,1.0692
3069.00,1.0722
3068.00,1.0757
3067.00,1.0798
3066.00,1.0843
3065.00,1.0894
3064.00,1.0950
3063.00,1.1011
3062.00,1.1076
3061.00,1.1145
3060.00,1.1219
3059.00,1.1297
3058.00,1.1379
3057.00,1.1466
3056.00,1.1556
3055.00,1.1650
3054.00,1.1747
3053.00,1.1845
3052.00,1.1946
3051.00,1.2050
3050.00,1.2156
3049.00,1.2265
3048.00,1.2377
3047.00,1.2493
3046.00,1.2613
3045.00,1.2737
3044.00,1.2865
3043.00,1.2997
3042.00,1.3133
3041.00,1.3271
3040.00,1.3414
3039.00,1.3560
3038.00,1.3711
3037.00,1.3866
3036.00,1.4023
3035.00,1.4183
3034.00,1.4343
3033.00,1.4504
3032.00,1.4667
3031.00,1.4831
3030.00,1.4997
3029.00,1.5163
3028.00,1.5328
3027.00,1.5493
3026.00,1.5659
3025.00,1.5826
3024.00,1.5995
3023.00,1.6163
3022.00,1.6330
3021.00,1.6497
3020.00,1.6664
3019.00,1.6833
3018.00,1.7002
3017.00,1.7172
3016.00,1.7343
3015.00,1.7513
3014.00,1.7682
3013.00,1.7849
3012.00,1.8014
3011.00,1.8178
3010.00,1.8341
3009.00,1.8503
3008.00,1.8664
3007.00,1.8822
3006.00,1.8978
3005.00,1.9134
3004.00,1.9288
3003.00,1.9442
3002.00,1.9595
3001.00,1.9747
3000.00,1.9898
2999.00,2.0047
2998.00,2.0194
2997.00,2.0339
2996.00,2.0482
2995.00,2.0621
2994.00,2.0755
2993.00,2.0887
2992.00,2.1017
2991.00,2.1149
2990.00,2.1282
2989.00,2.1414
2988.00,2.1544
2987.00,2.1669
2986.00,2.1792
2985.00,2.1919
2984.00,2.2049
2983.00,2.2177
2982.00,2.2297
2981.00,2.2412
2980.00,2.2525
2979.00,2.2640
2978.00,2.2760
2977.00,2.2885
2976.00,2.3016
2975.00,2.3151
2974.00,2.3294
2973.00,2.3447
2972.00,2.3613
2971.00,2.3789
2970.00,2.3972
2969.00,2.4162
2968.00,2.4366
2967.00,2.4587
2966.00,2.4822
2965.00,2.5067
2964.00,2.5324
2963.00,2.5593
2962.00,2.5869
2961.00,2.6144
2960.00,2.6407
2959.00,2.6659
2958.00,2.6909
2957.00,2.7161
2956.00,2.7402
2955.00,2.7612
2954.00,2.7792
2953.00,2.7967
2952.00,2.8163
2951.00,2.8390
2950.00,2.8638
2949.00,2.8891
2948.00,2.9147
2947.00,2.9404
2946.00,2.9662
2945.00,2.9912
2944.00,3.0145
2943.00,3.0358
2942.00,3.0561
2941.00,3.0749
2940.00,3.0899
2939.00,3.0980
2938.00,3.0990
2937.00,3.0951
2936.00,3.0882
2935.00,3.0780
2934.00,3.0636
2933.00,3.0433
2932.00,3.0153
2931.00,2.9787
2930.00,2.9353
2929.00,2.8889
2928.00,2.8419
2927.00,2.7948
2926.00,2.7471
2925.00,2.6992
2924.00,2.6521
2923.00,2.6072
2922.00,2.5650
2921.00,2.5257
2920.00,2.4888
2919.00,2.4534
2918.00,2.4190
2917.00,2.3858
2916.00,2.3552
2915.00,2.3286
2914.00,2.3069
2913.00,2.2902
2912.00,2.2780
2911.00,2.2695
2910.00,2.2640
2909.00,2.2604
2908.00,2.2582
2907.00,2.2566
2906.00,2.2554
2905.00,2.2546
2904.00,2.2543
2903.00,2.2543
2902.00,2.2547
2901.00,2.2554
2900.00,2.2567
2899.00,2.2587
2898.00,2.2613
2897.00,2.2643
2896.00,2.2676
2895.00,2.2714
2894.00,2.2755
2893.00,2.2800
2892.00,2.2845
2891.00,2.2895
2890.00,2.2955
2889.00,2.3029
2888.00,2.3110
2887.00,2.3189
2886.00,2.3263
2885.00,2.3339
2884.00,2.3426
2883.00,2.3526
2882.00,2.3633
2881.00,2.3742
2880.00,2.3854
2879.00,2.3971
2878.00,2.4096
2877.00,2.4228
2876.00,2.4367
2875.00,2.4512
2874.00,2.4664
2873.00,2.4829
2872.00,2.5007
2871.00,2.5196
2870.00,2.5393
2869.00,2.5597
2868.00,2.5804
2867.00,2.6004
2866.00,2.6179
2865.00,2.6310
2864.00,2.6380
2863.00,2.6379
2862.00,2.6304
2861.00,2.6159
2860.00,2.5952
2859.00,2.5693
2858.00,2.5390
2857.00,2.5054
2856.00,2.4701
2855.00,2.4353
2854.00,2.4024
2853.00,2.3723
2852.00,2.3454
2851.00,2.3220
2850.00,2.3028
2849.00,2.2882
2848.00,2.2781
2847.00,2.2719
2846.00,2.2689
2845.00,2.2685
2844.00,2.2701
2843.00,2.2733
2842.00,2.2776
2841.00,2.2828
2840.00,2.2882
2839.00,2.2935
2838.00,2.2986
2837.00,2.3035
2836.00,2.3082
2835.00,2.3126
2834.00,2.3168
2833.00,2.3209
2832.00,2.3249
2831.00,2.3287
2830.00,2.3321
2829.00,2.3352
2828.00,2.3383
2827.00,2.3413
2826.00,2.3440
2825.00,2.3461
2824.00,2.3477
2823.00,2.3490
2822.00,2.3502
2821.00,2.3515
2820.00,2.3526
2819.00,2.3534
2818.00,2.3543
2817.00,2.3552
2816.00,2.3562
2815.00,2.3571
2814.00,2.3577
2813.00,2.3580
2812.00,2.3578
2811.00,2.3574
2810.00,2.3572
2809.00,2.3573
2808.00,2.3574
2807.00,2.3572
2806.00,2.3566
2805.00,2.3556
2804.00,2.3545
2803.00,2.3536
2802.00,2.3533
2801.00,2.3533
2800.00,2.3531
2799.00,2.3523
2798.00,2.3512
2797.00,2.3500
2796.00,2.3485
2795.00,2.3465
2794.00,2.3441
2793.00,2.3420
2792.00,2.3405
2791.00,2.3395
2790.00,2.3387
2789.00,2.3378
2788.00,2.3362
2787.00,2.3333
2786.00,2.3295
2785.00,2.3255
2784.00,2.3220
2783.00,2.3191
2782.00,2.3164
2781.00,2.3137
2780.00,2.3111
2779.00,2.3086
2778.00,2.3060
2777.00,2.3034
2776.00,2.3006
2775.00,2.2975
2774.00,2.2940
2773.00,2.2903
2772.00,2.2865
2771.00,2.2827
2770.00,2.2788
2769.00,2.2746
2768.00,2.2698
2767.00,2.2650
2766.00,2.2603
2765.00,2.2560
2764.00,2.2520
2763.00,2.2477
2762.00,2.2430
2761.00,2.2380
2760.00,2.2332
2759.00,2.2283
2758.00,2.2231
2757.00,2.2177
2756.00,2.2123
2755.00,2.2068
2754.00,2.2010
2753.00,2.1949
2752.00,2.1884
2751.00,2.1819
2750.00,2.1755
2749.00,2.1691
2748.00,2.1625
2747.00,2.1557
2746.00,2.1488
2745.00,2.1416
2744.00,2.1340
2743.00,2.1260
2742.00,2.1180
2741.00,2.1102
2740.00,2.1025
2739.00,2.0946
2738.00,2.0864
2737.00,2.0779
2736.00,2.0692
2735.00,2.0604
2734.00,2.0516
2733.00,2.0428
2732.00,2.0338
2731.00,2.0246
2730.00,2.0151
2729.00,2.0053
2728.00,1.9951
2727.00,1.9846
2726.00,1.9736
2725.00,1.9624
2724.00,1.9511
2723.00,1.9396
2722.00,1.9277
2721.00,1.9157
2720.00,1.9036
2719.00,1.8913
2718.00,1.8787
2717.00,1.8659
2716.00,1.8528
2715.00,1.8396
2714.00,1.8261
2713.00,1.8123
2712.00,1.7983
2711.00,1.7840
2710.00,1.7694
2709.00,1.7546
2708.00,1.7397
2707.00,1.7247
2706.00,1.7096
2705.00,1.6944
2704.00,1.6789
2703.00,1.6632
2702.00,1.6474
2701.00,1.6316
2700.00,1.6160
2699.00,1.6004
2698.00,1.5848
2697.00,1.5693
2696.00,1.5538
2695.00,1.5385
2694.00,1.5233
2693.00,1.5084
2692.00,1.4937
2691.00,1.4794
2690.00,1.4655
2689.00,1.4520
2688.00,1.4390
2687.00,1.4266
2686.00,1.4150
2685.00,1.4044
2684.00,1.3948
2683.00,1.3864
2682.00,1.3791
2681.00,1.3730
2680.00,1.3681
2679.00,1.3640
2678.00,1.3605
2677.00,1.3571
2676.00,1.3535
2675.00,1.3495
2674.00,1.3449
2673.00,1.3397
2672.00,1.3342
2671.00,1.3283
2670.00,1.3222
2669.00,1.3154
2668.00,1.3077
2667.00,1.2986
2666.00,1.2881
2665.00,1.2765
2664.00,1.2643
2663.00,1.2521
2662.00,1.2403
2661.00,1.2296
2660.00,1.2202
2659.00,1.2122
2658.00,1.2056
2657.00,1.2003
2656.00,1.1963
2655.00,1.1934
2654.00,1.1914
2653.00,1.1900
2652.00,1.1893
2651.00,1.1890
2650.00,1.1890
2649.00,1.1893
2648.00,1.1900
2647.00,1.1909
2646.00,1.1920
2645.00,1.1933
2644.00,1.1949
2643.00,1.1968
2642.00,1.1992
2641.00,1.2023
2640.00,1.2062
2639.00,1.2110
2638.00,1.2166
2637.00,1.2230
2636.00,1.2303
2635.00,1.2384
2634.00,1.2473
2633.00,1.2569
2632.00,1.2672
2631.00,1.2780
2630.00,1.2895
2629.00,1.3014
2628.00,1.3138
2627.00,1.3267
2626.00,1.3400
2625.00,1.3536
2624.00,1.3675
2623.00,1.3817
2622.00,1.3961
2621.00,1.4106
2620.00,1.4253
2619.00,1.4400
2618.00,1.4547
2617.00,1.4694
2616.00,1.4842
2615.00,1.4989
2614.00,1.5135
2613.00,1.5282
2612.00,1.5428
2611.00,1.5573
2610.00,1.5716
2609.00,1.5856
2608.00,1.5996
2607.00,1.6135
2606.00,1.6275
2605.00,1.6416
2604.00,1.6558
2603.00,1.6702
2602.00,1.6850
2601.00,1.7000
2600.00,1.7153
2599.00,1.7306
2598.00,1.7460
2597.00,1.7614
2596.00,1.7770
2595.00,1.7927
2594.00,1.8083
2593.00,1.8239
2592.00,1.8394
2591.00,1.8546
2590.00,1.8696
2589.00,1.8845
2588.00,1.8994
2587.00,1.9140
2586.00,1.9283
2585.00,1.9421
2584.00,1.9556
2583.00,1.9688
2582.00,1.9816
2581.00,1.9943
2580.00,2.0067
2579.00,2.0191
2578.00,2.0313
2577.00,2.0434
2576.00,2.0551
2575.00,2.0664
2574.00,2.0773
2573.00,2.0882
2572.00,2.0992
2571.00,2.1103
2570.00,2.1211
2569.00,2.1314
2568.00,2.1414
2567.00,2.1509
2566.00,2.1600
2565.00,2.1687
2564.00,2.1771
2563.00,2.1856
2562.00,2.1944
2561.00,2.2036
2560.00,2.2127
2559.00,2.2213
2558.00,2.2296
2557.00,2.2380
2556.00,2.2465
2555.00,2.2548
2554.00,2.2627
2553.00,2.2702
2552.00,2.2777
2551.00,2.2852
2550.00,2.2930
2549.00,2.3009
2548.00,2.3085
2547.00,2.3156
2546.00,2.3221
2545.00,2.3283
2544.00,2.3345
2543.00,2.3406
2542.00,2.3462
2541.00,2.3514
2540.00,2.3566
2539.00,2.3625
2538.00,2.3689
2537.00,2.3755
2536.00,2.3818
2535.00,2.3878
2534.00,2.3936
2533.00,2.3993
2532.00,2.4047
2531.00,2.4099
2530.00,2.4151
2529.00,2.4200
2528.00,2.4246
2527.00,2.4289
2526.00,2.4335
2525.00,2.4385
2524.00,2.4434
2523.00,2.4475
2522.00,2.4509
2521.00,2.4542
2520.00,2.4578
2519.00,2.4614
2518.00,2.4648
2517.00,2.4681
2516.00,2.4718
2515.00,2.4762
2514.00,2.4813
2513.00,2.4862
2512.00,2.4903
2511.00,2.4936
2510.00,2.4969
2509.00,2.5009
2508.00,2.5053
2507.00,2.5092
2506.00,2.5125
2505.00,2.5155
2504.00,2.5187
2503.00,2.5221
2502.00,2.5252
2501.00,2.5274
2500.00,2.5289
2499.00,2.5302
2498.00,2.5317
2497.00,2.5337
2496.00,2.5358
2495.00,2.5377
2494.00,2.5395
2493.00,2.5415
2492.00,2.5437
2491.00,2.5458
2490.00,2.5478
2489.00,2.5498
2488.00,2.5519
2487.00,2.5543
2486.00,2.5573
2485.00,2.5602
2484.00,2.5624
2483.00,2.5638
2482.00,2.5652
2481.00,2.5673
2480.00,2.5697
2479.00,2.5712
2478.00,2.5714
2477.00,2.5709
2476.00,2.5707
2475.00,2.5711
2474.00,2.5719
2473.00,2.5729
2472.00,2.5739
2471.00,2.5748
2470.00,2.5754
2469.00,2.5755
2468.00,2.5755
2467.00,2.5756
2466.00,2.5765
2465.00,2.5779
2464.00,2.5792
2463.00,2.5796
2462.00,2.5792
2461.00,2.5789
2460.00,2.5794
2459.00,2.5803
2458.00,2.5809
2457.00,2.5810
2456.00,2.5809
2455.00,2.5813
2454.00,2.5821
2453.00,2.5831
2452.00,2.5836
2451.00,2.5834
2450.00,2.5828
2449.00,2.5822
2448.00,2.5818
2447.00,2.5819
2446.00,2.5821
2445.00,2.5820
2444.00,2.5809
2443.00,2.5790
2442.00,2.5765
2441.00,2.5739
2440.00,2.5714
2439.00,2.5696
2438.00,2.5685
2437.00,2.5675
2436.00,2.5658
2435.00,2.5634
2434.00,2.5618
2433.00,2.5613
2432.00,2.5612
2431.00,2.5603
2430.00,2.5587
2429.00,2.5570
2428.00,2.5553
2427.00,2.5532
2426.00,2.5506
2425.00,2.5481
2424.00,2.5459
2423.00,2.5438
2422.00,2.5417
2421.00,2.5397
2420.00,2.5375
2419.00,2.5349
2418.00,2.5318
2417.00,2.5287
2416.00,2.5255
2415.00,2.5220
2414.00,2.5181
2413.00,2.5145
2412.00,2.5113
2411.00,2.5083
2410.00,2.5051
2409.00,2.5018
2408.00,2.4986
2407.00,2.4955
2406.00,2.4922
2405.00,2.4884
2404.00,2.4843
2403.00,2.4800
2402.00,2.4760
2401.00,2.4723
2400.00,2.4685
2399.00,2.4639
2398.00,2.4586
2397.00,2.4532
2396.00,2.4482
2395.00,2.4435
2394.00,2.4392
2393.00,2.4349
2392.00,2.4302
2391.00,2.4245
2390.00,2.4183
2389.00,2.4122
2388.00,2.4065
2387.00,2.4007
2386.00,2.3946
2385.00,2.3884
2384.00,2.3827
2383.00,2.3777
2382.00,2.3729
2381.00,2.3677
2380.00,2.3620
2379.00,2.3557
2378.00,2.3490
2377.00,2.3417
2376.00,2.3330
2375.00,2.3220
2374.00,2.3082
2373.00,2.2919
2372.00,2.2735
2371.00,2.2534
2370.00,2.2323
2369.00,2.2117
2368.00,2.1930
2367.00,2.1771
2366.00,2.1632
2365.00,2.1507
2364.00,2.1383
2363.00,2.1253
2362.00,2.1114
2361.00,2.0981
2360.00,2.0854
2359.00,2.0723
2358.00,2.0587
2357.00,2.0455
2356.00,2.0310
2355.00,2.0193
2354.00,2.0026
2353.00,1.9948
2352.00,1.9729
2351.00,2.0405
2350.00,2.0572
2349.00,2.0399
2348.00,2.0329
2347.00,2.0159
2346.00,2.0002
2345.00,1.9818
2344.00,1.9646
2343.00,1.9475
2342.00,1.9312
2341.00,1.9153
2340.00,1.9015
2339.00,1.8861
2338.00,1.8747
2337.00,1.8559
2336.00,1.8510
2335.00,1.7727
2334.00,1.7483
2333.00,1.7437
2332.00,1.7311
2331.00,1.7217
2330.00,1.7106
2329.00,1.7011
2328.00,1.6927
2327.00,1.6831
2326.00,1.6721
2325.00,1.6588
2324.00,1.6435
2323.00,1.6282
2322.00,1.6132
2321.00,1.6007
2320.00,1.5885
2319.00,1.5771
2318.00,1.5592
2317.00,1.5436
2316.00,1.5295
2315.00,1.5152
2314.00,1.5011
2313.00,1.4878
2312.00,1.4738
2311.00,1.4622
2310.00,1.4465
2309.00,1.4599
2308.00,1.4562
2307.00,1.4446
2306.00,1.4356
2305.00,1.4248
2304.00,1.4148
2303.00,1.4041
2302.00,1.3937
2301.00,1.3830
2300.00,1.3728
2299.00,1.3628
2298.00,1.3535
2297.00,1.3444
2296.00,1.3361
2295.00,1.3281
2294.00,1.3207
2293.00,1.3138
2292.00,1.3075
2291.00,1.3018
2290.00,1.2968
2289.00,1.2924
2288.00,1.2888
2287.00,1.2862
2286.00,1.2843
2285.00,1.2835
2284.00,1.2837
2283.00,1.2850
2282.00,1.2873
2281.00,1.2905
2280.00,1.2946
2279.00,1.2996
2278.00,1.3055
2277.00,1.3123
2276.00,1.3199
2275.00,1.3280
2274.00,1.3368
2273.00,1.3461
2272.00,1.3561
2271.00,1.3665
2270.00,1.3773
2269.00,1.3886
2268.00,1.4002
2267.00,1.4123
2266.00,1.4250
2265.00,1.4382
2264.00,1.4520
2263.00,1.4663
2262.00,1.4809
2261.00,1.4961
2260.00,1.5117
2259.00,1.5276
2258.00,1.5438
2257.00,1.5602
2256.00,1.5768
2255.00,1.5934
2254.00,1.6101
2253.00,1.6269
2252.00,1.6439
2251.00,1.6611
2250.00,1.6786
2249.00,1.6965
2248.00,1.7146
2247.00,1.7328
2246.00,1.7511
2245.00,1.7693
2244.00,1.7877
2243.00,1.8062
2242.00,1.8249
2241.00,1.8436
2240.00,1.8622
2239.00,1.8804
2238.00,1.8982
2237.00,1.9157
2236.00,1.9332
2235.00,1.9506
2234.00,1.9679
2233.00,1.9850
2232.00,2.0020
2231.00,2.0190
2230.00,2.0358
2229.00,2.0523
2228.00,2.0684
2227.00,2.0843
2226.00,2.1000
2225.00,2.1156
2224.00,2.1310
2223.00,2.1459
2222.00,2.1605
2221.00,2.1749
2220.00,2.1891
2219.00,2.2029
2218.00,2.2163
2217.00,2.2295
2216.00,2.2425
2215.00,2.2555
2214.00,2.2682
2213.00,2.2807
2212.00,2.2929
2211.00,2.3051
2210.00,2.3168
2209.00,2.3279
2208.00,2.3382
2207.00,2.3479
2206.00,2.3579
2205.00,2.3682
2204.00,2.3788
2203.00,2.3891
2202.00,2.3989
2201.00,2.4085
2200.00,2.4180
2199.00,2.4277
2198.00,2.4373
2197.00,2.4467
2196.00,2.4557
2195.00,2.4640
2194.00,2.4719
2193.00,2.4798
2192.00,2.4880
2191.00,2.4965
2190.00,2.5053
2189.00,2.5139
2188.00,2.5218
2187.00,2.5286
2186.00,2.5348
2185.00,2.5415
2184.00,2.5491
2183.00,2.5574
2182.00,2.5656
2181.00,2.5729
2180.00,2.5792
2179.00,2.5851
2178.00,2.5909
2177.00,2.5968
2176.00,2.6025
2175.00,2.6075
2174.00,2.6123
2173.00,2.6175
2172.00,2.6233
2171.00,2.6294
2170.00,2.6356
2169.00,2.6417
2168.00,2.6472
2167.00,2.6516
2166.00,2.6555
2165.00,2.6599
2164.00,2.6652
2163.00,2.6707
2162.00,2.6757
2161.00,2.6803
2160.00,2.6856
2159.00,2.6917
2158.00,2.6979
2157.00,2.7036
2156.00,2.7083
2155.00,2.7124
2154.00,2.7165
2153.00,2.7211
2152.00,2.7261
2151.00,2.7311
2150.00,2.7351
2149.00,2.7379
2148.00,2.7395
2147.00,2.7404
2146.00,2.7419
2145.00,2.7451
2144.00,2.7503
2143.00,2.7562
2142.00,2.7611
2141.00,2.7645
2140.00,2.7675
2139.00,2.7712
2138.00,2.7759
2137.00,2.7809
2136.00,2.7850
2135.00,2.7879
2134.00,2.7891
2133.00,2.7890
2132.00,2.7882
2131.00,2.7879
2130.00,2.7894
2129.00,2.7927
2128.00,2.7964
2127.00,2.7993
2126.00,2.8012
2125.00,2.8028
2124.00,2.8053
2123.00,2.8089
2122.00,2.8136
2121.00,2.8185
2120.00,2.8221
2119.00,2.8237
2118.00,2.8243
2117.00,2.8256
2116.00,2.8278
2115.00,2.8301
2114.00,2.8317
2113.00,2.8327
2112.00,2.8331
2111.00,2.8330
2110.00,2.8336
2109.00,2.8361
2108.00,2.8403
2107.00,2.8441
2106.00,2.8456
2105.00,2.8457
2104.00,2.8460
2103.00,2.8470
2102.00,2.8478
2101.00,2.8483
2100.00,2.8491
2099.00,2.8502
2098.00,2.8506
2097.00,2.8490
2096.00,2.8458
2095.00,2.8430
2094.00,2.8427
2093.00,2.8453
2092.00,2.8489
2091.00,2.8518
2090.00,2.8534
2089.00,2.8545
2088.00,2.8553
2087.00,2.8552
2086.00,2.8540
2085.00,2.8521
2084.00,2.8497
2083.00,2.8469
2082.00,2.8444
2081.00,2.8435
2080.00,2.8443
2079.00,2.8459
2078.00,2.8468
2077.00,2.8463
2076.00,2.8446
2075.00,2.8424
2074.00,2.8410
2073.00,2.8416
2072.00,2.8436
2071.00,2.8451
2070.00,2.8452
2069.00,2.8444
2068.00,2.8438
2067.00,2.8436
2066.00,2.8432
2065.00,2.8418
2064.00,2.8397
2063.00,2.8372
2062.00,2.8349
2061.00,2.8328
2060.00,2.8305
2059.00,2.8275
2058.00,2.8244
2057.00,2.8219
2056.00,2.8204
2055.00,2.8190
2054.00,2.8169
2053.00,2.8139
2052.00,2.8104
2051.00,2.8068
2050.00,2.8038
2049.00,2.8022
2048.00,2.8012
2047.00,2.7990
2046.00,2.7947
2045.00,2.7893
2044.00,2.7843
2043.00,2.7799
2042.00,2.7761
2041.00,2.7729
2040.00,2.7701
2039.00,2.7675
2038.00,2.7650
2037.00,2.7623
2036.00,2.7594
2035.00,2.7559
2034.00,2.7524
2033.00,2.7491
2032.00,2.7455
2031.00,2.7407
2030.00,2.7349
2029.00,2.7291
2028.00,2.7238
2027.00,2.7185
2026.00,2.7134
2025.00,2.7092
2024.00,2.7054
2023.00,2.7007
2022.00,2.6945
2021.00,2.6882
2020.00,2.6827
2019.00,2.6773
2018.00,2.6713
2017.00,2.6651
2016.00,2.6600
2015.00,2.6558
2014.00,2.6514
2013.00,2.6458
2012.00,2.6389
2011.00,2.6306
2010.00,2.6215
2009.00,2.6128
2008.00,2.6048
2007.00,2.5975
2006.00,2.5907
2005.00,2.5846
2004.00,2.5788
2003.00,2.5723
2002.00,2.5642
2001.00,2.5550
2000.00,2.5458
1999.00,2.5370
1998.00,2.5280
1997.00,2.5187
1996.00,2.5091
1995.00,2.4992
1994.00,2.4887
1993.00,2.4782
1992.00,2.4678
1991.00,2.4574
1990.00,2.4467
1989.00,2.4354
1988.00,2.4237
1987.00,2.4115
1986.00,2.3991
1985.00,2.3869
1984.00,2.3753
1983.00,2.3639
1982.00,2.3525
1981.00,2.3407
1980.00,2.3286
1979.00,2.3160
1978.00,2.3030
1977.00,2.2898
1976.00,2.2766
1975.00,2.2630
1974.00,2.2489
1973.00,2.2344
1972.00,2.2200
1971.00,2.2052
1970.00,2.1893
1969.00,2.1722
1968.00,2.1542
1967.00,2.1358
1966.00,2.1173
1965.00,2.0987
1964.00,2.0798
1963.00,2.0605
1962.00,2.0409
1961.00,2.0211
1960.00,2.0009
1959.00,1.9803
1958.00,1.9591
1957.00,1.9380
1956.00,1.9172
1955.00,1.8968
1954.00,1.8766
1953.00,1.8567
1952.00,1.8370
1951.00,1.8175
1950.00,1.7983
1949.00,1.7796
1948.00,1.7612
1947.00,1.7433
1946.00,1.7256
1945.00,1.7078
1944.00,1.6897
1943.00,1.6718
1942.00,1.6550
1941.00,1.6392
1940.00,1.6235
1939.00,1.6073
1938.00,1.5913
1937.00,1.5761
1936.00,1.5619
1935.00,1.5480
1934.00,1.5346
1933.00,1.5221
1932.00,1.5107
1931.00,1.5002
1930.00,1.4907
1929.00,1.4822
1928.00,1.4749
1927.00,1.4689
1926.00,1.4639
1925.00,1.4599
1924.00,1.4570
1923.00,1.4561
1922.00,1.4572
1921.00,1.4596
1920.00,1.4621
1919.00,1.4652
1918.00,1.4705
1917.00,1.4786
1916.00,1.4884
1915.00,1.4991
1914.00,1.5107
1913.00,1.5239
1912.00,1.5379
1911.00,1.5517
1910.00,1.5655
1909.00,1.5800
1908.00,1.5954
1907.00,1.6114
1906.00,1.6278
1905.00,1.6451
1904.00,1.6631
1903.00,1.6815
1902.00,1.7003
1901.00,1.7196
1900.00,1.7394
1899.00,1.7597
1898.00,1.7803
1897.00,1.8010
1896.00,1.8221
1895.00,1.8441
1894.00,1.8670
1893.00,1.8903
1892.00,1.9130
1891.00,1.9352
1890.00,1.9585
1889.00,1.9837
1888.00,2.0096
1887.00,2.0348
1886.00,2.0589
1885.00,2.0829
1884.00,2.1070
1883.00,2.1307
1882.00,2.1539
1881.00,2.1767
1880.00,2.1992
1879.00,2.2213
1878.00,2.2425
1877.00,2.2632
1876.00,2.2833
1875.00,2.3026
1874.00,2.3213
1873.00,2.3388
1872.00,2.3545
1871.00,2.3680
1870.00,2.3803
1869.00,2.3932
1868.00,2.4078
1867.00,2.4235
1866.00,2.4391
1865.00,2.4543
1864.00,2.4694
1863.00,2.4851
1862.00,2.5017
1861.00,2.5188
1860.00,2.5354
1859.00,2.5506
1858.00,2.5645
1857.00,2.5779
1856.00,2.5916
1855.00,2.6055
1854.00,2.6189
1853.00,2.6313
1852.00,2.6435
1851.00,2.6562
1850.00,2.6689
1849.00,2.6811
1848.00,2.6922
1847.00,2.7014
1846.00,2.7077
1845.00,2.7116
1844.00,2.7158
1843.00,2.7238
1842.00,2.7365
1841.00,2.7524
1840.00,2.7694
1839.00,2.7859
1838.00,2.8006
1837.00,2.8126
1836.00,2.8215
1835.00,2.8284
1834.00,2.8347
1833.00,2.8410
1832.00,2.8472
1831.00,2.8527
1830.00,2.8582
1829.00,2.8649
1828.00,2.8729
1827.00,2.8814
1826.00,2.8903
1825.00,2.9003
1824.00,2.9114
1823.00,2.9224
1822.00,2.9316
1821.00,2.9384
1820.00,2.9439
1819.00,2.9506
1818.00,2.9602
1817.00,2.9718
1816.00,2.9830
1815.00,2.9927
1814.00,3.0000
1813.00,3.0046
1812.00,3.0074
1811.00,3.0107
1810.00,3.0165
1809.00,3.0227
1808.00,3.0257
1807.00,3.0252
1806.00,3.0250
1805.00,3.0281
1804.00,3.0341
1803.00,3.0403
1802.00,3.0440
1801.00,3.0442
1800.00,3.0423
1799.00,3.0409
1798.00,3.0428
1797.00,3.0483
1796.00,3.0554
1795.00,3.0610
1794.00,3.0634
1793.00,3.0624
1792.00,3.0601
1791.00,3.0595
1790.00,3.0634
1789.00,3.0718
1788.00,3.0823
1787.00,3.0914
1786.00,3.0975
1785.00,3.1014
1784.00,3.1042
1783.00,3.1055
1782.00,3.1046
1781.00,3.1031
1780.00,3.1037
1779.00,3.1073
1778.00,3.1141
1777.00,3.1229
1776.00,3.1313
1775.00,3.1353
1774.00,3.1317
1773.00,3.1221
1772.00,3.1113
1771.00,3.1040
1770.00,3.1026
1769.00,3.1074
1768.00,3.1165
1767.00,3.1260
1766.00,3.1317
1765.00,3.1323
1764.00,3.1289
1763.00,3.1241
1762.00,3.1206
1761.00,3.1207
1760.00,3.1222
1759.00,3.1206
1758.00,3.1141
1757.00,3.1064
1756.00,3.1030
1755.00,3.1025
1754.00,3.0987
1753.00,3.0887
1752.00,3.0761
1751.00,3.0655
1750.00,3.0572
1749.00,3.0479
1748.00,3.0364
1747.00,3.0250
1746.00,3.0139
1745.00,3.0019
1744.00,2.9873
1743.00,2.9685
1742.00,2.9434
1741.00,2.9100
1740.00,2.8704
1739.00,2.8306
1738.00,2.7952
1737.00,2.7625
1736.00,2.7301
1735.00,2.7004
1734.00,2.6846
1733.00,2.6950
1732.00,2.7352
1731.00,2.8048
1730.00,2.9038
1729.00,3.0276
1728.00,3.1700
1727.00,3.3287
1726.00,3.5061
1725.00,3.7006
1724.00,3.8953
1723.00,4.0781
1722.00,4.2730
1721.00,4.4980
1720.00,4.7251
1719.00,5.0176
1718.00,5.2894
1717.00,4.9643
1716.00,4.7098
1715.00,4.6014
1714.00,4.5910
1713.00,4.6727
1712.00,4.8404
1711.00,5.0998
1710.00,5.1994
1709.00,5.2513
1708.00,5.3525
1707.00,5.0404
1706.00,4.8576
1705.00,4.8240
1704.00,4.6350
1703.00,4.3591
1702.00,4.0985
1701.00,3.8053
1700.00,3.5249
1699.00,3.3083
1698.00,3.1416
1697.00,2.9971
1696.00,2.8676
1695.00,2.7668
1694.00,2.7059
1693.00,2.6807
1692.00,2.6822
1691.00,2.7024
1690.00,2.7344
1689.00,2.7732
1688.00,2.8131
1687.00,2.8467
1686.00,2.8701
1685.00,2.8876
1684.00,2.9098
1683.00,2.9425
1682.00,2.9795
1681.00,3.0154
1680.00,3.0495
1679.00,3.0790
1678.00,3.0996
1677.00,3.1103
1676.00,3.1140
1675.00,3.1149
1674.00,3.1148
1673.00,3.1139
1672.00,3.1139
1671.00,3.1166
1670.00,3.1206
1669.00,3.1243
1668.00,3.1296
1667.00,3.1390
1666.00,3.1509
1665.00,3.1617
1664.00,3.1654
1663.00,3.1671
1662.00,3.1643
1661.00,3.1764
1660.00,3.1926
1659.00,3.1930
1658.00,3.1978
1657.00,3.1997
1656.00,3.2046
1655.00,3.2107
1654.00,3.2172
1653.00,3.2202
1652.00,3.2188
1651.00,3.2160
1650.00,3.2131
1649.00,3.2110
1648.00,3.2060
1647.00,3.2032
1646.00,3.1937
1645.00,3.1969
1644.00,3.1736
1643.00,3.1569
1642.00,3.1783
1641.00,3.1851
1640.00,3.1928
1639.00,3.1905
1638.00,3.1840
1637.00,3.1724
1636.00,3.1613
1635.00,3.1540
1634.00,3.1505
1633.00,3.1491
1632.00,3.1508
1631.00,3.1564
1630.00,3.1626
1629.00,3.1663
1628.00,3.1666
1627.00,3.1634
1626.00,3.1560
1625.00,3.1442
1624.00,3.1300
1623.00,3.1170
1622.00,3.1079
1621.00,3.1028
1620.00,3.1003
1619.00,3.0973
1618.00,3.0901
1617.00,3.0780
1616.00,3.0656
1615.00,3.0597
1614.00,3.0629
1613.00,3.0722
1612.00,3.0808
1611.00,3.0833
1610.00,3.0786
1609.00,3.0702
1608.00,3.0628
1607.00,3.0591
1606.00,3.0583
1605.00,3.0580
1604.00,3.0555
1603.00,3.0474
1602.00,3.0339
1601.00,3.0186
1600.00,3.0056
1599.00,2.9966
1598.00,2.9905
1597.00,2.9857
1596.00,2.9809
1595.00,2.9750
1594.00,2.9675
1593.00,2.9589
1592.00,2.9502
1591.00,2.9408
1590.00,2.9301
1589.00,2.9189
1588.00,2.9094
1587.00,2.9022
1586.00,2.8961
1585.00,2.8894
1584.00,2.8819
1583.00,2.8733
1582.00,2.8631
1581.00,2.8520
1580.00,2.8413
1579.00,2.8271
1578.00,2.8095
1577.00,2.7806
1576.00,2.7568
1575.00,2.7261
1574.00,2.7423
1573.00,2.7598
1572.00,2.7396
1571.00,2.7315
1570.00,2.7126
1569.00,2.6946
1568.00,2.6754
1567.00,2.6593
1566.00,2.6436
1565.00,2.6269
1564.00,2.6090
1563.00,2.5907
1562.00,2.5717
1561.00,2.5507
1560.00,2.5262
1559.00,2.4980
1558.00,2.4700
1557.00,2.4464
1556.00,2.4264
1555.00,2.4066
1554.00,2.3850
1553.00,2.3620
1552.00,2.3390
1551.00,2.3161
1550.00,2.2926
1549.00,2.2684
1548.00,2.2439
1547.00,2.2188
1546.00,2.1924
1545.00,2.1650
1544.00,2.1381
1543.00,2.1112
1542.00,2.0868
1541.00,2.0570
1540.00,2.0342
1539.00,1.9994
1538.00,1.9921
1537.00,1.9256
1536.00,1.8868
1535.00,1.8992
1534.00,1.8844
1533.00,1.8775
1532.00,1.8678
1531.00,1.8653
1530.00,1.8652
1529.00,1.8676
1528.00,1.8707
1527.00,1.8750
1526.00,1.8818
1525.00,1.8910
1524.00,1.8998
1523.00,1.9052
1522.00,1.9074
1521.00,1.9092
1520.00,1.9122
1519.00,1.9151
1518.00,1.9166
1517.00,1.9170
1516.00,1.9166
1515.00,1.9156
1514.00,1.9146
1513.00,1.9154
1512.00,1.9191
1511.00,1.9250
1510.00,1.9310
1509.00,1.9347
1508.00,1.9361
1507.00,1.9382
1506.00,1.9491
1505.00,1.9711
1504.00,2.0078
1503.00,2.0450
1502.00,2.1052
1501.00,2.1502
1500.00,2.1717
1499.00,2.2004
1498.00,2.2324
1497.00,2.2420
1496.00,2.2555
1495.00,2.2961
1494.00,2.3307
1493.00,2.3693
1492.00,2.4017
1491.00,2.4332
1490.00,2.4636
1489.00,2.4943
1488.00,2.5225
1487.00,2.5479
1486.00,2.5718
1485.00,2.5948
1484.00,2.6173
1483.00,2.6403
1482.00,2.6651
1481.00,2.6910
1480.00,2.7139
1479.00,2.7317
1478.00,2.7471
1477.00,2.7638
1476.00,2.7815
1475.00,2.7976
1474.00,2.8122
1473.00,2.8305
1472.00,2.8577
1471.00,2.8934
1470.00,2.9336
1469.00,2.9729
1468.00,3.0067
1467.00,3.0337
1466.00,3.0558
1465.00,3.0743
1464.00,3.0880
1463.00,3.0970
1462.00,3.1069
1461.00,3.1211
1460.00,3.1372
1459.00,3.1511
1458.00,3.1643
1457.00,3.1843
1456.00,3.2164
1455.00,3.2590
1454.00,3.3080
1453.00,3.3586
1452.00,3.3984
1451.00,3.4147
1450.00,3.4030
1449.00,3.3614
1448.00,3.2905
1447.00,3.2038
1446.00,3.1209
1445.00,3.0552
1444.00,3.0110
1443.00,2.9891
1442.00,2.9885
1441.00,3.0045
1440.00,3.0288
1439.00,3.0541
1438.00,3.0798
1437.00,3.1090
1436.00,3.1418
1435.00,3.1733
1434.00,3.2011
1433.00,3.2281
1432.00,3.2542
1431.00,3.2739
1430.00,3.2816
1429.00,3.2775
1428.00,3.2691
1427.00,3.2642
1426.00,3.2647
1425.00,3.2672
1424.00,3.2664
1423.00,3.2596
1422.00,3.2464
1421.00,3.2240
1420.00,3.1907
1419.00,3.1521
1418.00,3.1189
1417.00,3.0971
1416.00,3.0858
1415.00,3.0824
1414.00,3.0846
1413.00,3.0908
1412.00,3.0995
1411.00,3.1104
1410.00,3.1223
1409.00,3.1328
1408.00,3.1412
1407.00,3.1508
1406.00,3.1653
1405.00,3.1842
1404.00,3.2028
1403.00,3.2174
1402.00,3.2283
1401.00,3.2366
1400.00,3.2435
1399.00,3.2510
1398.00,3.2604
1397.00,3.2691
1396.00,3.2743
1395.00,3.2785
1394.00,3.2854
1393.00,3.2948
1392.00,3.3036
1391.00,3.3127
1390.00,3.3251
1389.00,3.3401
1388.00,3.3531
1387.00,3.3619
1386.00,3.3683
1385.00,3.3737
1384.00,3.3773
1383.00,3.3807
1382.00,3.3880
1381.00,3.4014
1380.00,3.4193
1379.00,3.4395
1378.00,3.4569
1377.00,3.4627
1376.00,3.4532
1375.00,3.4390
1374.00,3.4344
1373.00,3.4414
1372.00,3.4523
1371.00,3.4649
1370.00,3.4840
1369.00,3.5057
1368.00,3.5146
1367.00,3.5047
1366.00,3.4900
1365.00,3.4852
1364.00,3.4900
1363.00,3.4966
1362.00,3.5028
1361.00,3.5100
1360.00,3.5165
1359.00,3.5210
1358.00,3.5268
1357.00,3.5381
1356.00,3.5536
1355.00,3.5671
1354.00,3.5727
1353.00,3.5697
1352.00,3.5635
1351.00,3.5652
1350.00,3.5837
1349.00,3.6163
1348.00,3.6452
1347.00,3.6528
1346.00,3.6417
1345.00,3.6301
1344.00,3.6305
1343.00,3.6430
1342.00,3.6611
1341.00,3.6781
1340.00,3.6899
1339.00,3.6947
1338.00,3.6888
1337.00,3.6672
1336.00,3.6339
1335.00,3.6029
1334.00,3.5871
1333.00,3.5865
1332.00,3.5918
1331.00,3.5950
1330.00,3.5956
1329.00,3.5960
1328.00,3.5950
1327.00,3.5913
1326.00,3.5876
1325.00,3.5879
1324.00,3.5930
1323.00,3.6009
1322.00,3.6080
1321.00,3.6089
1320.00,3.6021
1319.00,3.5968
1318.00,3.6061
1317.00,3.6333
1316.00,3.6697
1315.00,3.7062
1314.00,3.7424
1313.00,3.7779
1312.00,3.8012
1311.00,3.8009
1310.00,3.7819
1309.00,3.7578
1308.00,3.7350
1307.00,3.7113
1306.00,3.6824
1305.00,3.6490
1304.00,3.6175
1303.00,3.5974
1302.00,3.5937
1301.00,3.6009
1300.00,3.6056
1299.00,3.6011
1298.00,3.5930
1297.00,3.5894
1296.00,3.5888
1295.00,3.5843
1294.00,3.5728
1293.00,3.5579
1292.00,3.5458
1291.00,3.5430
1290.00,3.5545
1289.00,3.5794
1288.00,3.6091
1287.00,3.6324
1286.00,3.6414
1285.00,3.6348
1284.00,3.6160
1283.00,3.5945
1282.00,3.5840
1281.00,3.5902
1280.00,3.6048
1279.00,3.6127
1278.00,3.6066
1277.00,3.5906
1276.00,3.5743
1275.00,3.5646
1274.00,3.5627
1273.00,3.5648
1272.00,3.5655
1271.00,3.5617
1270.00,3.5583
1269.00,3.5623
1268.00,3.5737
1267.00,3.5868
1266.00,3.5973
1265.00,3.6026
1264.00,3.5996
1263.00,3.5879
1262.00,3.5731
1261.00,3.5635
1260.00,3.5641
1259.00,3.5746
1258.00,3.5885
1257.00,3.5939
1256.00,3.5811
1255.00,3.5533
1254.00,3.5242
1253.00,3.5060
1252.00,3.5008
1251.00,3.5016
1250.00,3.5010
1249.00,3.4959
1248.00,3.4878
1247.00,3.4812
1246.00,3.4779
1245.00,3.4742
1244.00,3.4675
1243.00,3.4601
1242.00,3.4564
1241.00,3.4566
1240.00,3.4561
1239.00,3.4521
1238.00,3.4475
1237.00,3.4463
1236.00,3.4471
1235.00,3.4435
1234.00,3.4301
1233.00,3.4078
1232.00,3.3825
1231.00,3.3634
1230.00,3.3591
1229.00,3.3742
1228.00,3.4083
1227.00,3.4586
1226.00,3.5229
1225.00,3.5981
1224.00,3.6771
1223.00,3.7475
1222.00,3.7965
1221.00,3.8183
1220.00,3.8188
1219.00,3.8111
1218.00,3.8104
1217.00,3.8230
1216.00,3.8372
1215.00,3.8273
1214.00,3.7844
1213.00,3.7277
1212.00,3.6790
1211.00,3.6441
1210.00,3.6187
1209.00,3.6007
1208.00,3.5904
1207.00,3.5833
1206.00,3.5694
1205.00,3.5428
1204.00,3.5082
1203.00,3.4771
1202.00,3.4575
1201.00,3.4471
1200.00,3.4388
1199.00,3.4290
1198.00,3.4194
1197.00,3.4108
1196.00,3.3989
1195.00,3.3778
1194.00,3.3489
1193.00,3.3217
1192.00,3.3029
1191.00,3.2909
1190.00,3.2811
1189.00,3.2721
1188.00,3.2663
1187.00,3.2629
1186.00,3.2564
1185.00,3.2415
1184.00,3.2197
1183.00,3.1968
1182.00,3.1765
1181.00,3.1584
1180.00,3.1419
1179.00,3.1273
1178.00,3.1136
1177.00,3.0973
1176.00,3.0771
1175.00,3.0557
1174.00,3.0371
1173.00,3.0220
1172.00,3.0080
1171.00,2.9930
1170.00,2.9753
1169.00,2.9533
1168.00,2.9261
1167.00,2.8958
1166.00,2.8665
1165.00,2.8409
1164.00,2.8180
1163.00,2.7945
1162.00,2.7681
1161.00,2.7394
1160.00,2.7114
1159.00,2.6872
1158.00,2.6669
1157.00,2.6473
1156.00,2.6250
1155.00,2.5996
1154.00,2.5739
1153.00,2.5504
1152.00,2.5297
1151.00,2.5119
1150.00,2.4970
1149.00,2.4852
1148.00,2.4760
1147.00,2.4696
1146.00,2.4670
1145.00,2.4699
1144.00,2.4788
1143.00,2.4922
1142.00,2.5086
1141.00,2.5271
1140.00,2.5483
1139.00,2.5733
1138.00,2.6033
1137.00,2.6405
1136.00,2.6869
1135.00,2.7419
1134.00,2.8011
1133.00,2.8591
1132.00,2.9144
1131.00,2.9716
1130.00,3.0360
1129.00,3.1079
1128.00,3.1827
1127.00,3.2566
1126.00,3.3338
1125.00,3.4216
1124.00,3.5226
1123.00,3.6335
1122.00,3.7410
1121.00,3.8218
1120.00,3.8598
1119.00,3.8612
1118.00,3.8306
1117.00,3.7531
1116.00,3.6400
1115.00,3.5228
1114.00,3.4189
1113.00,3.3273
1112.00,3.2412
1111.00,3.1589
1110.00,3.0836
1109.00,3.0184
1108.00,2.9655
1107.00,2.9274
1106.00,2.9064
1105.00,2.9016
1104.00,2.9087
1103.00,2.9226
1102.00,2.9415
1101.00,2.9672
1100.00,3.0017
1099.00,3.0426
1098.00,3.0829
1097.00,3.1176
1096.00,3.1492
1095.00,3.1853
1094.00,3.2300
1093.00,3.2793
1092.00,3.3249
1091.00,3.3607
1090.00,3.3869
1089.00,3.4069
1088.00,3.4249
1087.00,3.4458
1086.00,3.4714
1085.00,3.4983
1084.00,3.5212
1083.00,3.5380
1082.00,3.5500
1081.00,3.5593
1080.00,3.5642
1079.00,3.5627
1078.00,3.5614
1077.00,3.5710
1076.00,3.5982
1075.00,3.6426
1074.00,3.6908
1073.00,3.7189
1072.00,3.7167
1071.00,3.7081
1070.00,3.7233
1069.00,3.7646
1068.00,3.8050
1067.00,3.8103
1066.00,3.7711
1065.00,3.7170
1064.00,3.6911
1063.00,3.7149
1062.00,3.7820
1061.00,3.8551
1060.00,3.8868
1059.00,3.8720
1058.00,3.8419
1057.00,3.8226
1056.00,3.8105
1055.00,3.7942
1054.00,3.7843
1053.00,3.8027
1052.00,3.8617
1051.00,3.9481
1050.00,4.0047
1049.00,3.9796
1048.00,3.9165
1047.00,3.8906
1046.00,3.9295
1045.00,4.0089
1044.00,4.0570
1043.00,4.0179
1042.00,3.9364
1041.00,3.8865
1040.00,3.9109
1039.00,4.0208
1038.00,4.1596
1037.00,4.1755
1036.00,4.0680
1035.00,3.9942
1034.00,4.0037
1033.00,4.0346
1032.00,3.9996
1031.00,3.9277
1030.00,3.8948
1029.00,3.9157
1028.00,3.9605
1027.00,4.0123
1026.00,4.0848
1025.00,4.1790
1024.00,4.2497
1023.00,4.2590
1022.00,4.2766
1021.00,4.3415
1020.00,4.3912
1019.00,4.3834
1018.00,4.3720
1017.00,4.4061
1016.00,4.4426
1015.00,4.3970
1014.00,4.2817
1013.00,4.1846
1012.00,4.1476
1011.00,4.1803
1010.00,4.2903
1009.00,4.4524
1008.00,4.5511
1007.00,4.4314
1006.00,4.2342
1005.00,4.1328
1004.00,4.1436
1003.00,4.2239
1002.00,4.3608
1001.00,4.6477
1000.00,4.9674
999.00,5.1327
998.00,5.4813
997.00,5.1680
996.00,4.6131
995.00,4.3545
994.00,4.2762
993.00,4.3287
992.00,4.5403
991.00,4.9110
990.00,4.8467
989.00,5.4308
988.00,4.4076
987.00,4.1357
986.00,4.0631
985.00,4.1278
984.00,4.2877
983.00,4.4061
982.00,4.4379
981.00,4.5035
980.00,4.5649
979.00,4.6587
978.00,4.8786
977.00,4.7040
976.00,4.5234
975.00,4.6242
974.00,5.4468
973.00,4.5251
972.00,4.4142
971.00,4.5364
970.00,4.5741
969.00,4.3764
968.00,4.2857
967.00,4.3148
966.00,4.4437
965.00,4.6053
964.00,4.6358
963.00,4.5467
962.00,4.4379
961.00,4.3418
960.00,4.2857
959.00,4.2783
958.00,4.2621
957.00,4.2064
956.00,4.1999
955.00,4.3032
954.00,4.3992
953.00,4.2845
952.00,4.2186
951.00,4.2717
950.00,4.4178
949.00,4.5984
948.00,4.6961
947.00,4.5783
946.00,4.3560
945.00,4.2190
944.00,4.2060
943.00,4.3260
942.00,4.5941
941.00,4.8132
940.00,4.5840
939.00,4.4644
938.00,4.4319
937.00,4.3908
936.00,4.3706
935.00,4.4244
934.00,4.5192
933.00,4.4099
932.00,4.2669
931.00,4.2428
930.00,4.2307
929.00,4.1401
928.00,4.0758
927.00,4.0750
926.00,4.0959
925.00,4.0876
924.00,4.0582
923.00,4.0544
922.00,4.0970
921.00,4.1662
920.00,4.2125
919.00,4.1912
918.00,4.1221
917.00,4.0635
916.00,4.0339
915.00,4.0241
914.00,4.0349
913.00,4.0765
912.00,4.1468
911.00,4.2162
910.00,4.2316
909.00,4.1758
908.00,4.0985
907.00,4.0557
906.00,4.0776
905.00,4.1734
904.00,4.3271
903.00,4.4549
902.00,4.3436
901.00,4.1248
900.00,4.0158
899.00,4.0483
898.00,4.2350
897.00,4.5717
896.00,4.6997
895.00,4.4276
894.00,4.2177
893.00,4.1265
892.00,4.1323
891.00,4.1972
890.00,4.2347
889.00,4.2052
888.00,4.1703
887.00,4.1310
886.00,4.0693
885.00,4.0122
884.00,3.9811
883.00,3.9739
882.00,3.9751
881.00,3.9740
880.00,3.9834
879.00,4.0148
878.00,4.0483
877.00,4.0396
876.00,3.9775
875.00,3.9108
874.00,3.8872
873.00,3.9277
872.00,4.0402
871.00,4.2216
870.00,4.3871
869.00,4.3545
868.00,4.2203
867.00,4.1345
866.00,4.1252
865.00,4.1678
864.00,4.2268
863.00,4.2952
862.00,4.3711
861.00,4.4013
860.00,4.3392
859.00,4.2416
858.00,4.1785
857.00,4.1466
856.00,4.1212
855.00,4.0905
854.00,4.0379
853.00,4.0020
852.00,4.0294
851.00,4.1035
850.00,4.1645
849.00,4.2017
848.00,4.2201
847.00,4.1353
846.00,4.0072
845.00,3.9524
844.00,4.0466
843.00,4.3761
842.00,4.4439
841.00,4.2105
840.00,4.1825
839.00,4.2642
838.00,4.3948
837.00,4.5552
836.00,4.6361
835.00,4.4384
834.00,4.2200
833.00,4.1091
832.00,4.0939
831.00,4.1378
830.00,4.2138
829.00,4.3485
828.00,4.5086
827.00,4.4392
826.00,4.2717
825.00,4.2182
824.00,4.3031
823.00,4.3457
822.00,4.2242
821.00,4.2508
820.00,4.5869
819.00,5.2136
818.00,4.9484
817.00,4.5529
816.00,4.3193
815.00,4.3540
814.00,4.4874
813.00,4.4149
812.00,4.4116
811.00,4.4930
810.00,4.3501
809.00,4.1508
808.00,4.0515
807.00,4.0356
806.00,4.0710
805.00,4.1159
804.00,4.1038
803.00,4.0282
802.00,3.9546
801.00,3.9209
800.00,3.9393
799.00,4.0094
798.00,4.1003
797.00,4.1163
796.00,4.0441
795.00,3.9870
794.00,3.9830
793.00,4.0358
792.00,4.1134
791.00,4.0702
790.00,3.9226
789.00,3.8191
788.00,3.7792
787.00,3.7711
786.00,3.7670
785.00,3.7653
784.00,3.7980
783.00,3.8967
782.00,4.1049
781.00,4.4658
780.00,4.4162
779.00,4.1451
778.00,4.0521
777.00,4.0472
776.00,4.0559
775.00,4.0064
774.00,3.9694
773.00,4.0224
772.00,4.2992
771.00,4.8966
770.00,4.8202
769.00,4.9370
768.00,4.3233
767.00,4.0830
766.00,4.0196
765.00,4.0016
764.00,4.0229
763.00,4.0195
762.00,3.9415
761.00,3.8325
760.00,3.7777
759.00,3.7898
758.00,3.8526
757.00,3.9440
756.00,4.0548
755.00,4.1858
754.00,4.2901
753.00,4.3215
752.00,4.2242
751.00,4.0313
750.00,3.9148
749.00,3.9146
748.00,4.0244
747.00,4.2266
746.00,4.5036
745.00,4.7327
744.00,4.9180
743.00,5.2336
742.00,4.5906
741.00,4.2329
740.00,4.0586
739.00,3.9943
738.00,4.0264
737.00,4.1184
736.00,4.1771
735.00,4.0912
734.00,3.9773
733.00,3.9451
732.00,4.0075
731.00,4.0993
730.00,4.2020
729.00,4.2817
728.00,4.1811
727.00,4.1557
726.00,4.2362
725.00,4.1419
724.00,3.9851
723.00,3.8954
722.00,3.8681
721.00,3.9268
720.00,4.0745
719.00,4.2010
718.00,4.2453
717.00,4.5344
716.00,4.7737
715.00,4.2672
714.00,4.1637
713.00,4.2646
712.00,4.3534
711.00,4.2557
710.00,4.0858
709.00,4.0072
708.00,4.0029
707.00,4.0121
706.00,3.9951
705.00,3.9954
704.00,4.0764
703.00,4.2404
702.00,4.3210
701.00,4.1989
700.00,4.0300
699.00,3.9231
698.00,3.9153
697.00,4.0303
696.00,4.2649
695.00,4.5907
694.00,4.9182
693.00,4.7306
692.00,4.4868
691.00,4.3098
690.00,4.1377
689.00,3.9865
688.00,3.8798
687.00,3.8295
686.00,3.8318
685.00,3.8873
684.00,4.0007
683.00,4.1541
682.00,4.3440
681.00,4.6594
680.00,4.6003
679.00,4.2368
678.00,4.0581
677.00,3.9981
676.00,4.0211
675.00,4.1192
674.00,4.2320
673.00,4.1753
672.00,4.0112
671.00,3.9201
670.00,3.9282
669.00,4.0519
668.00,4.3107
667.00,4.3717
666.00,4.1641
665.00,4.0331
664.00,3.9228
663.00,3.8270
662.00,3.7811
661.00,3.7796
660.00,3.7831
659.00,3.7730
658.00,3.7914
657.00,3.8823
656.00,4.0366
655.00,4.2217
654.00,4.4938
653.00,4.7356
652.00,4.5855
651.00,4.2852
650.00,4.0408
649.00,3.9265
648.00,3.9261
647.00,3.9763
646.00,3.9753
645.00,3.9028
644.00,3.8620
643.00,3.9156
642.00,3.9726
641.00,3.9643
640.00,3.9931
639.00,3.9509
638.00,3.8330
637.00,3.7976
636.00,3.8178
635.00,3.8126
634.00,3.7906
633.00,3.7805
632.00,3.7565
631.00,3.6889
630.00,3.5946
629.00,3.5122
628.00,3.4673
627.00,3.4730
626.00,3.5424
625.00,3.6814
624.00,3.8276
623.00,3.8502
622.00,3.7812
621.00,3.7438
620.00,3.7703
619.00,3.8417
618.00,3.8973
617.00,3.8086
616.00,3.6805
615.00,3.6433
614.00,3.6927
613.00,3.7812
612.00,3.8019
611.00,3.7337
610.00,3.6968
609.00,3.7375
608.00,3.7991
607.00,3.8493
606.00,3.9401
605.00,3.9999
604.00,3.9777
603.00,3.9612
602.00,3.9253
601.00,3.8601
600.00,3.8040
599.00,3.7786
598.00,3.8009
597.00,3.9077
596.00,4.1466
595.00,4.5005
594.00,4.6856
593.00,4.4387
592.00,4.1839
591.00,4.0294
590.00,3.9238
589.00,3.8650
588.00,3.8573
587.00,3.8614
586.00,3.8439
585.00,3.8496
584.00,3.9339
583.00,4.0928
582.00,4.2170
581.00,4.1784
580.00,4.0775
579.00,3.9729
578.00,3.8629
577.00,3.7889
576.00,3.7588
575.00,3.7638
574.00,3.8126
573.00,3.8995
572.00,3.9049
571.00,3.8046
570.00,3.7463
569.00,3.7957
568.00,3.9358
567.00,4.1741
566.00,4.6984
565.00,4.5193
564.00,4.0486
563.00,3.8381
562.00,3.7234
561.00,3.6712
560.00,3.6443
559.00,3.6193
558.00,3.5886
557.00,3.5547
556.00,3.5311
555.00,3.5184
554.00,3.5249
553.00,3.5555
552.00,3.5794
551.00,3.5841
550.00,3.5986
549.00,3.6283
548.00,3.6506
547.00,3.6481
546.00,3.6318
545.00,3.6268
544.00,3.6663
543.00,3.7430
542.00,3.7796
541.00,3.7754
540.00,3.8400
539.00,4.0193
538.00,4.1278
537.00,4.1454
536.00,4.0783
535.00,3.8809
534.00,3.8148
533.00,3.8985
532.00,4.0714
531.00,4.2408
530.00,4.2877
529.00,4.2674
528.00,4.1718
527.00,3.9719
526.00,3.7378
525.00,3.5592
524.00,3.4669
523.00,3.4627
522.00,3.5106
521.00,3.5703
520.00,3.5475
519.00,3.4052
518.00,3.3074
517.00,3.3155
516.00,3.4175
515.00,3.5792
514.00,3.7034
513.00,3.7220
512.00,3.7177
511.00,3.7044
510.00,3.6413
509.00,3.5753
508.00,3.4773
507.00,3.3675
506.00,3.3003
505.00,3.2577
504.00,3.2350
503.00,3.2485
502.00,3.3007
501.00,3.3675
500.00,3.3970
499.00,3.4179
498.00,3.4689
497.00,3.4685
496.00,3.4115
495.00,3.3910
494.00,3.4109
493.00,3.4409
492.00,3.4618
491.00,3.4388
490.00,3.3826
489.00,3.3313
488.00,3.3050
487.00,3.2980
486.00,3.2824
485.00,3.2422
484.00,3.2168
483.00,3.2280
482.00,3.3041
481.00,3.4386
480.00,3.7283
479.00,4.3448
478.00,4.0063
477.00,3.8959
476.00,3.8170
475.00,3.5244
474.00,3.3460
473.00,3.3007
472.00,3.4050
471.00,3.6169
470.00,3.6964
469.00,3.4406
468.00,3.2231
467.00,3.1576
466.00,3.1965
465.00,3.2524
464.00,3.2641
463.00,3.2437
462.00,3.2279
461.00,3.2597
460.00,3.4145
459.00,3.6891
458.00,3.6701
457.00,3.4840
456.00,3.3844
455.00,3.3378
454.00,3.2912
453.00,3.2106
452.00,3.1294
451.00,3.0734
450.00,3.0606
449.00,3.0776
448.00,3.0841
447.00,3.0867
446.00,3.1068
445.00,3.1149
444.00,3.0933
443.00,3.0807
442.00,3.1222
441.00,3.2530
440.00,3.4413
439.00,3.5342
438.00,3.4780
437.00,3.3547
436.00,3.2537
435.00,3.2044
434.00,3.1776
433.00,3.2152
432.00,3.3957
431.00,3.3901
430.00,3.1506
429.00,3.0479
428.00,3.0326
427.00,3.0488
426.00,3.0801
425.00,3.0972
424.00,3.0851
423.00,3.0519
422.00,3.0323
421.00,3.0323
420.00,2.9998
419.00,2.9134
418.00,2.8305
417.00,2.7709
416.00,2.7219
415.00,2.6780
414.00,2.6705
413.00,2.7312
412.00,2.9065
411.00,3.1966
410.00,3.3333
409.00,3.2532
408.00,3.0215
407.00,2.8126
406.00,2.7139
405.00,2.6920
404.00,2.7295
403.00,2.8113
402.00,2.8679
401.00,2.8365
400.00,2.7778
