Created as New Dataset,Sample 183 By Administrator Date Friday, November 26 2021
cm-1,A
7000.00,0.8573
6999.00,0.8552
6998.00,0.8531
6997.00,0.8511
6996.00,0.8491
6995.00,0.8470
6994.00,0.8448
6993.00,0.8427
6992.00,0.8406
6991.00,0.8386
6990.00,0.8367
6989.00,0.8348
6988.00,0.8329
6987.00,0.8308
6986.00,0.8287
6985.00,0.8265
6984.00,0.8245
6983.00,0.8226
6982.00,0.8207
6981.00,0.8188
6980.00,0.8169
6979.00,0.8153
6978.00,0.8138
6977.00,0.8124
6976.00,0.8110
6975.00,0.8094
6974.00,0.8079
6973.00,0.8065
6972.00,0.8051
6971.00,0.8036
6970.00,0.8021
6969.00,0.8007
6968.00,0.7994
6967.00,0.7981
6966.00,0.7970
6965.00,0.7961
6964.00,0.7951
6963.00,0.7940
6962.00,0.7927
6961.00,0.7915
6960.00,0.7904
6959.00,0.7894
6958.00,0.7883
6957.00,0.7873
6956.00,0.7864
6955.00,0.7857
6954.00,0.7852
6953.00,0.7847
6952.00,0.7841
6951.00,0.7834
6950.00,0.7828
6949.00,0.7822
6948.00,0.7817
6947.00,0.7813
6946.00,0.7809
6945.00,0.7807
6944.00,0.7805
6943.00,0.7803
6942.00,0.7799
6941.00,0.7796
6940.00,0.7793
6939.00,0.7791
6938.00,0.7791
6937.00,0.7793
6936.00,0.7794
6935.00,0.7796
6934.00,0.7798
6933.00,0.7802
6932.00,0.7806
6931.00,0.7809
6930.00,0.7812
6929.00,0.7815
6928.00,0.7818
6927.00,0.7821
6926.00,0.7825
6925.00,0.7830
6924.00,0.7836
6923.00,0.7845
6922.00,0.7856
6921.00,0.7868
6920.00,0.7881
6919.00,0.7892
6918.00,0.7901
6917.00,0.7909
6916.00,0.7917
6915.00,0.7924
6914.00,0.7932
6913.00,0.7942
6912.00,0.7951
6911.00,0.7962
6910.00,0.7973
6909.00,0.7987
6908.00,0.8003
6907.00,0.8019
6906.00,0.8036
6905.00,0.8054
6904.00,0.8072
6903.00,0.8090
6902.00,0.8108
6901.00,0.8124
6900.00,0.8140
6899.00,0.8156
6898.00,0.8173
6897.00,0.8191
6896.00,0.8210
6895.00,0.8230
6894.00,0.8251
6893.00,0.8273
6892.00,0.8294
6891.00,0.8314
6890.00,0.8334
6889.00,0.8354
6888.00,0.8374
6887.00,0.8394
6886.00,0.8416
6885.00,0.8440
6884.00,0.8464
6883.00,0.8489
6882.00,0.8512
6881.00,0.8535
6880.00,0.8558
6879.00,0.8581
6878.00,0.8604
6877.00,0.8628
6876.00,0.8653
6875.00,0.8679
6874.00,0.8705
6873.00,0.8732
6872.00,0.8761
6871.00,0.8790
6870.00,0.8819
6869.00,0.8846
6868.00,0.8873
6867.00,0.8900
6866.00,0.8929
6865.00,0.8959
6864.00,0.8990
6863.00,0.9021
6862.00,0.9052
6861.00,0.9084
6860.00,0.9114
6859.00,0.9141
6858.00,0.9166
6857.00,0.9191
6856.00,0.9219
6855.00,0.9251
6854.00,0.9284
6853.00,0.9318
6852.00,0.9350
6851.00,0.9382
6850.00,0.9415
6849.00,0.9447
6848.00,0.9478
6847.00,0.9510
6846.00,0.9544
6845.00,0.9581
6844.00,0.9619
6843.00,0.9653
6842.00,0.9685
6841.00,0.9717
6840.00,0.9747
6839.00,0.9778
6838.00,0.9808
6837.00,0.9840
6836.00,0.9873
6835.00,0.9908
6834.00,0.9943
6833.00,0.9979
6832.00,1.0015
6831.00,1.0048
6830.00,1.0082
6829.00,1.0117
6828.00,1.0153
6827.00,1.0188
6826.00,1.0222
6825.00,1.0254
6824.00,1.0286
6823.00,1.0318
6822.00,1.0349
6821.00,1.0378
6820.00,1.0409
6819.00,1.0442
6818.00,1.0475
6817.00,1.0509
6816.00,1.0541
6815.00,1.0571
6814.00,1.0601
6813.00,1.0630
6812.00,1.0656
6811.00,1.0681
6810.00,1.0708
6809.00,1.0736
6808.00,1.0767
6807.00,1.0799
6806.00,1.0830
6805.00,1.0860
6804.00,1.0888
6803.00,1.0915
6802.00,1.0940
6801.00,1.0966
6800.00,1.0990
6799.00,1.1016
6798.00,1.1042
6797.00,1.1068
6796.00,1.1094
6795.00,1.1121
6794.00,1.1146
6793.00,1.1170
6792.00,1.1192
6791.00,1.1212
6790.00,1.1234
6789.00,1.1258
6788.00,1.1282
6787.00,1.1306
6786.00,1.1329
6785.00,1.1353
6784.00,1.1375
6783.00,1.1394
6782.00,1.1413
6781.00,1.1430
6780.00,1.1446
6779.00,1.1462
6778.00,1.1479
6777.00,1.1498
6776.00,1.1517
6775.00,1.1535
6774.00,1.1555
6773.00,1.1575
6772.00,1.1593
6771.00,1.1608
6770.00,1.1623
6769.00,1.1640
6768.00,1.1657
6767.00,1.1672
6766.00,1.1684
6765.00,1.1697
6764.00,1.1712
6763.00,1.1726
6762.00,1.1738
6761.00,1.1749
6760.00,1.1757
6759.00,1.1765
6758.00,1.1773
6757.00,1.1784
6756.00,1.1797
6755.00,1.1806
6754.00,1.1811
6753.00,1.1814
6752.00,1.1818
6751.00,1.1823
6750.00,1.1829
6749.00,1.1835
6748.00,1.1840
6747.00,1.1846
6746.00,1.1853
6745.00,1.1861
6744.00,1.1867
6743.00,1.1871
6742.00,1.1872
6741.00,1.1875
6740.00,1.1878
6739.00,1.1881
6738.00,1.1882
6737.00,1.1877
6736.00,1.1868
6735.00,1.1856
6734.00,1.1846
6733.00,1.1839
6732.00,1.1834
6731.00,1.1829
6730.00,1.1825
6729.00,1.1824
6728.00,1.1823
6727.00,1.1820
6726.00,1.1812
6725.00,1.1804
6724.00,1.1795
6723.00,1.1788
6722.00,1.1780
6721.00,1.1771
6720.00,1.1760
6719.00,1.1746
6718.00,1.1732
6717.00,1.1720
6716.00,1.1708
6715.00,1.1696
6714.00,1.1683
6713.00,1.1673
6712.00,1.1663
6711.00,1.1651
6710.00,1.1633
6709.00,1.1614
6708.00,1.1597
6707.00,1.1583
6706.00,1.1570
6705.00,1.1557
6704.00,1.1542
6703.00,1.1526
6702.00,1.1507
6701.00,1.1487
6700.00,1.1465
6699.00,1.1442
6698.00,1.1420
6697.00,1.1402
6696.00,1.1387
6695.00,1.1372
6694.00,1.1356
6693.00,1.1336
6692.00,1.1314
6691.00,1.1289
6690.00,1.1262
6689.00,1.1236
6688.00,1.1211
6687.00,1.1186
6686.00,1.1161
6685.00,1.1137
6684.00,1.1114
6683.00,1.1090
6682.00,1.1065
6681.00,1.1040
6680.00,1.1017
6679.00,1.0995
6678.00,1.0971
6677.00,1.0945
6676.00,1.0916
6675.00,1.0885
6674.00,1.0854
6673.00,1.0823
6672.00,1.0792
6671.00,1.0762
6670.00,1.0733
6669.00,1.0708
6668.00,1.0683
6667.00,1.0657
6666.00,1.0629
6665.00,1.0600
6664.00,1.0571
6663.00,1.0542
6662.00,1.0512
6661.00,1.0482
6660.00,1.0452
6659.00,1.0422
6658.00,1.0394
6657.00,1.0369
6656.00,1.0344
6655.00,1.0317
6654.00,1.0288
6653.00,1.0259
6652.00,1.0230
6651.00,1.0202
6650.00,1.0172
6649.00,1.0141
6648.00,1.0110
6647.00,1.0080
6646.00,1.0051
6645.00,1.0021
6644.00,0.9991
6643.00,0.9962
6642.00,0.9934
6641.00,0.9908
6640.00,0.9880
6639.00,0.9851
6638.00,0.9820
6637.00,0.9789
6636.00,0.9759
6635.00,0.9730
6634.00,0.9702
6633.00,0.9677
6632.00,0.9652
6631.00,0.9626
6630.00,0.9598
6629.00,0.9571
6628.00,0.9545
6627.00,0.9518
6626.00,0.9490
6625.00,0.9462
6624.00,0.9434
6623.00,0.9406
6622.00,0.9378
6621.00,0.9349
6620.00,0.9321
6619.00,0.9294
6618.00,0.9268
6617.00,0.9243
6616.00,0.9218
6615.00,0.9192
6614.00,0.9166
6613.00,0.9140
6612.00,0.9115
6611.00,0.9089
6610.00,0.9062
6609.00,0.9036
6608.00,0.9011
6607.00,0.8988
6606.00,0.8964
6605.00,0.8940
6604.00,0.8916
6603.00,0.8891
6602.00,0.8866
6601.00,0.8840
6600.00,0.8816
6599.00,0.8793
6598.00,0.8773
6597.00,0.8755
6596.00,0.8737
6595.00,0.8717
6594.00,0.8697
6593.00,0.8676
6592.00,0.8655
6591.00,0.8633
6590.00,0.8612
6589.00,0.8591
6588.00,0.8570
6587.00,0.8551
6586.00,0.8532
6585.00,0.8513
6584.00,0.8495
6583.00,0.8477
6582.00,0.8461
6581.00,0.8445
6580.00,0.8429
6579.00,0.8412
6578.00,0.8395
6577.00,0.8379
6576.00,0.8363
6575.00,0.8349
6574.00,0.8335
6573.00,0.8321
6572.00,0.8307
6571.00,0.8292
6570.00,0.8277
6569.00,0.8262
6568.00,0.8248
6567.00,0.8235
6566.00,0.8224
6565.00,0.8214
6564.00,0.8205
6563.00,0.8196
6562.00,0.8187
6561.00,0.8177
6560.00,0.8168
6559.00,0.8159
6558.00,0.8152
6557.00,0.8147
6556.00,0.8142
6555.00,0.8137
6554.00,0.8132
6553.00,0.8127
6552.00,0.8122
6551.00,0.8116
6550.00,0.8111
6549.00,0.8108
6548.00,0.8105
6547.00,0.8103
6546.00,0.8102
6545.00,0.8102
6544.00,0.8104
6543.00,0.8106
6542.00,0.8108
6541.00,0.8110
6540.00,0.8113
6539.00,0.8115
6538.00,0.8118
6537.00,0.8122
6536.00,0.8126
6535.00,0.8131
6534.00,0.8137
6533.00,0.8144
6532.00,0.8152
6531.00,0.8159
6530.00,0.8166
6529.00,0.8175
6528.00,0.8186
6527.00,0.8197
6526.00,0.8208
6525.00,0.8219
6524.00,0.8230
6523.00,0.8242
6522.00,0.8254
6521.00,0.8267
6520.00,0.8281
6519.00,0.8295
6518.00,0.8309
6517.00,0.8325
6516.00,0.8341
6515.00,0.8357
6514.00,0.8373
6513.00,0.8390
6512.00,0.8407
6511.00,0.8425
6510.00,0.8443
6509.00,0.8462
6508.00,0.8482
6507.00,0.8502
6506.00,0.8523
6505.00,0.8546
6504.00,0.8570
6503.00,0.8593
6502.00,0.8616
6501.00,0.8640
6500.00,0.8665
6499.00,0.8688
6498.00,0.8712
6497.00,0.8735
6496.00,0.8758
6495.00,0.8782
6494.00,0.8807
6493.00,0.8833
6492.00,0.8859
6491.00,0.8886
6490.00,0.8913
6489.00,0.8940
6488.00,0.8969
6487.00,0.8997
6486.00,0.9025
6485.00,0.9053
6484.00,0.9083
6483.00,0.9113
6482.00,0.9143
6481.00,0.9173
6480.00,0.9203
6479.00,0.9235
6478.00,0.9268
6477.00,0.9301
6476.00,0.9332
6475.00,0.9364
6474.00,0.9395
6473.00,0.9426
6472.00,0.9456
6471.00,0.9486
6470.00,0.9517
6469.00,0.9551
6468.00,0.9588
6467.00,0.9624
6466.00,0.9660
6465.00,0.9695
6464.00,0.9728
6463.00,0.9760
6462.00,0.9792
6461.00,0.9826
6460.00,0.9861
6459.00,0.9897
6458.00,0.9935
6457.00,0.9974
6456.00,1.0012
6455.00,1.0047
6454.00,1.0081
6453.00,1.0114
6452.00,1.0148
6451.00,1.0183
6450.00,1.0218
6449.00,1.0253
6448.00,1.0288
6447.00,1.0322
6446.00,1.0356
6445.00,1.0391
6444.00,1.0425
6443.00,1.0457
6442.00,1.0489
6441.00,1.0522
6440.00,1.0557
6439.00,1.0591
6438.00,1.0626
6437.00,1.0663
6436.00,1.0701
6435.00,1.0736
6434.00,1.0769
6433.00,1.0800
6432.00,1.0830
6431.00,1.0860
6430.00,1.0891
6429.00,1.0925
6428.00,1.0962
6427.00,1.0998
6426.00,1.1031
6425.00,1.1061
6424.00,1.1090
6423.00,1.1118
6422.00,1.1146
6421.00,1.1175
6420.00,1.1206
6419.00,1.1237
6418.00,1.1267
6417.00,1.1297
6416.00,1.1326
6415.00,1.1355
6414.00,1.1384
6413.00,1.1411
6412.00,1.1437
6411.00,1.1463
6410.00,1.1489
6409.00,1.1514
6408.00,1.1539
6407.00,1.1564
6406.00,1.1592
6405.00,1.1619
6404.00,1.1645
6403.00,1.1667
6402.00,1.1685
6401.00,1.1703
6400.00,1.1719
6399.00,1.1734
6398.00,1.1751
6397.00,1.1771
6396.00,1.1794
6395.00,1.1818
6394.00,1.1843
6393.00,1.1868
6392.00,1.1890
6391.00,1.1908
6390.00,1.1921
6389.00,1.1932
6388.00,1.1944
6387.00,1.1958
6386.00,1.1972
6385.00,1.1986
6384.00,1.2000
6383.00,1.2013
6382.00,1.2027
6381.00,1.2040
6380.00,1.2049
6379.00,1.2058
6378.00,1.2067
6377.00,1.2077
6376.00,1.2086
6375.00,1.2094
6374.00,1.2102
6373.00,1.2111
6372.00,1.2120
6371.00,1.2126
6370.00,1.2131
6369.00,1.2136
6368.00,1.2142
6367.00,1.2146
6366.00,1.2148
6365.00,1.2150
6364.00,1.2154
6363.00,1.2157
6362.00,1.2160
6361.00,1.2161
6360.00,1.2163
6359.00,1.2165
6358.00,1.2165
6357.00,1.2163
6356.00,1.2159
6355.00,1.2155
6354.00,1.2153
6353.00,1.2152
6352.00,1.2150
6351.00,1.2147
6350.00,1.2142
6349.00,1.2137
6348.00,1.2129
6347.00,1.2118
6346.00,1.2106
6345.00,1.2097
6344.00,1.2090
6343.00,1.2083
6342.00,1.2074
6341.00,1.2063
6340.00,1.2053
6339.00,1.2044
6338.00,1.2035
6337.00,1.2024
6336.00,1.2011
6335.00,1.1999
6334.00,1.1989
6333.00,1.1978
6332.00,1.1965
6331.00,1.1948
6330.00,1.1929
6329.00,1.1911
6328.00,1.1890
6327.00,1.1869
6326.00,1.1848
6325.00,1.1829
6324.00,1.1810
6323.00,1.1789
6322.00,1.1767
6321.00,1.1744
6320.00,1.1722
6319.00,1.1700
6318.00,1.1680
6317.00,1.1661
6316.00,1.1642
6315.00,1.1622
6314.00,1.1601
6313.00,1.1578
6312.00,1.1552
6311.00,1.1523
6310.00,1.1494
6309.00,1.1466
6308.00,1.1438
6307.00,1.1408
6306.00,1.1379
6305.00,1.1351
6304.00,1.1325
6303.00,1.1297
6302.00,1.1269
6301.00,1.1241
6300.00,1.1212
6299.00,1.1181
6298.00,1.1149
6297.00,1.1118
6296.00,1.1086
6295.00,1.1055
6294.00,1.1024
6293.00,1.0995
6292.00,1.0967
6291.00,1.0937
6290.00,1.0905
6289.00,1.0871
6288.00,1.0836
6287.00,1.0800
6286.00,1.0767
6285.00,1.0736
6284.00,1.0705
6283.00,1.0672
6282.00,1.0637
6281.00,1.0601
6280.00,1.0564
6279.00,1.0526
6278.00,1.0488
6277.00,1.0453
6276.00,1.0421
6275.00,1.0389
6274.00,1.0357
6273.00,1.0324
6272.00,1.0288
6271.00,1.0253
6270.00,1.0218
6269.00,1.0186
6268.00,1.0153
6267.00,1.0119
6266.00,1.0085
6265.00,1.0051
6264.00,1.0016
6263.00,0.9979
6262.00,0.9941
6261.00,0.9906
6260.00,0.9873
6259.00,0.9839
6258.00,0.9805
6257.00,0.9771
6256.00,0.9737
6255.00,0.9702
6254.00,0.9666
6253.00,0.9632
6252.00,0.9602
6251.00,0.9572
6250.00,0.9542
6249.00,0.9511
6248.00,0.9480
6247.00,0.9449
6246.00,0.9416
6245.00,0.9383
6244.00,0.9351
6243.00,0.9321
6242.00,0.9291
6241.00,0.9262
6240.00,0.9231
6239.00,0.9198
6238.00,0.9166
6237.00,0.9134
6236.00,0.9103
6235.00,0.9073
6234.00,0.9043
6233.00,0.9015
6232.00,0.8988
6231.00,0.8960
6230.00,0.8932
6229.00,0.8903
6228.00,0.8874
6227.00,0.8846
6226.00,0.8819
6225.00,0.8793
6224.00,0.8768
6223.00,0.8742
6222.00,0.8716
6221.00,0.8690
6220.00,0.8664
6219.00,0.8639
6218.00,0.8614
6217.00,0.8592
6216.00,0.8570
6215.00,0.8548
6214.00,0.8525
6213.00,0.8501
6212.00,0.8478
6211.00,0.8454
6210.00,0.8432
6209.00,0.8410
6208.00,0.8390
6207.00,0.8370
6206.00,0.8350
6205.00,0.8330
6204.00,0.8311
6203.00,0.8292
6202.00,0.8273
6201.00,0.8255
6200.00,0.8235
6199.00,0.8216
6198.00,0.8196
6197.00,0.8178
6196.00,0.8161
6195.00,0.8144
6194.00,0.8128
6193.00,0.8112
6192.00,0.8097
6191.00,0.8082
6190.00,0.8067
6189.00,0.8053
6188.00,0.8040
6187.00,0.8027
6186.00,0.8013
6185.00,0.8000
6184.00,0.7985
6183.00,0.7971
6182.00,0.7959
6181.00,0.7947
6180.00,0.7938
6179.00,0.7929
6178.00,0.7921
6177.00,0.7913
6176.00,0.7905
6175.00,0.7897
6174.00,0.7889
6173.00,0.7881
6172.00,0.7874
6171.00,0.7866
6170.00,0.7858
6169.00,0.7851
6168.00,0.7845
6167.00,0.7840
6166.00,0.7837
6165.00,0.7834
6164.00,0.7832
6163.00,0.7831
6162.00,0.7832
6161.00,0.7833
6160.00,0.7834
6159.00,0.7835
6158.00,0.7835
6157.00,0.7836
6156.00,0.7837
6155.00,0.7838
6154.00,0.7840
6153.00,0.7844
6152.00,0.7850
6151.00,0.7856
6150.00,0.7863
6149.00,0.7871
6148.00,0.7879
6147.00,0.7888
6146.00,0.7898
6145.00,0.7908
6144.00,0.7918
6143.00,0.7928
6142.00,0.7939
6141.00,0.7951
6140.00,0.7962
6139.00,0.7974
6138.00,0.7988
6137.00,0.8003
6136.00,0.8019
6135.00,0.8034
6134.00,0.8051
6133.00,0.8070
6132.00,0.8090
6131.00,0.8109
6130.00,0.8127
6129.00,0.8146
6128.00,0.8166
6127.00,0.8187
6126.00,0.8208
6125.00,0.8230
6124.00,0.8252
6123.00,0.8275
6122.00,0.8300
6121.00,0.8325
6120.00,0.8351
6119.00,0.8377
6118.00,0.8402
6117.00,0.8428
6116.00,0.8453
6115.00,0.8480
6114.00,0.8507
6113.00,0.8536
6112.00,0.8565
6111.00,0.8595
6110.00,0.8626
6109.00,0.8656
6108.00,0.8686
6107.00,0.8716
6106.00,0.8747
6105.00,0.8780
6104.00,0.8813
6103.00,0.8845
6102.00,0.8878
6101.00,0.8910
6100.00,0.8943
6099.00,0.8975
6098.00,0.9008
6097.00,0.9042
6096.00,0.9079
6095.00,0.9117
6094.00,0.9156
6093.00,0.9194
6092.00,0.9231
6091.00,0.9267
6090.00,0.9301
6089.00,0.9336
6088.00,0.9373
6087.00,0.9411
6086.00,0.9451
6085.00,0.9493
6084.00,0.9535
6083.00,0.9576
6082.00,0.9615
6081.00,0.9654
6080.00,0.9691
6079.00,0.9729
6078.00,0.9767
6077.00,0.9805
6076.00,0.9845
6075.00,0.9885
6074.00,0.9926
6073.00,0.9969
6072.00,1.0011
6071.00,1.0052
6070.00,1.0093
6069.00,1.0133
6068.00,1.0174
6067.00,1.0213
6066.00,1.0251
6065.00,1.0291
6064.00,1.0332
6063.00,1.0374
6062.00,1.0416
6061.00,1.0457
6060.00,1.0498
6059.00,1.0537
6058.00,1.0574
6057.00,1.0613
6056.00,1.0653
6055.00,1.0694
6054.00,1.0735
6053.00,1.0776
6052.00,1.0817
6051.00,1.0856
6050.00,1.0895
6049.00,1.0935
6048.00,1.0975
6047.00,1.1015
6046.00,1.1055
6045.00,1.1095
6044.00,1.1133
6043.00,1.1170
6042.00,1.1206
6041.00,1.1243
6040.00,1.1279
6039.00,1.1313
6038.00,1.1347
6037.00,1.1382
6036.00,1.1417
6035.00,1.1453
6034.00,1.1488
6033.00,1.1524
6032.00,1.1559
6031.00,1.1593
6030.00,1.1625
6029.00,1.1658
6028.00,1.1691
6027.00,1.1722
6026.00,1.1752
6025.00,1.1783
6024.00,1.1815
6023.00,1.1846
6022.00,1.1876
6021.00,1.1906
6020.00,1.1936
6019.00,1.1965
6018.00,1.1993
6017.00,1.2019
6016.00,1.2046
6015.00,1.2074
6014.00,1.2101
6013.00,1.2127
6012.00,1.2151
6011.00,1.2175
6010.00,1.2199
6009.00,1.2224
6008.00,1.2247
6007.00,1.2270
6006.00,1.2294
6005.00,1.2318
6004.00,1.2341
6003.00,1.2360
6002.00,1.2379
6001.00,1.2397
6000.00,1.2417
5999.00,1.2436
5998.00,1.2455
5997.00,1.2473
5996.00,1.2490
5995.00,1.2505
5994.00,1.2520
5993.00,1.2533
5992.00,1.2543
5991.00,1.2551
5990.00,1.2560
5989.00,1.2573
5988.00,1.2587
5987.00,1.2601
5986.00,1.2613
5985.00,1.2625
5984.00,1.2636
5983.00,1.2644
5982.00,1.2648
5981.00,1.2654
5980.00,1.2663
5979.00,1.2673
5978.00,1.2683
5977.00,1.2691
5976.00,1.2698
5975.00,1.2704
5974.00,1.2710
5973.00,1.2716
5972.00,1.2722
5971.00,1.2727
5970.00,1.2731
5969.00,1.2731
5968.00,1.2731
5967.00,1.2731
5966.00,1.2731
5965.00,1.2729
5964.00,1.2724
5963.00,1.2719
5962.00,1.2713
5961.00,1.2710
5960.00,1.2708
5959.00,1.2707
5958.00,1.2706
5957.00,1.2703
5956.00,1.2698
5955.00,1.2690
5954.00,1.2681
5953.00,1.2673
5952.00,1.2665
5951.00,1.2658
5950.00,1.2650
5949.00,1.2641
5948.00,1.2631
5947.00,1.2618
5946.00,1.2604
5945.00,1.2589
5944.00,1.2574
5943.00,1.2559
5942.00,1.2544
5941.00,1.2532
5940.00,1.2522
5939.00,1.2512
5938.00,1.2500
5937.00,1.2485
5936.00,1.2469
5935.00,1.2451
5934.00,1.2432
5933.00,1.2415
5932.00,1.2399
5931.00,1.2382
5930.00,1.2362
5929.00,1.2341
5928.00,1.2317
5927.00,1.2293
5926.00,1.2269
5925.00,1.2245
5924.00,1.2223
5923.00,1.2201
5922.00,1.2178
5921.00,1.2154
5920.00,1.2129
5919.00,1.2102
5918.00,1.2074
5917.00,1.2047
5916.00,1.2020
5915.00,1.1995
5914.00,1.1970
5913.00,1.1945
5912.00,1.1918
5911.00,1.1890
5910.00,1.1862
5909.00,1.1832
5908.00,1.1801
5907.00,1.1767
5906.00,1.1733
5905.00,1.1700
5904.00,1.1667
5903.00,1.1634
5902.00,1.1601
5901.00,1.1568
5900.00,1.1536
5899.00,1.1502
5898.00,1.1467
5897.00,1.1432
5896.00,1.1398
5895.00,1.1366
5894.00,1.1334
5893.00,1.1302
5892.00,1.1269
5891.00,1.1233
5890.00,1.1197
5889.00,1.1160
5888.00,1.1122
5887.00,1.1084
5886.00,1.1047
5885.00,1.1011
5884.00,1.0975
5883.00,1.0937
5882.00,1.0898
5881.00,1.0861
5880.00,1.0826
5879.00,1.0792
5878.00,1.0758
5877.00,1.0722
5876.00,1.0686
5875.00,1.0646
5874.00,1.0605
5873.00,1.0563
5872.00,1.0523
5871.00,1.0485
5870.00,1.0449
5869.00,1.0414
5868.00,1.0379
5867.00,1.0344
5866.00,1.0307
5865.00,1.0270
5864.00,1.0232
5863.00,1.0194
5862.00,1.0156
5861.00,1.0119
5860.00,1.0085
5859.00,1.0050
5858.00,1.0016
5857.00,0.9981
5856.00,0.9945
5855.00,0.9908
5854.00,0.9872
5853.00,0.9836
5852.00,0.9800
5851.00,0.9764
5850.00,0.9729
5849.00,0.9695
5848.00,0.9660
5847.00,0.9626
5846.00,0.9592
5845.00,0.9558
5844.00,0.9524
5843.00,0.9488
5842.00,0.9452
5841.00,0.9417
5840.00,0.9384
5839.00,0.9352
5838.00,0.9321
5837.00,0.9290
5836.00,0.9259
5835.00,0.9226
5834.00,0.9194
5833.00,0.9162
5832.00,0.9130
5831.00,0.9099
5830.00,0.9068
5829.00,0.9039
5828.00,0.9010
5827.00,0.8981
5826.00,0.8952
5825.00,0.8924
5824.00,0.8895
5823.00,0.8866
5822.00,0.8836
5821.00,0.8807
5820.00,0.8779
5819.00,0.8752
5818.00,0.8725
5817.00,0.8698
5816.00,0.8672
5815.00,0.8645
5814.00,0.8620
5813.00,0.8594
5812.00,0.8568
5811.00,0.8543
5810.00,0.8518
5809.00,0.8494
5808.00,0.8471
5807.00,0.8449
5806.00,0.8427
5805.00,0.8406
5804.00,0.8385
5803.00,0.8363
5802.00,0.8341
5801.00,0.8320
5800.00,0.8300
5799.00,0.8280
5798.00,0.8261
5797.00,0.8243
5796.00,0.8225
5795.00,0.8207
5794.00,0.8190
5793.00,0.8174
5792.00,0.8158
5791.00,0.8143
5790.00,0.8128
5789.00,0.8114
5788.00,0.8101
5787.00,0.8089
5786.00,0.8077
5785.00,0.8066
5784.00,0.8056
5783.00,0.8045
5782.00,0.8035
5781.00,0.8026
5780.00,0.8019
5779.00,0.8012
5778.00,0.8007
5777.00,0.8002
5776.00,0.7997
5775.00,0.7993
5774.00,0.7990
5773.00,0.7988
5772.00,0.7987
5771.00,0.7987
5770.00,0.7989
5769.00,0.7991
5768.00,0.7994
5767.00,0.7997
5766.00,0.8001
5765.00,0.8006
5764.00,0.8012
5763.00,0.8018
5762.00,0.8026
5761.00,0.8034
5760.00,0.8043
5759.00,0.8054
5758.00,0.8065
5757.00,0.8077
5756.00,0.8090
5755.00,0.8103
5754.00,0.8117
5753.00,0.8132
5752.00,0.8147
5751.00,0.8163
5750.00,0.8180
5749.00,0.8198
5748.00,0.8216
5747.00,0.8235
5746.00,0.8254
5745.00,0.8274
5744.00,0.8295
5743.00,0.8317
5742.00,0.8339
5741.00,0.8363
5740.00,0.8387
5739.00,0.8411
5738.00,0.8435
5737.00,0.8459
5736.00,0.8484
5735.00,0.8510
5734.00,0.8537
5733.00,0.8563
5732.00,0.8590
5731.00,0.8618
5730.00,0.8646
5729.00,0.8675
5728.00,0.8705
5727.00,0.8736
5726.00,0.8767
5725.00,0.8798
5724.00,0.8829
5723.00,0.8860
5722.00,0.8891
5721.00,0.8923
5720.00,0.8956
5719.00,0.8988
5718.00,0.9021
5717.00,0.9055
5716.00,0.9089
5715.00,0.9124
5714.00,0.9160
5713.00,0.9197
5712.00,0.9235
5711.00,0.9273
5710.00,0.9310
5709.00,0.9347
5708.00,0.9384
5707.00,0.9421
5706.00,0.9460
5705.00,0.9501
5704.00,0.9542
5703.00,0.9583
5702.00,0.9624
5701.00,0.9664
5700.00,0.9706
5699.00,0.9747
5698.00,0.9789
5697.00,0.9831
5696.00,0.9873
5695.00,0.9916
5694.00,0.9960
5693.00,1.0005
5692.00,1.0049
5691.00,1.0094
5690.00,1.0139
5689.00,1.0183
5688.00,1.0226
5687.00,1.0268
5686.00,1.0310
5685.00,1.0354
5684.00,1.0399
5683.00,1.0445
5682.00,1.0491
5681.00,1.0538
5680.00,1.0584
5679.00,1.0629
5678.00,1.0673
5677.00,1.0718
5676.00,1.0762
5675.00,1.0805
5674.00,1.0848
5673.00,1.0893
5672.00,1.0938
5671.00,1.0982
5670.00,1.1026
5669.00,1.1071
5668.00,1.1115
5667.00,1.1159
5666.00,1.1203
5665.00,1.1248
5664.00,1.1293
5663.00,1.1336
5662.00,1.1379
5661.00,1.1421
5660.00,1.1462
5659.00,1.1504
5658.00,1.1544
5657.00,1.1584
5656.00,1.1625
5655.00,1.1665
5654.00,1.1704
5653.00,1.1744
5652.00,1.1783
5651.00,1.1822
5650.00,1.1860
5649.00,1.1897
5648.00,1.1934
5647.00,1.1971
5646.00,1.2008
5645.00,1.2045
5644.00,1.2082
5643.00,1.2119
5642.00,1.2156
5641.00,1.2193
5640.00,1.2227
5639.00,1.2259
5638.00,1.2289
5637.00,1.2318
5636.00,1.2347
5635.00,1.2375
5634.00,1.2406
5633.00,1.2439
5632.00,1.2471
5631.00,1.2502
5630.00,1.2532
5629.00,1.2562
5628.00,1.2591
5627.00,1.2618
5626.00,1.2642
5625.00,1.2666
5624.00,1.2688
5623.00,1.2711
5622.00,1.2735
5621.00,1.2760
5620.00,1.2786
5619.00,1.2812
5618.00,1.2836
5617.00,1.2857
5616.00,1.2876
5615.00,1.2894
5614.00,1.2912
5613.00,1.2932
5612.00,1.2953
5611.00,1.2974
5610.00,1.2993
5609.00,1.3011
5608.00,1.3027
5607.00,1.3042
5606.00,1.3057
5605.00,1.3070
5604.00,1.3084
5603.00,1.3096
5602.00,1.3108
5601.00,1.3118
5600.00,1.3129
5599.00,1.3141
5598.00,1.3154
5597.00,1.3165
5596.00,1.3174
5595.00,1.3182
5594.00,1.3190
5593.00,1.3197
5592.00,1.3204
5591.00,1.3212
5590.00,1.3220
5589.00,1.3228
5588.00,1.3235
5587.00,1.3241
5586.00,1.3243
5585.00,1.3244
5584.00,1.3242
5583.00,1.3242
5582.00,1.3243
5581.00,1.3246
5580.00,1.3248
5579.00,1.3250
5578.00,1.3249
5577.00,1.3246
5576.00,1.3241
5575.00,1.3236
5574.00,1.3232
5573.00,1.3229
5572.00,1.3225
5571.00,1.3221
5570.00,1.3216
5569.00,1.3211
5568.00,1.3204
5567.00,1.3196
5566.00,1.3189
5565.00,1.3181
5564.00,1.3173
5563.00,1.3165
5562.00,1.3156
5561.00,1.3147
5560.00,1.3135
5559.00,1.3121
5558.00,1.3106
5557.00,1.3093
5556.00,1.3080
5555.00,1.3067
5554.00,1.3053
5553.00,1.3038
5552.00,1.3022
5551.00,1.3003
5550.00,1.2983
5549.00,1.2964
5548.00,1.2946
5547.00,1.2927
5546.00,1.2908
5545.00,1.2889
5544.00,1.2868
5543.00,1.2847
5542.00,1.2825
5541.00,1.2804
5540.00,1.2782
5539.00,1.2760
5538.00,1.2737
5537.00,1.2714
5536.00,1.2690
5535.00,1.2665
5534.00,1.2639
5533.00,1.2612
5532.00,1.2586
5531.00,1.2559
5530.00,1.2532
5529.00,1.2505
5528.00,1.2476
5527.00,1.2445
5526.00,1.2412
5525.00,1.2378
5524.00,1.2343
5523.00,1.2310
5522.00,1.2277
5521.00,1.2244
5520.00,1.2211
5519.00,1.2177
5518.00,1.2143
5517.00,1.2109
5516.00,1.2075
5515.00,1.2039
5514.00,1.2003
5513.00,1.1967
5512.00,1.1930
5511.00,1.1893
5510.00,1.1856
5509.00,1.1819
5508.00,1.1782
5507.00,1.1743
5506.00,1.1703
5505.00,1.1664
5504.00,1.1625
5503.00,1.1585
5502.00,1.1544
5501.00,1.1503
5500.00,1.1462
5499.00,1.1419
5498.00,1.1377
5497.00,1.1334
5496.00,1.1291
5495.00,1.1249
5494.00,1.1207
5493.00,1.1165
5492.00,1.1123
5491.00,1.1080
5490.00,1.1037
5489.00,1.0993
5488.00,1.0950
5487.00,1.0907
5486.00,1.0864
5485.00,1.0822
5484.00,1.0778
5483.00,1.0733
5482.00,1.0689
5481.00,1.0646
5480.00,1.0604
5479.00,1.0561
5478.00,1.0517
5477.00,1.0473
5476.00,1.0428
5475.00,1.0384
5474.00,1.0342
5473.00,1.0302
5472.00,1.0261
5471.00,1.0220
5470.00,1.0177
5469.00,1.0134
5468.00,1.0090
5467.00,1.0045
5466.00,1.0001
5465.00,0.9957
5464.00,0.9913
5463.00,0.9871
5462.00,0.9830
5461.00,0.9789
5460.00,0.9749
5459.00,0.9707
5458.00,0.9667
5457.00,0.9627
5456.00,0.9588
5455.00,0.9548
5454.00,0.9507
5453.00,0.9466
5452.00,0.9426
5451.00,0.9386
5450.00,0.9347
5449.00,0.9308
5448.00,0.9271
5447.00,0.9233
5446.00,0.9194
5445.00,0.9157
5444.00,0.9120
5443.00,0.9084
5442.00,0.9048
5441.00,0.9012
5440.00,0.8976
5439.00,0.8940
5438.00,0.8905
5437.00,0.8871
5436.00,0.8837
5435.00,0.8803
5434.00,0.8769
5433.00,0.8736
5432.00,0.8703
5431.00,0.8669
5430.00,0.8636
5429.00,0.8603
5428.00,0.8571
5427.00,0.8540
5426.00,0.8509
5425.00,0.8478
5424.00,0.8449
5423.00,0.8420
5422.00,0.8392
5421.00,0.8365
5420.00,0.8338
5419.00,0.8310
5418.00,0.8285
5417.00,0.8260
5416.00,0.8237
5415.00,0.8214
5414.00,0.8191
5413.00,0.8168
5412.00,0.8144
5411.00,0.8119
5410.00,0.8095
5409.00,0.8072
5408.00,0.8049
5407.00,0.8028
5406.00,0.8008
5405.00,0.7990
5404.00,0.7973
5403.00,0.7956
5402.00,0.7941
5401.00,0.7926
5400.00,0.7912
5399.00,0.7900
5398.00,0.7889
5397.00,0.7880
5396.00,0.7871
5395.00,0.7861
5394.00,0.7850
5393.00,0.7839
5392.00,0.7829
5391.00,0.7820
5390.00,0.7814
5389.00,0.7810
5388.00,0.7808
5387.00,0.7806
5386.00,0.7805
5385.00,0.7804
5384.00,0.7803
5383.00,0.7803
5382.00,0.7805
5381.00,0.7808
5380.00,0.7812
5379.00,0.7817
5378.00,0.7824
5377.00,0.7830
5376.00,0.7836
5375.00,0.7843
5374.00,0.7851
5373.00,0.7860
5372.00,0.7870
5371.00,0.7882
5370.00,0.7894
5369.00,0.7909
5368.00,0.7925
5367.00,0.7942
5366.00,0.7959
5365.00,0.7978
5364.00,0.7997
5363.00,0.8017
5362.00,0.8038
5361.00,0.8059
5360.00,0.8081
5359.00,0.8103
5358.00,0.8126
5357.00,0.8151
5356.00,0.8176
5355.00,0.8203
5354.00,0.8231
5353.00,0.8260
5352.00,0.8288
5351.00,0.8317
5350.00,0.8346
5349.00,0.8376
5348.00,0.8407
5347.00,0.8439
5346.00,0.8472
5345.00,0.8504
5344.00,0.8537
5343.00,0.8573
5342.00,0.8610
5341.00,0.8647
5340.00,0.8684
5339.00,0.8721
5338.00,0.8758
5337.00,0.8796
5336.00,0.8835
5335.00,0.8872
5334.00,0.8910
5333.00,0.8949
5332.00,0.8989
5331.00,0.9029
5330.00,0.9070
5329.00,0.9111
5328.00,0.9154
5327.00,0.9198
5326.00,0.9243
5325.00,0.9289
5324.00,0.9335
5323.00,0.9380
5322.00,0.9425
5321.00,0.9471
5320.00,0.9518
5319.00,0.9565
5318.00,0.9612
5317.00,0.9660
5316.00,0.9708
5315.00,0.9756
5314.00,0.9805
5313.00,0.9855
5312.00,0.9904
5311.00,0.9953
5310.00,1.0002
5309.00,1.0051
5308.00,1.0102
5307.00,1.0153
5306.00,1.0206
5305.00,1.0259
5304.00,1.0312
5303.00,1.0363
5302.00,1.0414
5301.00,1.0466
5300.00,1.0517
5299.00,1.0569
5298.00,1.0620
5297.00,1.0672
5296.00,1.0724
5295.00,1.0776
5294.00,1.0827
5293.00,1.0877
5292.00,1.0927
5291.00,1.0977
5290.00,1.1029
5289.00,1.1083
5288.00,1.1137
5287.00,1.1190
5286.00,1.1241
5285.00,1.1290
5284.00,1.1338
5283.00,1.1386
5282.00,1.1433
5281.00,1.1482
5280.00,1.1531
5279.00,1.1581
5278.00,1.1632
5277.00,1.1682
5276.00,1.1732
5275.00,1.1781
5274.00,1.1829
5273.00,1.1878
5272.00,1.1925
5271.00,1.1971
5270.00,1.2016
5269.00,1.2061
5268.00,1.2106
5267.00,1.2149
5266.00,1.2191
5265.00,1.2235
5264.00,1.2279
5263.00,1.2324
5262.00,1.2369
5261.00,1.2413
5260.00,1.2456
5259.00,1.2496
5258.00,1.2534
5257.00,1.2572
5256.00,1.2611
5255.00,1.2651
5254.00,1.2691
5253.00,1.2732
5252.00,1.2772
5251.00,1.2810
5250.00,1.2845
5249.00,1.2880
5248.00,1.2913
5247.00,1.2947
5246.00,1.2979
5245.00,1.3010
5244.00,1.3041
5243.00,1.3072
5242.00,1.3104
5241.00,1.3136
5240.00,1.3168
5239.00,1.3200
5238.00,1.3230
5237.00,1.3259
5236.00,1.3286
5235.00,1.3311
5234.00,1.3336
5233.00,1.3360
5232.00,1.3385
5231.00,1.3409
5230.00,1.3433
5229.00,1.3456
5228.00,1.3479
5227.00,1.3501
5226.00,1.3522
5225.00,1.3543
5224.00,1.3565
5223.00,1.3586
5222.00,1.3609
5221.00,1.3630
5220.00,1.3650
5219.00,1.3670
5218.00,1.3688
5217.00,1.3705
5216.00,1.3719
5215.00,1.3732
5214.00,1.3743
5213.00,1.3754
5212.00,1.3765
5211.00,1.3776
5210.00,1.3789
5209.00,1.3802
5208.00,1.3814
5207.00,1.3826
5206.00,1.3836
5205.00,1.3845
5204.00,1.3854
5203.00,1.3860
5202.00,1.3865
5201.00,1.3870
5200.00,1.3875
5199.00,1.3879
5198.00,1.3883
5197.00,1.3887
5196.00,1.3891
5195.00,1.3894
5194.00,1.3898
5193.00,1.3901
5192.00,1.3904
5191.00,1.3905
5190.00,1.3906
5189.00,1.3907
5188.00,1.3906
5187.00,1.3903
5186.00,1.3900
5185.00,1.3896
5184.00,1.3892
5183.00,1.3887
5182.00,1.3881
5181.00,1.3874
5180.00,1.3867
5179.00,1.3860
5178.00,1.3853
5177.00,1.3846
5176.00,1.3838
5175.00,1.3829
5174.00,1.3820
5173.00,1.3810
5172.00,1.3798
5171.00,1.3786
5170.00,1.3775
5169.00,1.3762
5168.00,1.3749
5167.00,1.3734
5166.00,1.3719
5165.00,1.3704
5164.00,1.3688
5163.00,1.3672
5162.00,1.3656
5161.00,1.3639
5160.00,1.3620
5159.00,1.3601
5158.00,1.3580
5157.00,1.3560
5156.00,1.3538
5155.00,1.3515
5154.00,1.3491
5153.00,1.3466
5152.00,1.3442
5151.00,1.3418
5150.00,1.3395
5149.00,1.3373
5148.00,1.3349
5147.00,1.3323
5146.00,1.3296
5145.00,1.3268
5144.00,1.3239
5143.00,1.3209
5142.00,1.3178
5141.00,1.3146
5140.00,1.3115
5139.00,1.3083
5138.00,1.3052
5137.00,1.3021
5136.00,1.2989
5135.00,1.2956
5134.00,1.2922
5133.00,1.2886
5132.00,1.2848
5131.00,1.2809
5130.00,1.2771
5129.00,1.2733
5128.00,1.2696
5127.00,1.2658
5126.00,1.2620
5125.00,1.2580
5124.00,1.2541
5123.00,1.2503
5122.00,1.2465
5121.00,1.2426
5120.00,1.2385
5119.00,1.2341
5118.00,1.2296
5117.00,1.2251
5116.00,1.2206
5115.00,1.2161
5114.00,1.2117
5113.00,1.2072
5112.00,1.2027
5111.00,1.1980
5110.00,1.1932
5109.00,1.1885
5108.00,1.1837
5107.00,1.1790
5106.00,1.1742
5105.00,1.1695
5104.00,1.1648
5103.00,1.1600
5102.00,1.1552
5101.00,1.1504
5100.00,1.1455
5099.00,1.1406
5098.00,1.1355
5097.00,1.1305
5096.00,1.1254
5095.00,1.1204
5094.00,1.1154
5093.00,1.1105
5092.00,1.1056
5091.00,1.1007
5090.00,1.0958
5089.00,1.0910
5088.00,1.0860
5087.00,1.0811
5086.00,1.0761
5085.00,1.0713
5084.00,1.0665
5083.00,1.0617
5082.00,1.0568
5081.00,1.0519
5080.00,1.0469
5079.00,1.0419
5078.00,1.0371
5077.00,1.0322
5076.00,1.0274
5075.00,1.0225
5074.00,1.0178
5073.00,1.0130
5072.00,1.0083
5071.00,1.0037
5070.00,0.9990
5069.00,0.9944
5068.00,0.9898
5067.00,0.9853
5066.00,0.9809
5065.00,0.9765
5064.00,0.9721
5063.00,0.9676
5062.00,0.9631
5061.00,0.9587
5060.00,0.9543
5059.00,0.9499
5058.00,0.9456
5057.00,0.9414
5056.00,0.9372
5055.00,0.9330
5054.00,0.9289
5053.00,0.9249
5052.00,0.9209
5051.00,0.9169
5050.00,0.9129
5049.00,0.9089
5048.00,0.9050
5047.00,0.9011
5046.00,0.8974
5045.00,0.8938
5044.00,0.8902
5043.00,0.8867
5042.00,0.8832
5041.00,0.8796
5040.00,0.8762
5039.00,0.8728
5038.00,0.8695
5037.00,0.8663
5036.00,0.8630
5035.00,0.8598
5034.00,0.8566
5033.00,0.8534
5032.00,0.8504
5031.00,0.8475
5030.00,0.8446
5029.00,0.8418
5028.00,0.8390
5027.00,0.8363
5026.00,0.8337
5025.00,0.8312
5024.00,0.8287
5023.00,0.8263
5022.00,0.8239
5021.00,0.8215
5020.00,0.8193
5019.00,0.8171
5018.00,0.8151
5017.00,0.8132
5016.00,0.8114
5015.00,0.8097
5014.00,0.8080
5013.00,0.8064
5012.00,0.8049
5011.00,0.8035
5010.00,0.8021
5009.00,0.8009
5008.00,0.7997
5007.00,0.7987
5006.00,0.7977
5005.00,0.7969
5004.00,0.7961
5003.00,0.7954
5002.00,0.7949
5001.00,0.7945
5000.00,0.7943
4999.00,0.7941
4998.00,0.7940
4997.00,0.7939
4996.00,0.7940
4995.00,0.7941
4994.00,0.7944
4993.00,0.7948
4992.00,0.7954
4991.00,0.7960
4990.00,0.7967
4989.00,0.7976
4988.00,0.7987
4987.00,0.7998
4986.00,0.8011
4985.00,0.8025
4984.00,0.8040
4983.00,0.8055
4982.00,0.8072
4981.00,0.8090
4980.00,0.8110
4979.00,0.8130
4978.00,0.8153
4977.00,0.8176
4976.00,0.8200
4975.00,0.8224
4974.00,0.8250
4973.00,0.8277
4972.00,0.8305
4971.00,0.8333
4970.00,0.8361
4969.00,0.8391
4968.00,0.8422
4967.00,0.8455
4966.00,0.8489
4965.00,0.8524
4964.00,0.8560
4963.00,0.8596
4962.00,0.8633
4961.00,0.8672
4960.00,0.8712
4959.00,0.8752
4958.00,0.8793
4957.00,0.8835
4956.00,0.8876
4955.00,0.8918
4954.00,0.8961
4953.00,0.9005
4952.00,0.9051
4951.00,0.9099
4950.00,0.9147
4949.00,0.9196
4948.00,0.9246
4947.00,0.9295
4946.00,0.9344
4945.00,0.9394
4944.00,0.9444
4943.00,0.9495
4942.00,0.9547
4941.00,0.9601
4940.00,0.9655
4939.00,0.9710
4938.00,0.9765
4937.00,0.9821
4936.00,0.9877
4935.00,0.9933
4934.00,0.9989
4933.00,1.0045
4932.00,1.0102
4931.00,1.0158
4930.00,1.0216
4929.00,1.0274
4928.00,1.0332
4927.00,1.0391
4926.00,1.0450
4925.00,1.0510
4924.00,1.0570
4923.00,1.0631
4922.00,1.0692
4921.00,1.0753
4920.00,1.0814
4919.00,1.0874
4918.00,1.0934
4917.00,1.0994
4916.00,1.1054
4915.00,1.1114
4914.00,1.1174
4913.00,1.1235
4912.00,1.1296
4911.00,1.1356
4910.00,1.1416
4909.00,1.1475
4908.00,1.1534
4907.00,1.1594
4906.00,1.1654
4905.00,1.1713
4904.00,1.1772
4903.00,1.1830
4902.00,1.1887
4901.00,1.1945
4900.00,1.2003
4899.00,1.2060
4898.00,1.2117
4897.00,1.2174
4896.00,1.2229
4895.00,1.2285
4894.00,1.2340
4893.00,1.2396
4892.00,1.2451
4891.00,1.2505
4890.00,1.2557
4889.00,1.2608
4888.00,1.2658
4887.00,1.2708
4886.00,1.2757
4885.00,1.2808
4884.00,1.2859
4883.00,1.2909
4882.00,1.2958
4881.00,1.3007
4880.00,1.3054
4879.00,1.3101
4878.00,1.3146
4877.00,1.3191
4876.00,1.3236
4875.00,1.3280
4874.00,1.3324
4873.00,1.3367
4872.00,1.3409
4871.00,1.3450
4870.00,1.3489
4869.00,1.3529
4868.00,1.3569
4867.00,1.3608
4866.00,1.3645
4865.00,1.3683
4864.00,1.3719
4863.00,1.3756
4862.00,1.3792
4861.00,1.3827
4860.00,1.3861
4859.00,1.3894
4858.00,1.3926
4857.00,1.3957
4856.00,1.3987
4855.00,1.4017
4854.00,1.4048
4853.00,1.4080
4852.00,1.4112
4851.00,1.4143
4850.00,1.4173
4849.00,1.4201
4848.00,1.4229
4847.00,1.4255
4846.00,1.4279
4845.00,1.4301
4844.00,1.4321
4843.00,1.4341
4842.00,1.4362
4841.00,1.4385
4840.00,1.4409
4839.00,1.4434
4838.00,1.4456
4837.00,1.4477
4836.00,1.4497
4835.00,1.4515
4834.00,1.4530
4833.00,1.4544
4832.00,1.4558
4831.00,1.4572
4830.00,1.4588
4829.00,1.4604
4828.00,1.4620
4827.00,1.4635
4826.00,1.4649
4825.00,1.4662
4824.00,1.4673
4823.00,1.4684
4822.00,1.4695
4821.00,1.4705
4820.00,1.4715
4819.00,1.4724
4818.00,1.4733
4817.00,1.4742
4816.00,1.4750
4815.00,1.4755
4814.00,1.4759
4813.00,1.4760
4812.00,1.4760
4811.00,1.4759
4810.00,1.4760
4809.00,1.4762
4808.00,1.4766
4807.00,1.4769
4806.00,1.4771
4805.00,1.4773
4804.00,1.4773
4803.00,1.4772
4802.00,1.4771
4801.00,1.4770
4800.00,1.4768
4799.00,1.4765
4798.00,1.4762
4797.00,1.4758
4796.00,1.4752
4795.00,1.4745
4794.00,1.4737
4793.00,1.4729
4792.00,1.4720
4791.00,1.4709
4790.00,1.4698
4789.00,1.4688
4788.00,1.4677
4787.00,1.4666
4786.00,1.4656
4785.00,1.4644
4784.00,1.4632
4783.00,1.4618
4782.00,1.4604
4781.00,1.4591
4780.00,1.4576
4779.00,1.4560
4778.00,1.4543
4777.00,1.4525
4776.00,1.4505
4775.00,1.4485
4774.00,1.4465
4773.00,1.4445
4772.00,1.4423
4771.00,1.4398
4770.00,1.4373
4769.00,1.4348
4768.00,1.4324
4767.00,1.4300
4766.00,1.4277
4765.00,1.4254
4764.00,1.4231
4763.00,1.4206
4762.00,1.4180
4761.00,1.4152
4760.00,1.4123
4759.00,1.4092
4758.00,1.4062
4757.00,1.4032
4756.00,1.4002
4755.00,1.3969
4754.00,1.3935
4753.00,1.3901
4752.00,1.3866
4751.00,1.3832
4750.00,1.3797
4749.00,1.3761
4748.00,1.3724
4747.00,1.3686
4746.00,1.3647
4745.00,1.3609
4744.00,1.3570
4743.00,1.3530
4742.00,1.3490
4741.00,1.3449
4740.00,1.3408
4739.00,1.3365
4738.00,1.3321
4737.00,1.3276
4736.00,1.3231
4735.00,1.3185
4734.00,1.3140
4733.00,1.3093
4732.00,1.3044
4731.00,1.2994
4730.00,1.2944
4729.00,1.2893
4728.00,1.2844
4727.00,1.2794
4726.00,1.2744
4725.00,1.2693
4724.00,1.2640
4723.00,1.2587
4722.00,1.2533
4721.00,1.2481
4720.00,1.2428
4719.00,1.2374
4718.00,1.2319
4717.00,1.2264
4716.00,1.2207
4715.00,1.2151
4714.00,1.2094
4713.00,1.2036
4712.00,1.1977
4711.00,1.1917
4710.00,1.1857
4709.00,1.1798
4708.00,1.1740
4707.00,1.1681
4706.00,1.1623
4705.00,1.1564
4704.00,1.1505
4703.00,1.1446
4702.00,1.1387
4701.00,1.1329
4700.00,1.1270
4699.00,1.1210
4698.00,1.1151
4697.00,1.1092
4696.00,1.1034
4695.00,1.0976
4694.00,1.0920
4693.00,1.0865
4692.00,1.0811
4691.00,1.0756
4690.00,1.0702
4689.00,1.0648
4688.00,1.0595
4687.00,1.0543
4686.00,1.0491
4685.00,1.0439
4684.00,1.0387
4683.00,1.0336
4682.00,1.0285
4681.00,1.0234
4680.00,1.0182
4679.00,1.0132
4678.00,1.0081
4677.00,1.0032
4676.00,0.9983
4675.00,0.9934
4674.00,0.9885
4673.00,0.9836
4672.00,0.9787
4671.00,0.9738
4670.00,0.9689
4669.00,0.9640
4668.00,0.9592
4667.00,0.9544
4666.00,0.9498
4665.00,0.9451
4664.00,0.9404
4663.00,0.9358
4662.00,0.9311
4661.00,0.9265
4660.00,0.9219
4659.00,0.9174
4658.00,0.9128
4657.00,0.9083
4656.00,0.9038
4655.00,0.8994
4654.00,0.8952
4653.00,0.8910
4652.00,0.8868
4651.00,0.8827
4650.00,0.8787
4649.00,0.8747
4648.00,0.8708
4647.00,0.8669
4646.00,0.8631
4645.00,0.8594
4644.00,0.8557
4643.00,0.8521
4642.00,0.8487
4641.00,0.8454
4640.00,0.8421
4639.00,0.8390
4638.00,0.8358
4637.00,0.8329
4636.00,0.8300
4635.00,0.8272
4634.00,0.8245
4633.00,0.8219
4632.00,0.8195
4631.00,0.8171
4630.00,0.8148
4629.00,0.8126
4628.00,0.8106
4627.00,0.8086
4626.00,0.8068
4625.00,0.8051
4624.00,0.8035
4623.00,0.8021
4622.00,0.8008
4621.00,0.7997
4620.00,0.7986
4619.00,0.7977
4618.00,0.7969
4617.00,0.7962
4616.00,0.7957
4615.00,0.7954
4614.00,0.7952
4613.00,0.7951
4612.00,0.7952
4611.00,0.7953
4610.00,0.7956
4609.00,0.7961
4608.00,0.7967
4607.00,0.7974
4606.00,0.7983
4605.00,0.7992
4604.00,0.8003
4603.00,0.8016
4602.00,0.8030
4601.00,0.8047
4600.00,0.8064
4599.00,0.8083
4598.00,0.8103
4597.00,0.8125
4596.00,0.8147
4595.00,0.8172
4594.00,0.8198
4593.00,0.8225
4592.00,0.8254
4591.00,0.8283
4590.00,0.8314
4589.00,0.8346
4588.00,0.8379
4587.00,0.8413
4586.00,0.8449
4585.00,0.8486
4584.00,0.8525
4583.00,0.8565
4582.00,0.8605
4581.00,0.8647
4580.00,0.8690
4579.00,0.8734
4578.00,0.8779
4577.00,0.8825
4576.00,0.8872
4575.00,0.8920
4574.00,0.8969
4573.00,0.9020
4572.00,0.9071
4571.00,0.9124
4570.00,0.9178
4569.00,0.9233
4568.00,0.9289
4567.00,0.9345
4566.00,0.9401
4565.00,0.9458
4564.00,0.9516
4563.00,0.9574
4562.00,0.9634
4561.00,0.9696
4560.00,0.9758
4559.00,0.9822
4558.00,0.9886
4557.00,0.9951
4556.00,1.0015
4555.00,1.0079
4554.00,1.0144
4553.00,1.0210
4552.00,1.0277
4551.00,1.0344
4550.00,1.0412
4549.00,1.0482
4548.00,1.0551
4547.00,1.0621
4546.00,1.0691
4545.00,1.0761
4544.00,1.0831
4543.00,1.0901
4542.00,1.0971
4541.00,1.1042
4540.00,1.1113
4539.00,1.1185
4538.00,1.1257
4537.00,1.1329
4536.00,1.1401
4535.00,1.1472
4534.00,1.1544
4533.00,1.1614
4532.00,1.1684
4531.00,1.1755
4530.00,1.1825
4529.00,1.1895
4528.00,1.1965
4527.00,1.2035
4526.00,1.2104
4525.00,1.2174
4524.00,1.2244
4523.00,1.2314
4522.00,1.2383
4521.00,1.2451
4520.00,1.2518
4519.00,1.2584
4518.00,1.2650
4517.00,1.2715
4516.00,1.2779
4515.00,1.2843
4514.00,1.2908
4513.00,1.2972
4512.00,1.3036
4511.00,1.3100
4510.00,1.3162
4509.00,1.3224
4508.00,1.3286
4507.00,1.3347
4506.00,1.3406
4505.00,1.3464
4504.00,1.3521
4503.00,1.3576
4502.00,1.3633
4501.00,1.3688
4500.00,1.3742
4499.00,1.3794
4498.00,1.3845
4497.00,1.3896
4496.00,1.3949
4495.00,1.4002
4494.00,1.4055
4493.00,1.4107
4492.00,1.4157
4491.00,1.4206
4490.00,1.4255
4489.00,1.4302
4488.00,1.4347
4487.00,1.4391
4486.00,1.4433
4485.00,1.4475
4484.00,1.4516
4483.00,1.4558
4482.00,1.4601
4481.00,1.4642
4480.00,1.4683
4479.00,1.4722
4478.00,1.4760
4477.00,1.4797
4476.00,1.4835
4475.00,1.4873
4474.00,1.4911
4473.00,1.4948
4472.00,1.4984
4471.00,1.5017
4470.00,1.5048
4469.00,1.5079
4468.00,1.5109
4467.00,1.5140
4466.00,1.5172
4465.00,1.5203
4464.00,1.5234
4463.00,1.5263
4462.00,1.5291
4461.00,1.5319
4460.00,1.5345
4459.00,1.5371
4458.00,1.5395
4457.00,1.5419
4456.00,1.5441
4455.00,1.5461
4454.00,1.5481
4453.00,1.5499
4452.00,1.5519
4451.00,1.5539
4450.00,1.5560
4449.00,1.5583
4448.00,1.5606
4447.00,1.5626
4446.00,1.5644
4445.00,1.5660
4444.00,1.5673
4443.00,1.5685
4442.00,1.5698
4441.00,1.5712
4440.00,1.5727
4439.00,1.5742
4438.00,1.5755
4437.00,1.5766
4436.00,1.5775
4435.00,1.5783
4434.00,1.5792
4433.00,1.5802
4432.00,1.5811
4431.00,1.5819
4430.00,1.5826
4429.00,1.5832
4428.00,1.5838
4427.00,1.5843
4426.00,1.5848
4425.00,1.5854
4424.00,1.5857
4423.00,1.5860
4422.00,1.5861
4421.00,1.5861
4420.00,1.5862
4419.00,1.5865
4418.00,1.5867
4417.00,1.5867
4416.00,1.5865
4415.00,1.5861
4414.00,1.5855
4413.00,1.5851
4412.00,1.5847
4411.00,1.5844
4410.00,1.5841
4409.00,1.5836
4408.00,1.5830
4407.00,1.5821
4406.00,1.5812
4405.00,1.5804
4404.00,1.5795
4403.00,1.5787
4402.00,1.5778
4401.00,1.5770
4400.00,1.5761
4399.00,1.5750
4398.00,1.5737
4397.00,1.5722
4396.00,1.5706
4395.00,1.5689
4394.00,1.5674
4393.00,1.5659
4392.00,1.5643
4391.00,1.5626
4390.00,1.5607
4389.00,1.5589
4388.00,1.5570
4387.00,1.5550
4386.00,1.5529
4385.00,1.5506
4384.00,1.5483
4383.00,1.5460
4382.00,1.5439
4381.00,1.5418
4380.00,1.5396
4379.00,1.5373
4378.00,1.5348
4377.00,1.5322
4376.00,1.5295
4375.00,1.5267
4374.00,1.5239
4373.00,1.5211
4372.00,1.5183
4371.00,1.5154
4370.00,1.5125
4369.00,1.5095
4368.00,1.5064
4367.00,1.5032
4366.00,1.5000
4365.00,1.4966
4364.00,1.4932
4363.00,1.4897
4362.00,1.4862
4361.00,1.4825
4360.00,1.4787
4359.00,1.4746
4358.00,1.4704
4357.00,1.4661
4356.00,1.4618
4355.00,1.4575
4354.00,1.4531
4353.00,1.4488
4352.00,1.4444
4351.00,1.4399
4350.00,1.4353
4349.00,1.4305
4348.00,1.4255
4347.00,1.4206
4346.00,1.4157
4345.00,1.4108
4344.00,1.4057
4343.00,1.4003
4342.00,1.3948
4341.00,1.3892
4340.00,1.3836
4339.00,1.3782
4338.00,1.3728
4337.00,1.3673
4336.00,1.3614
4335.00,1.3553
4334.00,1.3491
4333.00,1.3428
4332.00,1.3365
4331.00,1.3302
4330.00,1.3238
4329.00,1.3174
4328.00,1.3109
4327.00,1.3045
4326.00,1.2980
4325.00,1.2915
4324.00,1.2851
4323.00,1.2785
4322.00,1.2719
4321.00,1.2653
4320.00,1.2586
4319.00,1.2518
4318.00,1.2451
4317.00,1.2385
4316.00,1.2318
4315.00,1.2251
4314.00,1.2185
4313.00,1.2119
4312.00,1.2053
4311.00,1.1988
4310.00,1.1922
4309.00,1.1855
4308.00,1.1788
4307.00,1.1721
4306.00,1.1654
4305.00,1.1588
4304.00,1.1523
4303.00,1.1458
4302.00,1.1393
4301.00,1.1329
4300.00,1.1264
4299.00,1.1200
4298.00,1.1137
4297.00,1.1074
4296.00,1.1011
4295.00,1.0950
4294.00,1.0890
4293.00,1.0831
4292.00,1.0773
4291.00,1.0715
4290.00,1.0659
4289.00,1.0603
4288.00,1.0547
4287.00,1.0492
4286.00,1.0438
4285.00,1.0384
4284.00,1.0332
4283.00,1.0280
4282.00,1.0228
4281.00,1.0176
4280.00,1.0124
4279.00,1.0072
4278.00,1.0019
4277.00,0.9967
4276.00,0.9915
4275.00,0.9863
4274.00,0.9811
4273.00,0.9760
4272.00,0.9709
4271.00,0.9659
4270.00,0.9610
4269.00,0.9561
4268.00,0.9513
4267.00,0.9465
4266.00,0.9417
4265.00,0.9370
4264.00,0.9323
4263.00,0.9275
4262.00,0.9228
4261.00,0.9182
4260.00,0.9135
4259.00,0.9090
4258.00,0.9045
4257.00,0.9001
4256.00,0.8959
4255.00,0.8917
4254.00,0.8877
4253.00,0.8837
4252.00,0.8798
4251.00,0.8760
4250.00,0.8724
4249.00,0.8689
4248.00,0.8655
4247.00,0.8623
4246.00,0.8592
4245.00,0.8563
4244.00,0.8535
4243.00,0.8508
4242.00,0.8483
4241.00,0.8459
4240.00,0.8438
4239.00,0.8418
4238.00,0.8399
4237.00,0.8383
4236.00,0.8370
4235.00,0.8358
4234.00,0.8349
4233.00,0.8342
4232.00,0.8337
4231.00,0.8333
4230.00,0.8331
4229.00,0.8331
4228.00,0.8334
4227.00,0.8339
4226.00,0.8346
4225.00,0.8354
4224.00,0.8364
4223.00,0.8375
4222.00,0.8388
4221.00,0.8403
4220.00,0.8420
4219.00,0.8438
4218.00,0.8457
4217.00,0.8478
4216.00,0.8501
4215.00,0.8524
4214.00,0.8549
4213.00,0.8575
4212.00,0.8602
4211.00,0.8631
4210.00,0.8661
4209.00,0.8694
4208.00,0.8728
4207.00,0.8763
4206.00,0.8800
4205.00,0.8839
4204.00,0.8879
4203.00,0.8920
4202.00,0.8963
4201.00,0.9007
4200.00,0.9054
4199.00,0.9102
4198.00,0.9152
4197.00,0.9203
4196.00,0.9255
4195.00,0.9309
4194.00,0.9365
4193.00,0.9423
4192.00,0.9481
4191.00,0.9541
4190.00,0.9602
4189.00,0.9664
4188.00,0.9727
4187.00,0.9791
4186.00,0.9856
4185.00,0.9922
4184.00,0.9989
4183.00,1.0057
4182.00,1.0126
4181.00,1.0196
4180.00,1.0267
4179.00,1.0338
4178.00,1.0410
4177.00,1.0483
4176.00,1.0557
4175.00,1.0631
4174.00,1.0706
4173.00,1.0782
4172.00,1.0859
4171.00,1.0937
4170.00,1.1015
4169.00,1.1093
4168.00,1.1171
4167.00,1.1249
4166.00,1.1329
4165.00,1.1411
4164.00,1.1493
4163.00,1.1575
4162.00,1.1656
4161.00,1.1736
4160.00,1.1817
4159.00,1.1899
4158.00,1.1981
4157.00,1.2064
4156.00,1.2146
4155.00,1.2227
4154.00,1.2308
4153.00,1.2389
4152.00,1.2470
4151.00,1.2552
4150.00,1.2633
4149.00,1.2713
4148.00,1.2793
4147.00,1.2872
4146.00,1.2952
4145.00,1.3032
4144.00,1.3111
4143.00,1.3189
4142.00,1.3266
4141.00,1.3342
4140.00,1.3418
4139.00,1.3492
4138.00,1.3567
4137.00,1.3641
4136.00,1.3715
4135.00,1.3789
4134.00,1.3862
4133.00,1.3934
4132.00,1.4004
4131.00,1.4074
4130.00,1.4141
4129.00,1.4208
4128.00,1.4274
4127.00,1.4339
4126.00,1.4405
4125.00,1.4471
4124.00,1.4537
4123.00,1.4601
4122.00,1.4664
4121.00,1.4726
4120.00,1.4786
4119.00,1.4845
4118.00,1.4903
4117.00,1.4962
4116.00,1.5022
4115.00,1.5082
4114.00,1.5139
4113.00,1.5195
4112.00,1.5249
4111.00,1.5300
4110.00,1.5351
4109.00,1.5401
4108.00,1.5450
4107.00,1.5498
4106.00,1.5547
4105.00,1.5596
4104.00,1.5646
4103.00,1.5695
4102.00,1.5743
4101.00,1.5790
4100.00,1.5835
4099.00,1.5880
4098.00,1.5923
4097.00,1.5966
4096.00,1.6007
4095.00,1.6046
4094.00,1.6084
4093.00,1.6121
4092.00,1.6158
4091.00,1.6195
4090.00,1.6232
4089.00,1.6268
4088.00,1.6302
4087.00,1.6335
4086.00,1.6370
4085.00,1.6406
4084.00,1.6442
4083.00,1.6477
4082.00,1.6508
4081.00,1.6537
4080.00,1.6565
4079.00,1.6593
4078.00,1.6621
4077.00,1.6651
4076.00,1.6680
4075.00,1.6709
4074.00,1.6735
4073.00,1.6761
4072.00,1.6784
4071.00,1.6806
4070.00,1.6827
4069.00,1.6848
4068.00,1.6868
4067.00,1.6887
4066.00,1.6907
4065.00,1.6927
4064.00,1.6949
4063.00,1.6972
4062.00,1.6995
4061.00,1.7016
4060.00,1.7034
4059.00,1.7049
4058.00,1.7063
4057.00,1.7077
4056.00,1.7091
4055.00,1.7104
4054.00,1.7114
4053.00,1.7124
4052.00,1.7134
4051.00,1.7144
4050.00,1.7154
4049.00,1.7163
4048.00,1.7171
4047.00,1.7179
4046.00,1.7187
4045.00,1.7196
4044.00,1.7203
4043.00,1.7211
4042.00,1.7218
4041.00,1.7225
4040.00,1.7231
4039.00,1.7235
4038.00,1.7236
4037.00,1.7236
4036.00,1.7235
4035.00,1.7233
4034.00,1.7232
4033.00,1.7231
4032.00,1.7231
4031.00,1.7230
4030.00,1.7228
4029.00,1.7226
4028.00,1.7223
4027.00,1.7221
4026.00,1.7219
4025.00,1.7217
4024.00,1.7214
4023.00,1.7208
4022.00,1.7199
4021.00,1.7189
4020.00,1.7179
4019.00,1.7169
4018.00,1.7158
4017.00,1.7146
4016.00,1.7134
4015.00,1.7123
4014.00,1.7111
4013.00,1.7100
4012.00,1.7087
4011.00,1.7072
4010.00,1.7056
4009.00,1.7040
4008.00,1.7023
4007.00,1.7007
4006.00,1.6991
4005.00,1.6973
4004.00,1.6952
4003.00,1.6930
4002.00,1.6906
4001.00,1.6883
4000.00,1.6860
3999.00,1.6836
3998.00,1.6812
3997.00,1.6789
3996.00,1.6766
3995.00,1.6743
3994.00,1.6719
3993.00,1.6694
3992.00,1.6667
3991.00,1.6639
3990.00,1.6608
3989.00,1.6574
3988.00,1.6540
3987.00,1.6507
3986.00,1.6476
3985.00,1.6446
3984.00,1.6415
3983.00,1.6381
3982.00,1.6344
3981.00,1.6306
3980.00,1.6268
3979.00,1.6229
3978.00,1.6190
3977.00,1.6151
3976.00,1.6110
3975.00,1.6069
3974.00,1.6026
3973.00,1.5983
3972.00,1.5938
3971.00,1.5890
3970.00,1.5841
3969.00,1.5792
3968.00,1.5743
3967.00,1.5696
3966.00,1.5648
3965.00,1.5600
3964.00,1.5549
3963.00,1.5498
3962.00,1.5446
3961.00,1.5394
3960.00,1.5342
3959.00,1.5290
3958.00,1.5235
3957.00,1.5179
3956.00,1.5122
3955.00,1.5065
3954.00,1.5006
3953.00,1.4945
3952.00,1.4883
3951.00,1.4821
3950.00,1.4760
3949.00,1.4697
3948.00,1.4633
3947.00,1.4567
3946.00,1.4500
3945.00,1.4431
3944.00,1.4362
3943.00,1.4292
3942.00,1.4222
3941.00,1.4151
3940.00,1.4078
3939.00,1.4003
3938.00,1.3929
3937.00,1.3854
3936.00,1.3778
3935.00,1.3701
3934.00,1.3623
3933.00,1.3545
3932.00,1.3467
3931.00,1.3388
3930.00,1.3309
3929.00,1.3228
3928.00,1.3147
3927.00,1.3066
3926.00,1.2983
3925.00,1.2899
3924.00,1.2816
3923.00,1.2732
3922.00,1.2649
3921.00,1.2565
3920.00,1.2480
3919.00,1.2396
3918.00,1.2312
3917.00,1.2229
3916.00,1.2146
3915.00,1.2064
3914.00,1.1982
3913.00,1.1899
3912.00,1.1816
3911.00,1.1734
3910.00,1.1652
3909.00,1.1572
3908.00,1.1492
3907.00,1.1413
3906.00,1.1335
3905.00,1.1258
3904.00,1.1183
3903.00,1.1108
3902.00,1.1035
3901.00,1.0962
3900.00,1.0889
3899.00,1.0817
3898.00,1.0744
3897.00,1.0672
3896.00,1.0601
3895.00,1.0532
3894.00,1.0465
3893.00,1.0400
3892.00,1.0334
3891.00,1.0269
3890.00,1.0204
3889.00,1.0142
3888.00,1.0084
3887.00,1.0027
3886.00,0.9969
3885.00,0.9909
3884.00,0.9847
3883.00,0.9789
3882.00,0.9733
3881.00,0.9677
3880.00,0.9618
3879.00,0.9558
3878.00,0.9500
3877.00,0.9448
3876.00,0.9402
3875.00,0.9356
3874.00,0.9310
3873.00,0.9264
3872.00,0.9221
3871.00,0.9178
3870.00,0.9132
3869.00,0.9083
3868.00,0.9036
3867.00,0.8994
3866.00,0.8959
3865.00,0.8924
3864.00,0.8886
3863.00,0.8845
3862.00,0.8806
3861.00,0.8771
3860.00,0.8741
3859.00,0.8716
3858.00,0.8698
3857.00,0.8691
3856.00,0.8694
3855.00,0.8698
3854.00,0.8690
3853.00,0.8662
3852.00,0.8626
3851.00,0.8595
3850.00,0.8576
3849.00,0.8564
3848.00,0.8553
3847.00,0.8542
3846.00,0.8533
3845.00,0.8531
3844.00,0.8535
3843.00,0.8544
3842.00,0.8555
3841.00,0.8571
3840.00,0.8592
3839.00,0.8615
3838.00,0.8637
3837.00,0.8657
3836.00,0.8677
3835.00,0.8702
3834.00,0.8731
3833.00,0.8762
3832.00,0.8792
3831.00,0.8823
3830.00,0.8857
3829.00,0.8895
3828.00,0.8937
3827.00,0.8983
3826.00,0.9030
3825.00,0.9080
3824.00,0.9133
3823.00,0.9190
3822.00,0.9252
3821.00,0.9316
3820.00,0.9380
3819.00,0.9443
3818.00,0.9507
3817.00,0.9574
3816.00,0.9645
3815.00,0.9716
3814.00,0.9787
3813.00,0.9857
3812.00,0.9926
3811.00,0.9992
3810.00,1.0057
3809.00,1.0122
3808.00,1.0197
3807.00,1.0282
3806.00,1.0374
3805.00,1.0466
3804.00,1.0552
3803.00,1.0636
3802.00,1.0724
3801.00,1.0820
3800.00,1.0922
3799.00,1.1022
3798.00,1.1117
3797.00,1.1208
3796.00,1.1297
3795.00,1.1385
3794.00,1.1475
3793.00,1.1567
3792.00,1.1661
3791.00,1.1756
3790.00,1.1852
3789.00,1.1947
3788.00,1.2045
3787.00,1.2143
3786.00,1.2243
3785.00,1.2345
3784.00,1.2447
3783.00,1.2549
3782.00,1.2649
3781.00,1.2750
3780.00,1.2853
3779.00,1.2959
3778.00,1.3066
3777.00,1.3172
3776.00,1.3275
3775.00,1.3375
3774.00,1.3472
3773.00,1.3566
3772.00,1.3658
3771.00,1.3752
3770.00,1.3850
3769.00,1.3952
3768.00,1.4054
3767.00,1.4152
3766.00,1.4247
3765.00,1.4341
3764.00,1.4434
3763.00,1.4525
3762.00,1.4611
3761.00,1.4697
3760.00,1.4783
3759.00,1.4870
3758.00,1.4959
3757.00,1.5048
3756.00,1.5134
3755.00,1.5213
3754.00,1.5289
3753.00,1.5366
3752.00,1.5448
3751.00,1.5540
3750.00,1.5639
3749.00,1.5739
3748.00,1.5831
3747.00,1.5907
3746.00,1.5972
3745.00,1.6037
3744.00,1.6109
3743.00,1.6190
3742.00,1.6270
3741.00,1.6343
3740.00,1.6403
3739.00,1.6450
3738.00,1.6493
3737.00,1.6539
3736.00,1.6597
3735.00,1.6662
3734.00,1.6731
3733.00,1.6796
3732.00,1.6857
3731.00,1.6913
3730.00,1.6966
3729.00,1.7016
3728.00,1.7062
3727.00,1.7106
3726.00,1.7150
3725.00,1.7195
3724.00,1.7243
3723.00,1.7292
3722.00,1.7342
3721.00,1.7390
3720.00,1.7435
3719.00,1.7480
3718.00,1.7527
3717.00,1.7575
3716.00,1.7624
3715.00,1.7671
3714.00,1.7716
3713.00,1.7764
3712.00,1.7815
3711.00,1.7868
3710.00,1.7918
3709.00,1.7964
3708.00,1.8004
3707.00,1.8041
3706.00,1.8079
3705.00,1.8116
3704.00,1.8149
3703.00,1.8179
3702.00,1.8208
3701.00,1.8239
3700.00,1.8272
3699.00,1.8307
3698.00,1.8342
3697.00,1.8376
3696.00,1.8406
3695.00,1.8432
3694.00,1.8458
3693.00,1.8486
3692.00,1.8518
3691.00,1.8552
3690.00,1.8588
3689.00,1.8626
3688.00,1.8666
3687.00,1.8704
3686.00,1.8737
3685.00,1.8763
3684.00,1.8782
3683.00,1.8795
3682.00,1.8807
3681.00,1.8822
3680.00,1.8841
3679.00,1.8863
3678.00,1.8884
3677.00,1.8906
3676.00,1.8929
3675.00,1.8956
3674.00,1.8986
3673.00,1.9013
3672.00,1.9032
3671.00,1.9044
3670.00,1.9053
3669.00,1.9064
3668.00,1.9077
3667.00,1.9090
3666.00,1.9097
3665.00,1.9097
3664.00,1.9093
3663.00,1.9088
3662.00,1.9089
3661.00,1.9094
3660.00,1.9102
3659.00,1.9108
3658.00,1.9111
3657.00,1.9112
3656.00,1.9113
3655.00,1.9115
3654.00,1.9122
3653.00,1.9131
3652.00,1.9136
3651.00,1.9136
3650.00,1.9132
3649.00,1.9127
3648.00,1.9125
3647.00,1.9125
3646.00,1.9127
3645.00,1.9125
3644.00,1.9116
3643.00,1.9103
3642.00,1.9090
3641.00,1.9081
3640.00,1.9074
3639.00,1.9066
3638.00,1.9055
3637.00,1.9042
3636.00,1.9029
3635.00,1.9014
3634.00,1.8998
3633.00,1.8983
3632.00,1.8970
3631.00,1.8958
3630.00,1.8947
3629.00,1.8934
3628.00,1.8918
3627.00,1.8902
3626.00,1.8884
3625.00,1.8864
3624.00,1.8840
3623.00,1.8811
3622.00,1.8782
3621.00,1.8756
3620.00,1.8732
3619.00,1.8711
3618.00,1.8693
3617.00,1.8675
3616.00,1.8655
3615.00,1.8632
3614.00,1.8606
3613.00,1.8580
3612.00,1.8556
3611.00,1.8535
3610.00,1.8516
3609.00,1.8494
3608.00,1.8466
3607.00,1.8432
3606.00,1.8396
3605.00,1.8362
3604.00,1.8332
3603.00,1.8302
3602.00,1.8270
3601.00,1.8234
3600.00,1.8196
3599.00,1.8156
3598.00,1.8116
3597.00,1.8076
3596.00,1.8033
3595.00,1.7991
3594.00,1.7950
3593.00,1.7912
3592.00,1.7876
3591.00,1.7838
3590.00,1.7798
3589.00,1.7755
3588.00,1.7710
3587.00,1.7663
3586.00,1.7616
3585.00,1.7569
3584.00,1.7521
3583.00,1.7473
3582.00,1.7422
3581.00,1.7371
3580.00,1.7319
3579.00,1.7268
3578.00,1.7216
3577.00,1.7162
3576.00,1.7105
3575.00,1.7045
3574.00,1.6985
3573.00,1.6925
3572.00,1.6865
3571.00,1.6803
3570.00,1.6740
3569.00,1.6675
3568.00,1.6608
3567.00,1.6539
3566.00,1.6469
3565.00,1.6399
3564.00,1.6327
3563.00,1.6254
3562.00,1.6181
3561.00,1.6108
3560.00,1.6034
3559.00,1.5959
3558.00,1.5883
3557.00,1.5806
3556.00,1.5725
3555.00,1.5643
3554.00,1.5560
3553.00,1.5478
3552.00,1.5395
3551.00,1.5313
3550.00,1.5230
3549.00,1.5145
3548.00,1.5058
3547.00,1.4970
3546.00,1.4881
3545.00,1.4793
3544.00,1.4705
3543.00,1.4616
3542.00,1.4527
3541.00,1.4439
3540.00,1.4350
3539.00,1.4262
3538.00,1.4173
3537.00,1.4084
3536.00,1.3995
3535.00,1.3905
3534.00,1.3816
3533.00,1.3726
3532.00,1.3637
3531.00,1.3549
3530.00,1.3462
3529.00,1.3376
3528.00,1.3290
3527.00,1.3204
3526.00,1.3120
3525.00,1.3035
3524.00,1.2951
3523.00,1.2867
3522.00,1.2784
3521.00,1.2702
3520.00,1.2622
3519.00,1.2544
3518.00,1.2466
3517.00,1.2389
3516.00,1.2313
3515.00,1.2237
3514.00,1.2162
3513.00,1.2087
3512.00,1.2014
3511.00,1.1941
3510.00,1.1869
3509.00,1.1798
3508.00,1.1727
3507.00,1.1657
3506.00,1.1588
3505.00,1.1519
3504.00,1.1451
3503.00,1.1383
3502.00,1.1316
3501.00,1.1251
3500.00,1.1189
3499.00,1.1129
3498.00,1.1071
3497.00,1.1013
3496.00,1.0955
3495.00,1.0898
3494.00,1.0842
3493.00,1.0788
3492.00,1.0736
3491.00,1.0686
3490.00,1.0637
3489.00,1.0590
3488.00,1.0543
3487.00,1.0498
3486.00,1.0455
3485.00,1.0414
3484.00,1.0376
3483.00,1.0340
3482.00,1.0305
3481.00,1.0271
3480.00,1.0240
3479.00,1.0211
3478.00,1.0184
3477.00,1.0161
3476.00,1.0140
3475.00,1.0121
3474.00,1.0104
3473.00,1.0090
3472.00,1.0078
3471.00,1.0068
3470.00,1.0061
3469.00,1.0057
3468.00,1.0056
3467.00,1.0058
3466.00,1.0064
3465.00,1.0073
3464.00,1.0085
3463.00,1.0100
3462.00,1.0118
3461.00,1.0138
3460.00,1.0162
3459.00,1.0189
3458.00,1.0220
3457.00,1.0254
3456.00,1.0291
3455.00,1.0331
3454.00,1.0374
3453.00,1.0420
3452.00,1.0468
3451.00,1.0520
3450.00,1.0574
3449.00,1.0631
3448.00,1.0690
3447.00,1.0753
3446.00,1.0817
3445.00,1.0885
3444.00,1.0954
3443.00,1.1027
3442.00,1.1102
3441.00,1.1180
3440.00,1.1259
3439.00,1.1341
3438.00,1.1425
3437.00,1.1512
3436.00,1.1602
3435.00,1.1694
3434.00,1.1789
3433.00,1.1886
3432.00,1.1985
3431.00,1.2087
3430.00,1.2192
3429.00,1.2299
3428.00,1.2407
3427.00,1.2518
3426.00,1.2630
3425.00,1.2743
3424.00,1.2858
3423.00,1.2973
3422.00,1.3088
3421.00,1.3204
3420.00,1.3320
3419.00,1.3437
3418.00,1.3554
3417.00,1.3669
3416.00,1.3782
3415.00,1.3892
3414.00,1.3999
3413.00,1.4104
3412.00,1.4207
3411.00,1.4306
3410.00,1.4400
3409.00,1.4490
3408.00,1.4574
3407.00,1.4654
3406.00,1.4729
3405.00,1.4801
3404.00,1.4870
3403.00,1.4935
3402.00,1.4998
3401.00,1.5060
3400.00,1.5122
3399.00,1.5185
3398.00,1.5250
3397.00,1.5316
3396.00,1.5384
3395.00,1.5453
3394.00,1.5525
3393.00,1.5600
3392.00,1.5677
3391.00,1.5756
3390.00,1.5837
3389.00,1.5920
3388.00,1.6005
3387.00,1.6091
3386.00,1.6178
3385.00,1.6264
3384.00,1.6351
3383.00,1.6437
3382.00,1.6523
3381.00,1.6611
3380.00,1.6698
3379.00,1.6785
3378.00,1.6870
3377.00,1.6954
3376.00,1.7037
3375.00,1.7120
3374.00,1.7202
3373.00,1.7283
3372.00,1.7362
3371.00,1.7439
3370.00,1.7516
3369.00,1.7592
3368.00,1.7668
3367.00,1.7742
3366.00,1.7815
3365.00,1.7887
3364.00,1.7957
3363.00,1.8026
3362.00,1.8095
3361.00,1.8164
3360.00,1.8233
3359.00,1.8298
3358.00,1.8359
3357.00,1.8418
3356.00,1.8478
3355.00,1.8539
3354.00,1.8602
3353.00,1.8664
3352.00,1.8723
3351.00,1.8778
3350.00,1.8833
3349.00,1.8889
3348.00,1.8949
3347.00,1.9008
3346.00,1.9063
3345.00,1.9112
3344.00,1.9157
3343.00,1.9202
3342.00,1.9248
3341.00,1.9296
3340.00,1.9345
3339.00,1.9393
3338.00,1.9442
3337.00,1.9490
3336.00,1.9535
3335.00,1.9579
3334.00,1.9622
3333.00,1.9663
3332.00,1.9701
3331.00,1.9737
3330.00,1.9772
3329.00,1.9807
3328.00,1.9839
3327.00,1.9870
3326.00,1.9903
3325.00,1.9938
3324.00,1.9976
3323.00,2.0013
3322.00,2.0048
3321.00,2.0079
3320.00,2.0109
3319.00,2.0140
3318.00,2.0173
3317.00,2.0207
3316.00,2.0238
3315.00,2.0268
3314.00,2.0296
3313.00,2.0324
3312.00,2.0349
3311.00,2.0370
3310.00,2.0389
3309.00,2.0411
3308.00,2.0435
3307.00,2.0461
3306.00,2.0486
3305.00,2.0508
3304.00,2.0526
3303.00,2.0540
3302.00,2.0553
3301.00,2.0568
3300.00,2.0586
3299.00,2.0608
3298.00,2.0629
3297.00,2.0647
3296.00,2.0662
3295.00,2.0677
3294.00,2.0694
3293.00,2.0713
3292.00,2.0730
3291.00,2.0744
3290.00,2.0755
3289.00,2.0764
3288.00,2.0771
3287.00,2.0776
3286.00,2.0781
3285.00,2.0789
3284.00,2.0798
3283.00,2.0807
3282.00,2.0816
3281.00,2.0825
3280.00,2.0838
3279.00,2.0850
3278.00,2.0856
3277.00,2.0854
3276.00,2.0849
3275.00,2.0845
3274.00,2.0845
3273.00,2.0847
3272.00,2.0848
3271.00,2.0848
3270.00,2.0846
3269.00,2.0845
3268.00,2.0842
3267.00,2.0838
3266.00,2.0835
3265.00,2.0832
3264.00,2.0828
3263.00,2.0824
3262.00,2.0819
3261.00,2.0813
3260.00,2.0805
3259.00,2.0794
3258.00,2.0784
3257.00,2.0774
3256.00,2.0765
3255.00,2.0755
3254.00,2.0744
3253.00,2.0732
3252.00,2.0721
3251.00,2.0710
3250.00,2.0699
3249.00,2.0686
3248.00,2.0670
3247.00,2.0652
3246.00,2.0632
3245.00,2.0611
3244.00,2.0588
3243.00,2.0566
3242.00,2.0544
3241.00,2.0523
3240.00,2.0500
3239.00,2.0476
3238.00,2.0453
3237.00,2.0431
3236.00,2.0409
3235.00,2.0386
3234.00,2.0363
3233.00,2.0340
3232.00,2.0316
3231.00,2.0290
3230.00,2.0262
3229.00,2.0231
3228.00,2.0199
3227.00,2.0169
3226.00,2.0140
3225.00,2.0110
3224.00,2.0078
3223.00,2.0042
3222.00,2.0004
3221.00,1.9963
3220.00,1.9922
3219.00,1.9883
3218.00,1.9846
3217.00,1.9809
3216.00,1.9771
3215.00,1.9729
3214.00,1.9684
3213.00,1.9638
3212.00,1.9591
3211.00,1.9542
3210.00,1.9494
3209.00,1.9446
3208.00,1.9399
3207.00,1.9350
3206.00,1.9301
3205.00,1.9250
3204.00,1.9199
3203.00,1.9146
3202.00,1.9092
3201.00,1.9034
3200.00,1.8975
3199.00,1.8913
3198.00,1.8851
3197.00,1.8787
3196.00,1.8721
3195.00,1.8654
3194.00,1.8586
3193.00,1.8518
3192.00,1.8450
3191.00,1.8380
3190.00,1.8310
3189.00,1.8238
3188.00,1.8165
3187.00,1.8090
3186.00,1.8011
3185.00,1.7929
3184.00,1.7845
3183.00,1.7761
3182.00,1.7679
3181.00,1.7597
3180.00,1.7513
3179.00,1.7424
3178.00,1.7333
3177.00,1.7240
3176.00,1.7146
3175.00,1.7052
3174.00,1.6955
3173.00,1.6858
3172.00,1.6759
3171.00,1.6658
3170.00,1.6556
3169.00,1.6454
3168.00,1.6351
3167.00,1.6246
3166.00,1.6140
3165.00,1.6032
3164.00,1.5921
3163.00,1.5807
3162.00,1.5693
3161.00,1.5577
3160.00,1.5462
3159.00,1.5347
3158.00,1.5231
3157.00,1.5116
3156.00,1.5000
3155.00,1.4884
3154.00,1.4767
3153.00,1.4650
3152.00,1.4534
3151.00,1.4418
3150.00,1.4303
3149.00,1.4188
3148.00,1.4075
3147.00,1.3962
3146.00,1.3850
3145.00,1.3739
3144.00,1.3629
3143.00,1.3520
3142.00,1.3414
3141.00,1.3308
3140.00,1.3204
3139.00,1.3100
3138.00,1.2998
3137.00,1.2897
3136.00,1.2799
3135.00,1.2702
3134.00,1.2608
3133.00,1.2514
3132.00,1.2422
3131.00,1.2331
3130.00,1.2242
3129.00,1.2155
3128.00,1.2069
3127.00,1.1985
3126.00,1.1902
3125.00,1.1821
3124.00,1.1742
3123.00,1.1666
3122.00,1.1590
3121.00,1.1517
3120.00,1.1445
3119.00,1.1375
3118.00,1.1307
3117.00,1.1242
3116.00,1.1179
3115.00,1.1118
3114.00,1.1059
3113.00,1.1002
3112.00,1.0947
3111.00,1.0896
3110.00,1.0848
3109.00,1.0803
3108.00,1.0761
3107.00,1.0722
3106.00,1.0686
3105.00,1.0653
3104.00,1.0625
3103.00,1.0600
3102.00,1.0579
3101.00,1.0563
3100.00,1.0550
3099.00,1.0543
3098.00,1.0539
3097.00,1.0541
3096.00,1.0547
3095.00,1.0558
3094.00,1.0575
3093.00,1.0598
3092.00,1.0626
3091.00,1.0660
3090.00,1.0698
3089.00,1.0742
3088.00,1.0791
3087.00,1.0845
3086.00,1.0904
3085.00,1.0968
3084.00,1.1037
3083.00,1.1109
3082.00,1.1186
3081.00,1.1268
3080.00,1.1355
3079.00,1.1446
3078.00,1.1540
3077.00,1.1638
3076.00,1.1740
3075.00,1.1845
3074.00,1.1955
3073.00,1.2070
3072.00,1.2189
3071.00,1.2312
3070.00,1.2437
3069.00,1.2566
3068.00,1.2698
3067.00,1.2834
3066.00,1.2971
3065.00,1.3111
3064.00,1.3252
3063.00,1.3394
3062.00,1.3539
3061.00,1.3686
3060.00,1.3835
3059.00,1.3984
3058.00,1.4135
3057.00,1.4286
3056.00,1.4438
3055.00,1.4591
3054.00,1.4744
3053.00,1.4897
3052.00,1.5050
3051.00,1.5203
3050.00,1.5356
3049.00,1.5508
3048.00,1.5660
3047.00,1.5812
3046.00,1.5965
3045.00,1.6119
3044.00,1.6273
3043.00,1.6426
3042.00,1.6579
3041.00,1.6731
3040.00,1.6882
3039.00,1.7032
3038.00,1.7181
3037.00,1.7328
3036.00,1.7473
3035.00,1.7617
3034.00,1.7759
3033.00,1.7898
3032.00,1.8034
3031.00,1.8167
3030.00,1.8296
3029.00,1.8424
3028.00,1.8552
3027.00,1.8678
3026.00,1.8802
3025.00,1.8922
3024.00,1.9041
3023.00,1.9158
3022.00,1.9275
3021.00,1.9390
3020.00,1.9502
3019.00,1.9610
3018.00,1.9717
3017.00,1.9827
3016.00,1.9937
3015.00,2.0047
3014.00,2.0154
3013.00,2.0259
3012.00,2.0361
3011.00,2.0460
3010.00,2.0556
3009.00,2.0652
3008.00,2.0749
3007.00,2.0849
3006.00,2.0949
3005.00,2.1048
3004.00,2.1141
3003.00,2.1226
3002.00,2.1307
3001.00,2.1388
3000.00,2.1472
2999.00,2.1558
2998.00,2.1645
2997.00,2.1731
2996.00,2.1814
2995.00,2.1897
2994.00,2.1980
2993.00,2.2063
2992.00,2.2145
2991.00,2.2223
2990.00,2.2294
2989.00,2.2358
2988.00,2.2417
2987.00,2.2476
2986.00,2.2537
2985.00,2.2603
2984.00,2.2672
2983.00,2.2740
2982.00,2.2805
2981.00,2.2869
2980.00,2.2936
2979.00,2.3007
2978.00,2.3081
2977.00,2.3158
2976.00,2.3233
2975.00,2.3309
2974.00,2.3390
2973.00,2.3485
2972.00,2.3596
2971.00,2.3727
2970.00,2.3875
2969.00,2.4041
2968.00,2.4229
2967.00,2.4442
2966.00,2.4679
2965.00,2.4930
2964.00,2.5189
2963.00,2.5459
2962.00,2.5749
2961.00,2.6059
2960.00,2.6374
2959.00,2.6671
2958.00,2.6938
2957.00,2.7174
2956.00,2.7388
2955.00,2.7587
2954.00,2.7778
2953.00,2.7970
2952.00,2.8172
2951.00,2.8397
2950.00,2.8651
2949.00,2.8918
2948.00,2.9172
2947.00,2.9404
2946.00,2.9630
2945.00,2.9864
2944.00,3.0101
2943.00,3.0332
2942.00,3.0563
2941.00,3.0795
2940.00,3.1003
2939.00,3.1150
2938.00,3.1227
2937.00,3.1242
2936.00,3.1187
2935.00,3.1049
2934.00,3.0834
2933.00,3.0570
2932.00,3.0266
2931.00,2.9915
2930.00,2.9521
2929.00,2.9105
2928.00,2.8683
2927.00,2.8253
2926.00,2.7814
2925.00,2.7371
2924.00,2.6938
2923.00,2.6526
2922.00,2.6138
2921.00,2.5773
2920.00,2.5425
2919.00,2.5096
2918.00,2.4792
2917.00,2.4523
2916.00,2.4291
2915.00,2.4093
2914.00,2.3927
2913.00,2.3793
2912.00,2.3692
2911.00,2.3624
2910.00,2.3587
2909.00,2.3572
2908.00,2.3567
2907.00,2.3563
2906.00,2.3553
2905.00,2.3541
2904.00,2.3530
2903.00,2.3526
2902.00,2.3528
2901.00,2.3535
2900.00,2.3544
2899.00,2.3552
2898.00,2.3562
2897.00,2.3578
2896.00,2.3602
2895.00,2.3631
2894.00,2.3660
2893.00,2.3689
2892.00,2.3718
2891.00,2.3748
2890.00,2.3778
2889.00,2.3807
2888.00,2.3837
2887.00,2.3869
2886.00,2.3909
2885.00,2.3958
2884.00,2.4014
2883.00,2.4072
2882.00,2.4129
2881.00,2.4184
2880.00,2.4240
2879.00,2.4303
2878.00,2.4379
2877.00,2.4474
2876.00,2.4586
2875.00,2.4711
2874.00,2.4845
2873.00,2.4984
2872.00,2.5128
2871.00,2.5284
2870.00,2.5465
2869.00,2.5681
2868.00,2.5919
2867.00,2.6151
2866.00,2.6353
2865.00,2.6512
2864.00,2.6624
2863.00,2.6677
2862.00,2.6658
2861.00,2.6559
2860.00,2.6386
2859.00,2.6156
2858.00,2.5890
2857.00,2.5604
2856.00,2.5311
2855.00,2.5019
2854.00,2.4740
2853.00,2.4483
2852.00,2.4255
2851.00,2.4059
2850.00,2.3897
2849.00,2.3773
2848.00,2.3685
2847.00,2.3625
2846.00,2.3582
2845.00,2.3550
2844.00,2.3526
2843.00,2.3511
2842.00,2.3509
2841.00,2.3517
2840.00,2.3529
2839.00,2.3538
2838.00,2.3544
2837.00,2.3550
2836.00,2.3561
2835.00,2.3573
2834.00,2.3583
2833.00,2.3590
2832.00,2.3598
2831.00,2.3608
2830.00,2.3615
2829.00,2.3615
2828.00,2.3612
2827.00,2.3610
2826.00,2.3609
2825.00,2.3605
2824.00,2.3594
2823.00,2.3576
2822.00,2.3557
2821.00,2.3543
2820.00,2.3531
2819.00,2.3514
2818.00,2.3487
2817.00,2.3456
2816.00,2.3426
2815.00,2.3401
2814.00,2.3380
2813.00,2.3360
2812.00,2.3338
2811.00,2.3313
2810.00,2.3284
2809.00,2.3254
2808.00,2.3226
2807.00,2.3200
2806.00,2.3176
2805.00,2.3148
2804.00,2.3113
2803.00,2.3073
2802.00,2.3032
2801.00,2.2994
2800.00,2.2960
2799.00,2.2927
2798.00,2.2894
2797.00,2.2857
2796.00,2.2816
2795.00,2.2772
2794.00,2.2728
2793.00,2.2686
2792.00,2.2645
2791.00,2.2604
2790.00,2.2560
2789.00,2.2511
2788.00,2.2461
2787.00,2.2409
2786.00,2.2357
2785.00,2.2300
2784.00,2.2240
2783.00,2.2179
2782.00,2.2118
2781.00,2.2058
2780.00,2.1998
2779.00,2.1937
2778.00,2.1879
2777.00,2.1823
2776.00,2.1764
2775.00,2.1697
2774.00,2.1623
2773.00,2.1546
2772.00,2.1470
2771.00,2.1394
2770.00,2.1316
2769.00,2.1239
2768.00,2.1165
2767.00,2.1094
2766.00,2.1021
2765.00,2.0943
2764.00,2.0861
2763.00,2.0776
2762.00,2.0690
2761.00,2.0600
2760.00,2.0508
2759.00,2.0414
2758.00,2.0318
2757.00,2.0218
2756.00,2.0115
2755.00,2.0010
2754.00,1.9906
2753.00,1.9799
2752.00,1.9690
2751.00,1.9576
2750.00,1.9457
2749.00,1.9337
2748.00,1.9216
2747.00,1.9095
2746.00,1.8971
2745.00,1.8842
2744.00,1.8709
2743.00,1.8574
2742.00,1.8437
2741.00,1.8298
2740.00,1.8157
2739.00,1.8015
2738.00,1.7871
2737.00,1.7728
2736.00,1.7584
2735.00,1.7439
2734.00,1.7293
2733.00,1.7145
2732.00,1.6996
2731.00,1.6845
2730.00,1.6692
2729.00,1.6536
2728.00,1.6378
2727.00,1.6220
2726.00,1.6062
2725.00,1.5904
2724.00,1.5748
2723.00,1.5593
2722.00,1.5439
2721.00,1.5287
2720.00,1.5140
2719.00,1.4996
2718.00,1.4856
2717.00,1.4719
2716.00,1.4584
2715.00,1.4450
2714.00,1.4318
2713.00,1.4189
2712.00,1.4063
2711.00,1.3939
2710.00,1.3818
2709.00,1.3699
2708.00,1.3583
2707.00,1.3470
2706.00,1.3360
2705.00,1.3254
2704.00,1.3152
2703.00,1.3052
2702.00,1.2956
2701.00,1.2861
2700.00,1.2770
2699.00,1.2682
2698.00,1.2597
2697.00,1.2516
2696.00,1.2438
2695.00,1.2364
2694.00,1.2293
2693.00,1.2227
2692.00,1.2164
2691.00,1.2105
2690.00,1.2052
2689.00,1.2006
2688.00,1.1969
2687.00,1.1943
2686.00,1.1929
2685.00,1.1926
2684.00,1.1936
2683.00,1.1958
2682.00,1.1992
2681.00,1.2037
2680.00,1.2091
2679.00,1.2151
2678.00,1.2211
2677.00,1.2269
2676.00,1.2321
2675.00,1.2366
2674.00,1.2405
2673.00,1.2438
2672.00,1.2469
2671.00,1.2496
2670.00,1.2520
2669.00,1.2537
2668.00,1.2546
2667.00,1.2545
2666.00,1.2536
2665.00,1.2525
2664.00,1.2517
2663.00,1.2517
2662.00,1.2531
2661.00,1.2559
2660.00,1.2603
2659.00,1.2661
2658.00,1.2732
2657.00,1.2816
2656.00,1.2910
2655.00,1.3013
2654.00,1.3121
2653.00,1.3233
2652.00,1.3347
2651.00,1.3461
2650.00,1.3577
2649.00,1.3694
2648.00,1.3811
2647.00,1.3929
2646.00,1.4048
2645.00,1.4168
2644.00,1.4290
2643.00,1.4416
2642.00,1.4545
2641.00,1.4679
2640.00,1.4818
2639.00,1.4962
2638.00,1.5110
2637.00,1.5264
2636.00,1.5423
2635.00,1.5586
2634.00,1.5753
2633.00,1.5923
2632.00,1.6095
2631.00,1.6270
2630.00,1.6446
2629.00,1.6623
2628.00,1.6798
2627.00,1.6971
2626.00,1.7142
2625.00,1.7313
2624.00,1.7484
2623.00,1.7654
2622.00,1.7820
2621.00,1.7981
2620.00,1.8138
2619.00,1.8291
2618.00,1.8442
2617.00,1.8588
2616.00,1.8730
2615.00,1.8869
2614.00,1.9006
2613.00,1.9140
2612.00,1.9270
2611.00,1.9396
2610.00,1.9517
2609.00,1.9636
2608.00,1.9752
2607.00,1.9865
2606.00,1.9977
2605.00,2.0088
2604.00,2.0202
2603.00,2.0319
2602.00,2.0435
2601.00,2.0546
2600.00,2.0651
2599.00,2.0754
2598.00,2.0859
2597.00,2.0966
2596.00,2.1072
2595.00,2.1178
2594.00,2.1282
2593.00,2.1383
2592.00,2.1478
2591.00,2.1566
2590.00,2.1653
2589.00,2.1741
2588.00,2.1833
2587.00,2.1926
2586.00,2.2016
2585.00,2.2099
2584.00,2.2177
2583.00,2.2251
2582.00,2.2324
2581.00,2.2397
2580.00,2.2470
2579.00,2.2542
2578.00,2.2616
2577.00,2.2690
2576.00,2.2764
2575.00,2.2838
2574.00,2.2911
2573.00,2.2983
2572.00,2.3052
2571.00,2.3117
2570.00,2.3177
2569.00,2.3235
2568.00,2.3293
2567.00,2.3353
2566.00,2.3415
2565.00,2.3475
2564.00,2.3534
2563.00,2.3593
2562.00,2.3654
2561.00,2.3715
2560.00,2.3774
2559.00,2.3826
2558.00,2.3873
2557.00,2.3918
2556.00,2.3962
2555.00,2.4007
2554.00,2.4053
2553.00,2.4098
2552.00,2.4141
2551.00,2.4181
2550.00,2.4223
2549.00,2.4270
2548.00,2.4323
2547.00,2.4376
2546.00,2.4426
2545.00,2.4471
2544.00,2.4515
2543.00,2.4559
2542.00,2.4602
2541.00,2.4641
2540.00,2.4676
2539.00,2.4708
2538.00,2.4742
2537.00,2.4779
2536.00,2.4816
2535.00,2.4851
2534.00,2.4883
2533.00,2.4914
2532.00,2.4940
2531.00,2.4960
2530.00,2.4978
2529.00,2.4998
2528.00,2.5022
2527.00,2.5051
2526.00,2.5080
2525.00,2.5108
2524.00,2.5133
2523.00,2.5156
2522.00,2.5177
2521.00,2.5201
2520.00,2.5227
2519.00,2.5255
2518.00,2.5284
2517.00,2.5306
2516.00,2.5322
2515.00,2.5331
2514.00,2.5341
2513.00,2.5356
2512.00,2.5376
2511.00,2.5402
2510.00,2.5427
2509.00,2.5444
2508.00,2.5450
2507.00,2.5450
2506.00,2.5458
2505.00,2.5480
2504.00,2.5512
2503.00,2.5543
2502.00,2.5562
2501.00,2.5569
2500.00,2.5573
2499.00,2.5582
2498.00,2.5594
2497.00,2.5603
2496.00,2.5606
2495.00,2.5610
2494.00,2.5622
2493.00,2.5636
2492.00,2.5645
2491.00,2.5648
2490.00,2.5647
2489.00,2.5646
2488.00,2.5643
2487.00,2.5637
2486.00,2.5634
2485.00,2.5636
2484.00,2.5638
2483.00,2.5638
2482.00,2.5634
2481.00,2.5628
2480.00,2.5623
2479.00,2.5622
2478.00,2.5626
2477.00,2.5634
2476.00,2.5642
2475.00,2.5644
2474.00,2.5641
2473.00,2.5635
2472.00,2.5627
2471.00,2.5613
2470.00,2.5591
2469.00,2.5566
2468.00,2.5548
2467.00,2.5545
2466.00,2.5555
2465.00,2.5566
2464.00,2.5564
2463.00,2.5548
2462.00,2.5525
2461.00,2.5503
2460.00,2.5485
2459.00,2.5467
2458.00,2.5447
2457.00,2.5422
2456.00,2.5395
2455.00,2.5372
2454.00,2.5360
2453.00,2.5355
2452.00,2.5350
2451.00,2.5337
2450.00,2.5320
2449.00,2.5300
2448.00,2.5275
2447.00,2.5243
2446.00,2.5206
2445.00,2.5174
2444.00,2.5148
2443.00,2.5124
2442.00,2.5098
2441.00,2.5070
2440.00,2.5041
2439.00,2.5012
2438.00,2.4982
2437.00,2.4951
2436.00,2.4917
2435.00,2.4879
2434.00,2.4840
2433.00,2.4799
2432.00,2.4757
2431.00,2.4710
2430.00,2.4663
2429.00,2.4620
2428.00,2.4585
2427.00,2.4556
2426.00,2.4531
2425.00,2.4504
2424.00,2.4469
2423.00,2.4422
2422.00,2.4370
2421.00,2.4321
2420.00,2.4278
2419.00,2.4234
2418.00,2.4186
2417.00,2.4134
2416.00,2.4082
2415.00,2.4031
2414.00,2.3981
2413.00,2.3930
2412.00,2.3877
2411.00,2.3821
2410.00,2.3760
2409.00,2.3693
2408.00,2.3622
2407.00,2.3552
2406.00,2.3486
2405.00,2.3423
2404.00,2.3362
2403.00,2.3297
2402.00,2.3228
2401.00,2.3155
2400.00,2.3081
2399.00,2.3006
2398.00,2.2928
2397.00,2.2849
2396.00,2.2770
2395.00,2.2692
2394.00,2.2614
2393.00,2.2532
2392.00,2.2446
2391.00,2.2354
2390.00,2.2258
2389.00,2.2161
2388.00,2.2063
2387.00,2.1966
2386.00,2.1871
2385.00,2.1776
2384.00,2.1677
2383.00,2.1572
2382.00,2.1462
2381.00,2.1348
2380.00,2.1231
2379.00,2.1109
2378.00,2.0979
2377.00,2.0834
2376.00,2.0668
2375.00,2.0476
2374.00,2.0260
2373.00,2.0046
2372.00,1.9893
2371.00,1.9685
2370.00,1.9592
2369.00,1.8952
2368.00,1.8565
2367.00,1.8348
2366.00,1.8101
2365.00,1.7894
2364.00,1.7719
2363.00,1.7512
2362.00,1.7388
2361.00,1.7097
2360.00,1.7718
2359.00,1.7815
2358.00,1.7571
2357.00,1.7470
2356.00,1.7303
2355.00,1.7176
2354.00,1.7035
2353.00,1.6913
2352.00,1.6799
2351.00,1.6695
2350.00,1.6590
2349.00,1.6470
2348.00,1.6324
2347.00,1.6151
2346.00,1.5959
2345.00,1.5763
2344.00,1.5577
2343.00,1.5409
2342.00,1.5259
2341.00,1.5125
2340.00,1.5003
2339.00,1.4888
2338.00,1.4777
2337.00,1.4668
2336.00,1.4559
2335.00,1.4448
2334.00,1.4335
2333.00,1.4223
2332.00,1.4112
2331.00,1.4006
2330.00,1.3906
2329.00,1.3809
2328.00,1.3723
2327.00,1.3623
2326.00,1.3547
2325.00,1.3424
2324.00,1.3392
2323.00,1.2847
2322.00,1.2669
2321.00,1.2651
2320.00,1.2598
2319.00,1.2577
2318.00,1.2543
2317.00,1.2513
2316.00,1.2491
2315.00,1.2472
2314.00,1.2458
2313.00,1.2450
2312.00,1.2458
2311.00,1.2486
2310.00,1.2531
2309.00,1.2585
2308.00,1.2638
2307.00,1.2690
2306.00,1.2737
2305.00,1.2787
2304.00,1.2837
2303.00,1.2890
2302.00,1.2943
2301.00,1.2999
2300.00,1.3058
2299.00,1.3123
2298.00,1.3194
2297.00,1.3271
2296.00,1.3352
2295.00,1.3438
2294.00,1.3526
2293.00,1.3619
2292.00,1.3716
2291.00,1.3817
2290.00,1.3922
2289.00,1.4032
2288.00,1.4147
2287.00,1.4270
2286.00,1.4399
2285.00,1.4535
2284.00,1.4678
2283.00,1.4827
2282.00,1.4981
2281.00,1.5140
2280.00,1.5303
2279.00,1.5470
2278.00,1.5644
2277.00,1.5822
2276.00,1.6002
2275.00,1.6184
2274.00,1.6367
2273.00,1.6552
2272.00,1.6739
2271.00,1.6927
2270.00,1.7114
2269.00,1.7303
2268.00,1.7492
2267.00,1.7682
2266.00,1.7872
2265.00,1.8064
2264.00,1.8258
2263.00,1.8453
2262.00,1.8645
2261.00,1.8836
2260.00,1.9024
2259.00,1.9211
2258.00,1.9394
2257.00,1.9573
2256.00,1.9747
2255.00,1.9917
2254.00,2.0082
2253.00,2.0246
2252.00,2.0410
2251.00,2.0574
2250.00,2.0736
2249.00,2.0894
2248.00,2.1048
2247.00,2.1199
2246.00,2.1346
2245.00,2.1487
2244.00,2.1623
2243.00,2.1755
2242.00,2.1887
2241.00,2.2019
2240.00,2.2150
2239.00,2.2277
2238.00,2.2398
2237.00,2.2514
2236.00,2.2629
2235.00,2.2745
2234.00,2.2861
2233.00,2.2977
2232.00,2.3092
2231.00,2.3203
2230.00,2.3310
2229.00,2.3413
2228.00,2.3513
2227.00,2.3613
2226.00,2.3711
2225.00,2.3809
2224.00,2.3906
2223.00,2.4002
2222.00,2.4098
2221.00,2.4193
2220.00,2.4288
2219.00,2.4378
2218.00,2.4462
2217.00,2.4543
2216.00,2.4626
2215.00,2.4712
2214.00,2.4798
2213.00,2.4882
2212.00,2.4964
2211.00,2.5046
2210.00,2.5128
2209.00,2.5208
2208.00,2.5279
2207.00,2.5339
2206.00,2.5392
2205.00,2.5443
2204.00,2.5500
2203.00,2.5564
2202.00,2.5637
2201.00,2.5713
2200.00,2.5786
2199.00,2.5854
2198.00,2.5916
2197.00,2.5977
2196.00,2.6038
2195.00,2.6101
2194.00,2.6168
2193.00,2.6235
2192.00,2.6292
2191.00,2.6333
2190.00,2.6360
2189.00,2.6387
2188.00,2.6428
2187.00,2.6491
2186.00,2.6567
2185.00,2.6638
2184.00,2.6691
2183.00,2.6724
2182.00,2.6754
2181.00,2.6797
2180.00,2.6856
2179.00,2.6919
2178.00,2.6970
2177.00,2.7003
2176.00,2.7025
2175.00,2.7049
2174.00,2.7088
2173.00,2.7140
2172.00,2.7191
2171.00,2.7226
2170.00,2.7248
2169.00,2.7267
2168.00,2.7291
2167.00,2.7320
2166.00,2.7355
2165.00,2.7395
2164.00,2.7440
2163.00,2.7486
2162.00,2.7531
2161.00,2.7569
2160.00,2.7600
2159.00,2.7625
2158.00,2.7651
2157.00,2.7681
2156.00,2.7710
2155.00,2.7735
2154.00,2.7760
2153.00,2.7790
2152.00,2.7818
2151.00,2.7840
2150.00,2.7861
2149.00,2.7890
2148.00,2.7928
2147.00,2.7963
2146.00,2.7981
2145.00,2.7984
2144.00,2.7980
2143.00,2.7980
2142.00,2.7990
2141.00,2.8009
2140.00,2.8032
2139.00,2.8054
2138.00,2.8073
2137.00,2.8093
2136.00,2.8116
2135.00,2.8137
2134.00,2.8154
2133.00,2.8170
2132.00,2.8187
2131.00,2.8205
2130.00,2.8225
2129.00,2.8246
2128.00,2.8260
2127.00,2.8262
2126.00,2.8255
2125.00,2.8250
2124.00,2.8250
2123.00,2.8255
2122.00,2.8265
2121.00,2.8281
2120.00,2.8297
2119.00,2.8304
2118.00,2.8300
2117.00,2.8297
2116.00,2.8304
2115.00,2.8320
2114.00,2.8334
2113.00,2.8342
2112.00,2.8346
2111.00,2.8348
2110.00,2.8348
2109.00,2.8344
2108.00,2.8337
2107.00,2.8329
2106.00,2.8319
2105.00,2.8310
2104.00,2.8308
2103.00,2.8308
2102.00,2.8306
2101.00,2.8297
2100.00,2.8290
2099.00,2.8296
2098.00,2.8315
2097.00,2.8329
2096.00,2.8325
2095.00,2.8310
2094.00,2.8302
2093.00,2.8307
2092.00,2.8307
2091.00,2.8280
2090.00,2.8231
2089.00,2.8183
2088.00,2.8158
2087.00,2.8157
2086.00,2.8162
2085.00,2.8160
2084.00,2.8152
2083.00,2.8146
2082.00,2.8144
2081.00,2.8131
2080.00,2.8098
2079.00,2.8057
2078.00,2.8025
2077.00,2.8004
2076.00,2.7976
2075.00,2.7932
2074.00,2.7884
2073.00,2.7851
2072.00,2.7832
2071.00,2.7818
2070.00,2.7801
2069.00,2.7785
2068.00,2.7775
2067.00,2.7767
2066.00,2.7755
2065.00,2.7733
2064.00,2.7701
2063.00,2.7666
2062.00,2.7637
2061.00,2.7615
2060.00,2.7587
2059.00,2.7544
2058.00,2.7492
2057.00,2.7442
2056.00,2.7400
2055.00,2.7363
2054.00,2.7329
2053.00,2.7296
2052.00,2.7259
2051.00,2.7216
2050.00,2.7175
2049.00,2.7143
2048.00,2.7111
2047.00,2.7065
2046.00,2.7007
2045.00,2.6949
2044.00,2.6897
2043.00,2.6844
2042.00,2.6787
2041.00,2.6730
2040.00,2.6675
2039.00,2.6617
2038.00,2.6554
2037.00,2.6492
2036.00,2.6436
2035.00,2.6383
2034.00,2.6326
2033.00,2.6263
2032.00,2.6195
2031.00,2.6126
2030.00,2.6061
2029.00,2.5998
2028.00,2.5932
2027.00,2.5855
2026.00,2.5769
2025.00,2.5684
2024.00,2.5602
2023.00,2.5522
2022.00,2.5441
2021.00,2.5361
2020.00,2.5284
2019.00,2.5201
2018.00,2.5108
2017.00,2.5008
2016.00,2.4909
2015.00,2.4818
2014.00,2.4735
2013.00,2.4655
2012.00,2.4568
2011.00,2.4468
2010.00,2.4359
2009.00,2.4249
2008.00,2.4143
2007.00,2.4037
2006.00,2.3926
2005.00,2.3807
2004.00,2.3683
2003.00,2.3556
2002.00,2.3429
2001.00,2.3306
2000.00,2.3184
1999.00,2.3056
1998.00,2.2916
1997.00,2.2764
1996.00,2.2604
1995.00,2.2441
1994.00,2.2277
1993.00,2.2108
1992.00,2.1929
1991.00,2.1744
1990.00,2.1562
1989.00,2.1394
1988.00,2.1235
1987.00,2.1073
1986.00,2.0901
1985.00,2.0727
1984.00,2.0554
1983.00,2.0383
1982.00,2.0210
1981.00,2.0035
1980.00,1.9859
1979.00,1.9684
1978.00,1.9510
1977.00,1.9340
1976.00,1.9171
1975.00,1.8999
1974.00,1.8822
1973.00,1.8641
1972.00,1.8458
1971.00,1.8274
1970.00,1.8089
1969.00,1.7904
1968.00,1.7716
1967.00,1.7523
1966.00,1.7329
1965.00,1.7148
1964.00,1.6986
1963.00,1.6839
1962.00,1.6696
1961.00,1.6553
1960.00,1.6409
1959.00,1.6268
1958.00,1.6132
1957.00,1.6002
1956.00,1.5877
1955.00,1.5757
1954.00,1.5642
1953.00,1.5535
1952.00,1.5437
1951.00,1.5348
1950.00,1.5265
1949.00,1.5188
1948.00,1.5116
1947.00,1.5049
1946.00,1.4984
1945.00,1.4923
1944.00,1.4862
1943.00,1.4795
1942.00,1.4723
1941.00,1.4659
1940.00,1.4624
1939.00,1.4624
1938.00,1.4644
1937.00,1.4670
1936.00,1.4695
1935.00,1.4725
1934.00,1.4765
1933.00,1.4819
1932.00,1.4887
1931.00,1.4969
1930.00,1.5064
1929.00,1.5174
1928.00,1.5296
1927.00,1.5427
1926.00,1.5567
1925.00,1.5714
1924.00,1.5864
1923.00,1.6011
1922.00,1.6162
1921.00,1.6328
1920.00,1.6523
1919.00,1.6740
1918.00,1.6962
1917.00,1.7178
1916.00,1.7395
1915.00,1.7625
1914.00,1.7871
1913.00,1.8121
1912.00,1.8365
1911.00,1.8600
1910.00,1.8827
1909.00,1.9051
1908.00,1.9275
1907.00,1.9505
1906.00,1.9743
1905.00,1.9989
1904.00,2.0238
1903.00,2.0484
1902.00,2.0726
1901.00,2.0961
1900.00,2.1188
1899.00,2.1406
1898.00,2.1619
1897.00,2.1829
1896.00,2.2035
1895.00,2.2233
1894.00,2.2425
1893.00,2.2617
1892.00,2.2811
1891.00,2.3002
1890.00,2.3181
1889.00,2.3349
1888.00,2.3514
1887.00,2.3691
1886.00,2.3883
1885.00,2.4076
1884.00,2.4258
1883.00,2.4428
1882.00,2.4590
1881.00,2.4745
1880.00,2.4893
1879.00,2.5033
1878.00,2.5167
1877.00,2.5299
1876.00,2.5431
1875.00,2.5562
1874.00,2.5689
1873.00,2.5811
1872.00,2.5925
1871.00,2.6028
1870.00,2.6122
1869.00,2.6205
1868.00,2.6278
1867.00,2.6355
1866.00,2.6453
1865.00,2.6574
1864.00,2.6706
1863.00,2.6833
1862.00,2.6951
1861.00,2.7065
1860.00,2.7178
1859.00,2.7294
1858.00,2.7409
1857.00,2.7519
1856.00,2.7621
1855.00,2.7717
1854.00,2.7809
1853.00,2.7897
1852.00,2.7982
1851.00,2.8062
1850.00,2.8136
1849.00,2.8200
1848.00,2.8256
1847.00,2.8310
1846.00,2.8374
1845.00,2.8447
1844.00,2.8521
1843.00,2.8586
1842.00,2.8658
1841.00,2.8752
1840.00,2.8867
1839.00,2.8982
1838.00,2.9085
1837.00,2.9171
1836.00,2.9246
1835.00,2.9315
1834.00,2.9381
1833.00,2.9439
1832.00,2.9483
1831.00,2.9504
1830.00,2.9504
1829.00,2.9504
1828.00,2.9533
1827.00,2.9597
1826.00,2.9671
1825.00,2.9726
1824.00,2.9769
1823.00,2.9826
1822.00,2.9907
1821.00,2.9994
1820.00,3.0074
1819.00,3.0149
1818.00,3.0222
1817.00,3.0276
1816.00,3.0306
1815.00,3.0334
1814.00,3.0384
1813.00,3.0454
1812.00,3.0524
1811.00,3.0583
1810.00,3.0631
1809.00,3.0662
1808.00,3.0668
1807.00,3.0663
1806.00,3.0677
1805.00,3.0725
1804.00,3.0779
1803.00,3.0800
1802.00,3.0782
1801.00,3.0749
1800.00,3.0732
1799.00,3.0739
1798.00,3.0764
1797.00,3.0794
1796.00,3.0818
1795.00,3.0836
1794.00,3.0860
1793.00,3.0897
1792.00,3.0930
1791.00,3.0936
1790.00,3.0925
1789.00,3.0933
1788.00,3.0977
1787.00,3.1039
1786.00,3.1095
1785.00,3.1128
1784.00,3.1132
1783.00,3.1110
1782.00,3.1076
1781.00,3.1047
1780.00,3.1026
1779.00,3.1004
1778.00,3.0986
1777.00,3.0990
1776.00,3.1021
1775.00,3.1066
1774.00,3.1110
1773.00,3.1148
1772.00,3.1170
1771.00,3.1160
1770.00,3.1120
1769.00,3.1073
1768.00,3.1038
1767.00,3.1017
1766.00,3.1004
1765.00,3.0999
1764.00,3.0995
1763.00,3.0964
1762.00,3.0875
1761.00,3.0732
1760.00,3.0591
1759.00,3.0500
1758.00,3.0448
1757.00,3.0397
1756.00,3.0327
1755.00,3.0254
1754.00,3.0191
1753.00,3.0131
1752.00,3.0054
1751.00,2.9956
1750.00,2.9841
1749.00,2.9714
1748.00,2.9566
1747.00,2.9382
1746.00,2.9159
1745.00,2.8915
1744.00,2.8659
1743.00,2.8394
1742.00,2.8119
1741.00,2.7825
1740.00,2.7493
1739.00,2.7125
1738.00,2.6762
1737.00,2.6463
1736.00,2.6275
1735.00,2.6232
1734.00,2.6375
1733.00,2.6729
1732.00,2.7319
1731.00,2.8158
1730.00,2.9228
1729.00,3.0505
1728.00,3.1954
1727.00,3.3539
1726.00,3.5266
1725.00,3.7166
1724.00,3.9214
1723.00,4.1275
1722.00,4.3187
1721.00,4.4898
1720.00,4.6613
1719.00,4.7865
1718.00,4.7418
1717.00,4.7456
1716.00,4.9703
1715.00,4.9695
1714.00,4.7905
1713.00,4.8987
1712.00,4.9551
1711.00,4.8022
1710.00,4.8477
1709.00,5.1093
1708.00,5.5057
1707.00,5.2048
1706.00,4.7233
1705.00,4.4350
1704.00,4.2468
1703.00,4.1086
1702.00,3.9616
1701.00,3.7615
1700.00,3.5366
1699.00,3.3366
1698.00,3.1770
1697.00,3.0478
1696.00,2.9413
1695.00,2.8634
1694.00,2.8198
1693.00,2.8063
1692.00,2.8134
1691.00,2.8340
1690.00,2.8638
1689.00,2.8976
1688.00,2.9306
1687.00,2.9626
1686.00,2.9960
1685.00,3.0305
1684.00,3.0597
1683.00,3.0762
1682.00,3.0846
1681.00,3.0965
1680.00,3.1159
1679.00,3.1394
1678.00,3.1601
1677.00,3.1722
1676.00,3.1755
1675.00,3.1740
1674.00,3.1725
1673.00,3.1738
1672.00,3.1767
1671.00,3.1767
1670.00,3.1711
1669.00,3.1623
1668.00,3.1558
1667.00,3.1560
1666.00,3.1625
1665.00,3.1722
1664.00,3.1825
1663.00,3.1904
1662.00,3.1930
1661.00,3.1909
1660.00,3.1885
1659.00,3.1886
1658.00,3.1911
1657.00,3.1937
1656.00,3.1939
1655.00,3.1904
1654.00,3.1837
1653.00,3.1752
1652.00,3.1683
1651.00,3.1678
1650.00,3.1701
1649.00,3.1675
1648.00,3.1626
1647.00,3.1591
1646.00,3.1554
1645.00,3.1524
1644.00,3.1537
1643.00,3.1579
1642.00,3.1601
1641.00,3.1590
1640.00,3.1565
1639.00,3.1541
1638.00,3.1518
1637.00,3.1484
1636.00,3.1424
1635.00,3.1331
1634.00,3.1232
1633.00,3.1173
1632.00,3.1164
1631.00,3.1181
1630.00,3.1194
1629.00,3.1182
1628.00,3.1143
1627.00,3.1098
1626.00,3.1062
1625.00,3.1039
1624.00,3.1007
1623.00,3.0934
1622.00,3.0805
1621.00,3.0652
1620.00,3.0522
1619.00,3.0431
1618.00,3.0369
1617.00,3.0321
1616.00,3.0274
1615.00,3.0223
1614.00,3.0162
1613.00,3.0084
1612.00,2.9992
1611.00,2.9896
1610.00,2.9808
1609.00,2.9728
1608.00,2.9655
1607.00,2.9577
1606.00,2.9486
1605.00,2.9386
1604.00,2.9283
1603.00,2.9181
1602.00,2.9087
1601.00,2.9007
1600.00,2.8941
1599.00,2.8872
1598.00,2.8786
1597.00,2.8679
1596.00,2.8553
1595.00,2.8407
1594.00,2.8253
1593.00,2.8111
1592.00,2.7991
1591.00,2.7879
1590.00,2.7759
1589.00,2.7638
1588.00,2.7532
1587.00,2.7436
1586.00,2.7332
1585.00,2.7209
1584.00,2.7073
1583.00,2.6934
1582.00,2.6797
1581.00,2.6664
1580.00,2.6534
1579.00,2.6399
1578.00,2.6254
1577.00,2.6106
1576.00,2.5948
1575.00,2.5761
1574.00,2.5547
1573.00,2.5325
1572.00,2.5106
1571.00,2.4886
1570.00,2.4640
1569.00,2.4360
1568.00,2.4073
1567.00,2.3816
1566.00,2.3584
1565.00,2.3349
1564.00,2.3102
1563.00,2.2853
1562.00,2.2616
1561.00,2.2385
1560.00,2.2119
1559.00,2.1760
1558.00,2.1323
1557.00,2.0958
1556.00,2.0727
1555.00,2.0530
1554.00,2.0306
1553.00,2.0083
1552.00,1.9873
1551.00,1.9656
1550.00,1.9417
1549.00,1.9181
1548.00,1.8992
1547.00,1.8856
1546.00,1.8728
1545.00,1.8560
1544.00,1.8353
1543.00,1.8155
1542.00,1.8014
1541.00,1.7929
1540.00,1.7864
1539.00,1.7807
1538.00,1.7783
1537.00,1.7800
1536.00,1.7818
1535.00,1.7825
1534.00,1.7838
1533.00,1.7866
1532.00,1.7928
1531.00,1.8057
1530.00,1.8257
1529.00,1.8491
1528.00,1.8721
1527.00,1.8939
1526.00,1.9162
1525.00,1.9409
1524.00,1.9681
1523.00,1.9955
1522.00,2.0197
1521.00,2.0367
1520.00,2.0458
1519.00,2.0511
1518.00,2.0554
1517.00,2.0576
1516.00,2.0588
1515.00,2.0633
1514.00,2.0751
1513.00,2.0933
1512.00,2.1136
1511.00,2.1331
1510.00,2.1508
1509.00,2.1681
1508.00,2.1872
1507.00,2.2117
1506.00,2.2451
1505.00,2.2890
1504.00,2.3368
1503.00,2.3765
1502.00,2.4059
1501.00,2.4313
1500.00,2.4567
1499.00,2.4821
1498.00,2.5076
1497.00,2.5341
1496.00,2.5620
1495.00,2.5915
1494.00,2.6220
1493.00,2.6511
1492.00,2.6758
1491.00,2.6949
1490.00,2.7088
1489.00,2.7196
1488.00,2.7317
1487.00,2.7491
1486.00,2.7713
1485.00,2.7946
1484.00,2.8157
1483.00,2.8346
1482.00,2.8535
1481.00,2.8732
1480.00,2.8927
1479.00,2.9120
1478.00,2.9312
1477.00,2.9483
1476.00,2.9606
1475.00,2.9699
1474.00,2.9813
1473.00,2.9977
1472.00,3.0184
1471.00,3.0445
1470.00,3.0775
1469.00,3.1117
1468.00,3.1380
1467.00,3.1545
1466.00,3.1674
1465.00,3.1814
1464.00,3.1947
1463.00,3.2064
1462.00,3.2196
1461.00,3.2353
1460.00,3.2506
1459.00,3.2653
1458.00,3.2850
1457.00,3.3129
1456.00,3.3452
1455.00,3.3789
1454.00,3.4147
1453.00,3.4485
1452.00,3.4723
1451.00,3.4789
1450.00,3.4629
1449.00,3.4188
1448.00,3.3474
1447.00,3.2662
1446.00,3.1974
1445.00,3.1513
1444.00,3.1260
1443.00,3.1171
1442.00,3.1222
1441.00,3.1381
1440.00,3.1591
1439.00,3.1797
1438.00,3.2000
1437.00,3.2241
1436.00,3.2544
1435.00,3.2891
1434.00,3.3231
1433.00,3.3488
1432.00,3.3607
1431.00,3.3604
1430.00,3.3542
1429.00,3.3473
1428.00,3.3415
1427.00,3.3374
1426.00,3.3342
1425.00,3.3293
1424.00,3.3209
1423.00,3.3113
1422.00,3.3046
1421.00,3.2995
1420.00,3.2879
1419.00,3.2641
1418.00,3.2326
1417.00,3.2068
1416.00,3.1960
1415.00,3.1985
1414.00,3.2063
1413.00,3.2112
1412.00,3.2109
1411.00,3.2103
1410.00,3.2147
1409.00,3.2231
1408.00,3.2299
1407.00,3.2326
1406.00,3.2323
1405.00,3.2310
1404.00,3.2323
1403.00,3.2419
1402.00,3.2630
1401.00,3.2888
1400.00,3.3073
1399.00,3.3134
1398.00,3.3149
1397.00,3.3212
1396.00,3.3329
1395.00,3.3456
1394.00,3.3579
1393.00,3.3710
1392.00,3.3842
1391.00,3.3948
1390.00,3.4023
1389.00,3.4073
1388.00,3.4094
1387.00,3.4095
1386.00,3.4114
1385.00,3.4174
1384.00,3.4252
1383.00,3.4309
1382.00,3.4342
1381.00,3.4375
1380.00,3.4436
1379.00,3.4548
1378.00,3.4695
1377.00,3.4803
1376.00,3.4796
1375.00,3.4694
1374.00,3.4608
1373.00,3.4607
1372.00,3.4665
1371.00,3.4725
1370.00,3.4785
1369.00,3.4865
1368.00,3.4949
1367.00,3.5006
1366.00,3.5047
1365.00,3.5091
1364.00,3.5118
1363.00,3.5092
1362.00,3.5009
1361.00,3.4915
1360.00,3.4862
1359.00,3.4868
1358.00,3.4927
1357.00,3.5017
1356.00,3.5120
1355.00,3.5233
1354.00,3.5366
1353.00,3.5517
1352.00,3.5685
1351.00,3.5895
1350.00,3.6188
1349.00,3.6530
1348.00,3.6753
1347.00,3.6686
1346.00,3.6383
1345.00,3.6079
1344.00,3.5965
1343.00,3.6074
1342.00,3.6305
1341.00,3.6506
1340.00,3.6599
1339.00,3.6627
1338.00,3.6629
1337.00,3.6542
1336.00,3.6293
1335.00,3.5948
1334.00,3.5698
1333.00,3.5668
1332.00,3.5827
1331.00,3.6038
1330.00,3.6160
1329.00,3.6138
1328.00,3.6014
1327.00,3.5856
1326.00,3.5712
1325.00,3.5614
1324.00,3.5576
1323.00,3.5606
1322.00,3.5694
1321.00,3.5796
1320.00,3.5863
1319.00,3.5903
1318.00,3.5960
1317.00,3.6054
1316.00,3.6170
1315.00,3.6330
1314.00,3.6589
1313.00,3.6971
1312.00,3.7401
1311.00,3.7708
1310.00,3.7724
1309.00,3.7437
1308.00,3.6999
1307.00,3.6591
1306.00,3.6296
1305.00,3.6078
1304.00,3.5862
1303.00,3.5646
1302.00,3.5510
1301.00,3.5520
1300.00,3.5661
1299.00,3.5855
1298.00,3.6010
1297.00,3.6060
1296.00,3.5987
1295.00,3.5823
1294.00,3.5629
1293.00,3.5460
1292.00,3.5352
1291.00,3.5333
1290.00,3.5418
1289.00,3.5573
1288.00,3.5710
1287.00,3.5766
1286.00,3.5772
1285.00,3.5808
1284.00,3.5889
1283.00,3.5935
1282.00,3.5870
1281.00,3.5722
1280.00,3.5587
1279.00,3.5513
1278.00,3.5469
1277.00,3.5408
1276.00,3.5329
1275.00,3.5254
1274.00,3.5177
1273.00,3.5076
1272.00,3.4978
1271.00,3.4938
1270.00,3.4962
1269.00,3.4988
1268.00,3.4982
1267.00,3.4990
1266.00,3.5066
1265.00,3.5183
1264.00,3.5266
1263.00,3.5285
1262.00,3.5276
1261.00,3.5269
1260.00,3.5264
1259.00,3.5249
1258.00,3.5201
1257.00,3.5091
1256.00,3.4925
1255.00,3.4753
1254.00,3.4633
1253.00,3.4578
1252.00,3.4561
1251.00,3.4560
1250.00,3.4568
1249.00,3.4546
1248.00,3.4432
1247.00,3.4217
1246.00,3.3967
1245.00,3.3762
1244.00,3.3650
1243.00,3.3620
1242.00,3.3609
1241.00,3.3542
1240.00,3.3410
1239.00,3.3277
1238.00,3.3183
1237.00,3.3104
1236.00,3.3009
1235.00,3.2914
1234.00,3.2847
1233.00,3.2785
1232.00,3.2703
1231.00,3.2650
1230.00,3.2714
1229.00,3.2938
1228.00,3.3303
1227.00,3.3788
1226.00,3.4400
1225.00,3.5124
1224.00,3.5888
1223.00,3.6649
1222.00,3.7433
1221.00,3.8211
1220.00,3.8761
1219.00,3.8792
1218.00,3.8324
1217.00,3.7643
1216.00,3.6939
1215.00,3.6304
1214.00,3.5809
1213.00,3.5500
1212.00,3.5378
1211.00,3.5396
1210.00,3.5462
1209.00,3.5459
1208.00,3.5266
1207.00,3.4858
1206.00,3.4353
1205.00,3.3903
1204.00,3.3591
1203.00,3.3430
1202.00,3.3384
1201.00,3.3384
1200.00,3.3353
1199.00,3.3265
1198.00,3.3149
1197.00,3.3032
1196.00,3.2896
1195.00,3.2711
1194.00,3.2475
1193.00,3.2222
1192.00,3.1988
1191.00,3.1794
1190.00,3.1642
1189.00,3.1503
1188.00,3.1342
1187.00,3.1144
1186.00,3.0918
1185.00,3.0674
1184.00,3.0425
1183.00,3.0188
1182.00,2.9977
1181.00,2.9777
1180.00,2.9568
1179.00,2.9344
1178.00,2.9120
1177.00,2.8898
1176.00,2.8667
1175.00,2.8422
1174.00,2.8172
1173.00,2.7918
1172.00,2.7655
1171.00,2.7384
1170.00,2.7115
1169.00,2.6853
1168.00,2.6596
1167.00,2.6340
1166.00,2.6090
1165.00,2.5856
1164.00,2.5647
1163.00,2.5462
1162.00,2.5296
1161.00,2.5137
1160.00,2.4973
1159.00,2.4809
1158.00,2.4660
1157.00,2.4540
1156.00,2.4445
1155.00,2.4358
1154.00,2.4272
1153.00,2.4193
1152.00,2.4142
1151.00,2.4139
1150.00,2.4193
1149.00,2.4296
1148.00,2.4437
1147.00,2.4612
1146.00,2.4827
1145.00,2.5081
1144.00,2.5367
1143.00,2.5678
1142.00,2.6022
1141.00,2.6410
1140.00,2.6838
1139.00,2.7283
1138.00,2.7736
1137.00,2.8216
1136.00,2.8757
1135.00,2.9355
1134.00,2.9963
1133.00,3.0529
1132.00,3.1061
1131.00,3.1605
1130.00,3.2188
1129.00,3.2791
1128.00,3.3400
1127.00,3.4040
1126.00,3.4746
1125.00,3.5501
1124.00,3.6256
1123.00,3.7004
1122.00,3.7775
1121.00,3.8532
1120.00,3.9038
1119.00,3.8937
1118.00,3.8195
1117.00,3.7003
1116.00,3.5657
1115.00,3.4461
1114.00,3.3478
1113.00,3.2612
1112.00,3.1815
1111.00,3.1146
1110.00,3.0681
1109.00,3.0431
1108.00,3.0343
1107.00,3.0355
1106.00,3.0441
1105.00,3.0606
1104.00,3.0860
1103.00,3.1192
1102.00,3.1583
1101.00,3.2027
1100.00,3.2507
1099.00,3.2967
1098.00,3.3311
1097.00,3.3493
1096.00,3.3575
1095.00,3.3687
1094.00,3.3924
1093.00,3.4275
1092.00,3.4652
1091.00,3.4983
1090.00,3.5266
1089.00,3.5532
1088.00,3.5823
1087.00,3.6171
1086.00,3.6532
1085.00,3.6740
1084.00,3.6694
1083.00,3.6585
1082.00,3.6697
1081.00,3.7159
1080.00,3.7878
1079.00,3.8479
1078.00,3.8494
1077.00,3.7994
1076.00,3.7511
1075.00,3.7421
1074.00,3.7682
1073.00,3.7926
1072.00,3.8018
1071.00,3.8287
1070.00,3.8957
1069.00,3.9766
1068.00,4.0049
1067.00,3.9720
1066.00,3.9439
1065.00,3.9651
1064.00,4.0403
1063.00,4.1518
1062.00,4.2664
1061.00,4.3249
1060.00,4.2892
1059.00,4.2015
1058.00,4.0944
1057.00,3.9922
1056.00,3.9145
1055.00,3.8819
1054.00,3.9052
1053.00,3.9577
1052.00,3.9747
1051.00,3.9360
1050.00,3.8997
1049.00,3.9102
1048.00,3.9560
1047.00,3.9971
1046.00,4.0084
1045.00,3.9984
1044.00,3.9827
1043.00,3.9493
1042.00,3.8957
1041.00,3.8611
1040.00,3.8622
1039.00,3.8827
1038.00,3.9124
1037.00,3.9571
1036.00,4.0153
1035.00,4.0714
1034.00,4.1055
1033.00,4.1073
1032.00,4.0894
1031.00,4.0746
1030.00,4.0786
1029.00,4.1023
1028.00,4.1109
1027.00,4.0892
1026.00,4.0922
1025.00,4.1276
1024.00,4.1239
1023.00,4.0892
1022.00,4.1330
1021.00,4.3320
1020.00,4.6746
1019.00,4.6797
1018.00,4.4723
1017.00,4.2643
1016.00,4.1658
1015.00,4.1757
1014.00,4.2505
1013.00,4.3063
1012.00,4.3071
1011.00,4.2701
1010.00,4.1928
1009.00,4.1147
1008.00,4.0584
1007.00,4.0226
1006.00,4.0016
1005.00,3.9964
1004.00,4.0208
1003.00,4.0992
1002.00,4.2792
1001.00,4.6774
1000.00,5.2727
999.00,5.0804
998.00,4.7732
997.00,4.4607
996.00,4.3669
995.00,4.4179
994.00,4.5456
993.00,4.5992
992.00,4.4798
991.00,4.3577
990.00,4.3149
989.00,4.3273
988.00,4.3580
987.00,4.4208
986.00,4.5619
985.00,4.7099
984.00,4.5964
983.00,4.3506
982.00,4.2010
981.00,4.1546
980.00,4.1709
979.00,4.2541
978.00,4.4574
977.00,4.8532
976.00,5.0255
975.00,4.6961
974.00,4.4593
973.00,4.2963
972.00,4.1835
971.00,4.1190
970.00,4.1143
969.00,4.1672
968.00,4.2639
967.00,4.4292
966.00,4.4611
965.00,4.2925
964.00,4.2408
963.00,4.2667
962.00,4.2358
961.00,4.1656
960.00,4.1429
959.00,4.1652
958.00,4.1926
957.00,4.2110
956.00,4.2609
955.00,4.3658
954.00,4.4573
953.00,4.4608
952.00,4.4714
951.00,4.4621
950.00,4.3336
949.00,4.2464
948.00,4.2765
947.00,4.4025
946.00,4.5776
945.00,4.7591
944.00,4.6162
943.00,4.3646
942.00,4.2884
941.00,4.3712
940.00,4.5541
939.00,4.6508
938.00,4.5577
937.00,4.4028
936.00,4.2904
935.00,4.2662
934.00,4.3340
933.00,4.5030
932.00,4.8442
931.00,4.8899
930.00,4.7745
929.00,4.9264
928.00,4.7362
927.00,4.4902
926.00,4.4150
925.00,4.5307
924.00,4.6546
923.00,4.4304
922.00,4.3688
921.00,4.4872
920.00,4.4559
919.00,4.2566
918.00,4.1403
917.00,4.0831
916.00,4.0781
915.00,4.1218
914.00,4.1530
913.00,4.1496
912.00,4.1485
911.00,4.1631
910.00,4.1763
909.00,4.1803
908.00,4.2309
907.00,4.3627
906.00,4.5412
905.00,4.6418
904.00,4.6161
903.00,4.4984
902.00,4.3399
901.00,4.2632
900.00,4.2805
899.00,4.3639
898.00,4.5007
897.00,4.6096
896.00,4.5188
895.00,4.4000
894.00,4.3516
893.00,4.3547
892.00,4.3769
891.00,4.3656
890.00,4.3057
889.00,4.3069
888.00,4.4390
887.00,4.4573
886.00,4.3005
885.00,4.3933
884.00,4.9394
883.00,4.5197
882.00,4.2887
881.00,4.2754
880.00,4.3372
879.00,4.3072
878.00,4.0865
877.00,3.9130
876.00,3.8300
875.00,3.8112
874.00,3.8384
873.00,3.9129
872.00,4.0458
871.00,4.2271
870.00,4.3444
869.00,4.3040
868.00,4.2084
867.00,4.0797
866.00,4.0004
865.00,4.0403
864.00,4.2205
863.00,4.4822
862.00,4.4836
861.00,4.3180
860.00,4.2259
859.00,4.2343
858.00,4.2951
857.00,4.3563
856.00,4.4294
855.00,4.4953
854.00,4.4906
853.00,4.6020
852.00,5.1869
851.00,4.8172
850.00,4.8844
849.00,4.9878
848.00,4.4347
847.00,4.3798
846.00,4.5546
845.00,4.8972
844.00,5.0509
843.00,4.7293
842.00,4.4568
841.00,4.3283
840.00,4.3198
839.00,4.3319
838.00,4.3168
837.00,4.2908
836.00,4.2337
835.00,4.1960
834.00,4.2162
833.00,4.2305
832.00,4.2286
831.00,4.2183
830.00,4.1209
829.00,4.0636
828.00,4.1723
827.00,4.3235
826.00,4.1551
825.00,3.9926
824.00,3.9523
823.00,4.0330
822.00,4.2820
821.00,4.6334
820.00,4.4670
819.00,4.3409
818.00,4.2636
817.00,4.1510
816.00,4.0954
815.00,4.1351
814.00,4.2707
813.00,4.4013
812.00,4.4090
811.00,4.3445
810.00,4.2337
809.00,4.1703
808.00,4.2101
807.00,4.4133
806.00,4.7887
805.00,4.5378
804.00,4.3293
803.00,4.2917
802.00,4.3606
801.00,4.5056
800.00,4.7878
799.00,5.2217
798.00,4.5961
797.00,4.3643
796.00,4.3200
795.00,4.3596
794.00,4.4161
793.00,4.4352
792.00,4.5017
791.00,4.6173
790.00,4.5700
789.00,4.3472
788.00,4.1487
787.00,4.0641
786.00,4.1177
785.00,4.2479
784.00,4.2766
783.00,4.2914
782.00,4.4781
781.00,4.6359
780.00,4.4504
779.00,4.5590
778.00,5.0591
777.00,4.6593
776.00,4.5794
775.00,4.6836
774.00,4.5964
773.00,4.5091
772.00,4.5228
771.00,4.6312
770.00,4.5168
769.00,4.2647
768.00,4.1095
767.00,4.0470
766.00,4.0808
765.00,4.2605
764.00,4.5088
763.00,4.6694
762.00,4.8476
761.00,4.4874
760.00,4.3016
759.00,4.3052
758.00,4.3056
757.00,4.2748
756.00,4.3337
755.00,4.5573
754.00,4.7670
753.00,4.7915
752.00,4.7990
751.00,4.4707
750.00,4.2403
749.00,4.1969
748.00,4.4147
747.00,4.8630
746.00,4.4259
745.00,4.2334
744.00,4.3332
743.00,4.5206
742.00,4.2147
741.00,4.0442
740.00,4.0545
739.00,4.2381
738.00,4.5162
737.00,4.2411
736.00,4.0880
735.00,4.1624
734.00,4.3989
733.00,4.3813
732.00,4.2566
731.00,4.2802
730.00,4.2843
729.00,4.2366
728.00,4.2150
727.00,4.2163
726.00,4.1404
725.00,4.0226
724.00,3.9768
723.00,4.0411
722.00,4.2124
721.00,4.3989
720.00,4.4108
719.00,4.3009
718.00,4.2261
717.00,4.2752
716.00,4.3120
715.00,4.2385
714.00,4.2208
713.00,4.1465
712.00,4.0423
711.00,4.0526
710.00,4.2017
709.00,4.4892
708.00,4.8221
707.00,4.8959
706.00,4.7299
705.00,4.5914
704.00,4.5292
703.00,4.5653
702.00,4.8809
701.00,5.1041
700.00,4.6847
699.00,4.6366
698.00,4.6870
697.00,4.5632
696.00,4.3756
695.00,4.2225
694.00,4.1228
693.00,4.0326
692.00,3.9834
691.00,3.9808
690.00,4.0056
689.00,4.0293
688.00,4.2108
687.00,4.4774
686.00,4.2200
685.00,4.0864
684.00,4.2984
683.00,4.8422
682.00,4.3446
681.00,4.2007
680.00,4.4950
679.00,4.6389
678.00,4.1409
677.00,3.9983
676.00,4.0436
675.00,4.1328
674.00,4.1670
673.00,4.0627
672.00,3.9896
671.00,3.9814
670.00,4.0800
669.00,4.3418
668.00,4.3215
667.00,4.0542
666.00,3.9827
665.00,4.0227
664.00,4.1105
663.00,4.2490
662.00,4.3346
661.00,4.2143
660.00,4.0203
659.00,3.8854
658.00,3.8280
657.00,3.8637
656.00,3.9280
655.00,3.9984
654.00,4.0499
653.00,4.2967
652.00,4.8503
651.00,4.1898
650.00,4.0539
649.00,4.1983
648.00,4.4307
647.00,4.5367
646.00,4.2987
645.00,4.1680
644.00,4.1933
643.00,4.3493
642.00,4.2981
641.00,4.0673
640.00,3.9035
639.00,3.8168
638.00,3.7829
637.00,3.7493
636.00,3.7101
635.00,3.7081
634.00,3.7792
633.00,3.9226
632.00,4.1902
631.00,4.6239
630.00,4.4161
629.00,4.3849
628.00,4.7115
627.00,4.5869
626.00,4.3356
625.00,4.3342
624.00,4.5478
623.00,4.2655
622.00,3.9823
621.00,3.9160
620.00,3.9780
619.00,4.1985
618.00,4.5483
617.00,4.8563
616.00,5.2717
615.00,4.8797
614.00,4.6580
613.00,4.4585
612.00,4.1750
611.00,4.0024
610.00,3.9157
609.00,3.9384
608.00,4.0792
607.00,4.3156
606.00,4.7304
605.00,4.6663
604.00,4.2830
603.00,4.3673
602.00,4.6719
601.00,4.3376
600.00,4.0865
599.00,3.9303
598.00,3.8254
597.00,3.7849
596.00,3.8014
595.00,3.8790
594.00,4.0552
593.00,4.4473
592.00,4.4645
591.00,4.1079
590.00,3.9975
589.00,4.0091
588.00,4.0924
587.00,4.1729
586.00,4.0444
585.00,3.8449
584.00,3.7210
583.00,3.6836
582.00,3.7123
581.00,3.7501
580.00,3.7476
579.00,3.7202
578.00,3.6918
577.00,3.6860
576.00,3.7477
575.00,3.9097
574.00,4.1773
573.00,4.3668
572.00,4.1957
571.00,4.0210
570.00,3.9696
569.00,3.9808
568.00,3.9700
567.00,3.9406
566.00,4.0213
565.00,4.3365
564.00,4.6190
563.00,4.5564
562.00,4.1967
561.00,3.7895
560.00,3.6162
559.00,3.5950
558.00,3.7117
557.00,3.9520
556.00,4.2886
555.00,4.8726
554.00,4.4395
553.00,4.2243
552.00,4.3114
551.00,4.2629
550.00,4.0329
549.00,3.8358
548.00,3.7227
547.00,3.7007
546.00,3.8078
545.00,3.8698
544.00,3.7367
543.00,3.6709
542.00,3.6871
541.00,3.7023
540.00,3.6959
539.00,3.6781
538.00,3.7295
537.00,3.8210
536.00,3.7298
535.00,3.5582
534.00,3.4558
533.00,3.4065
532.00,3.4282
531.00,3.5377
530.00,3.8172
529.00,4.1081
528.00,3.7945
527.00,3.6170
526.00,3.5483
525.00,3.5235
524.00,3.5646
523.00,3.7164
522.00,4.0380
521.00,4.1817
520.00,4.1172
519.00,3.9745
518.00,3.7314
517.00,3.5522
516.00,3.4974
515.00,3.6077
514.00,3.8151
513.00,3.8255
512.00,3.7402
511.00,3.7991
510.00,3.9556
509.00,4.0557
508.00,4.2534
507.00,4.1857
506.00,3.9579
505.00,4.0304
504.00,4.2927
503.00,4.4301
502.00,4.1855
501.00,3.8904
500.00,3.6419
499.00,3.4291
498.00,3.2819
497.00,3.2157
496.00,3.2265
495.00,3.2900
494.00,3.3537
493.00,3.3729
492.00,3.3724
491.00,3.3915
490.00,3.4140
489.00,3.4108
488.00,3.3953
487.00,3.3952
486.00,3.4456
485.00,3.5779
484.00,3.7580
483.00,3.8710
482.00,3.8989
481.00,3.9554
480.00,4.0297
479.00,3.8919
478.00,3.6601
477.00,3.5278
476.00,3.4657
475.00,3.3909
474.00,3.2993
473.00,3.2556
472.00,3.2832
471.00,3.3504
470.00,3.3506
469.00,3.2340
468.00,3.1208
467.00,3.0631
466.00,3.0521
465.00,3.0855
464.00,3.1547
463.00,3.2206
462.00,3.2517
461.00,3.2945
460.00,3.4076
459.00,3.4579
458.00,3.3606
457.00,3.3234
456.00,3.3224
455.00,3.3001
454.00,3.3437
453.00,3.5069
452.00,3.6855
451.00,3.5640
450.00,3.6343
449.00,4.1300
448.00,3.8548
447.00,3.6502
446.00,3.6329
445.00,3.5632
444.00,3.4091
443.00,3.2525
442.00,3.1742
441.00,3.1431
440.00,3.1132
439.00,3.0684
438.00,3.0477
437.00,3.0977
436.00,3.2155
435.00,3.3300
434.00,3.3392
433.00,3.2776
432.00,3.2210
431.00,3.3560
430.00,3.6145
429.00,3.2854
428.00,3.1380
427.00,3.1533
426.00,3.3126
425.00,3.8914
424.00,3.4907
423.00,3.0870
422.00,2.9910
421.00,2.9846
420.00,2.9762
419.00,2.9633
418.00,3.1843
417.00,3.8187
416.00,3.4092
415.00,3.2382
414.00,3.3515
413.00,3.7521
412.00,3.6769
411.00,3.1496
410.00,2.9807
409.00,2.9462
408.00,2.9771
407.00,3.0293
406.00,3.0777
405.00,3.1219
404.00,3.1201
403.00,3.1288
402.00,3.2507
401.00,3.2502
400.00,3.0429
