Created as New Dataset,Sample 184 By Administrator Date Friday, November 26 2021
cm-1,A
7000.00,0.7909
6999.00,0.7912
6998.00,0.7914
6997.00,0.7917
6996.00,0.7921
6995.00,0.7926
6994.00,0.7932
6993.00,0.7939
6992.00,0.7946
6991.00,0.7952
6990.00,0.7958
6989.00,0.7964
6988.00,0.7972
6987.00,0.7981
6986.00,0.7988
6985.00,0.7996
6984.00,0.8006
6983.00,0.8018
6982.00,0.8031
6981.00,0.8043
6980.00,0.8054
6979.00,0.8065
6978.00,0.8078
6977.00,0.8092
6976.00,0.8106
6975.00,0.8119
6974.00,0.8131
6973.00,0.8144
6972.00,0.8157
6971.00,0.8171
6970.00,0.8184
6969.00,0.8199
6968.00,0.8215
6967.00,0.8231
6966.00,0.8249
6965.00,0.8266
6964.00,0.8283
6963.00,0.8299
6962.00,0.8317
6961.00,0.8335
6960.00,0.8352
6959.00,0.8368
6958.00,0.8384
6957.00,0.8401
6956.00,0.8420
6955.00,0.8438
6954.00,0.8455
6953.00,0.8472
6952.00,0.8491
6951.00,0.8512
6950.00,0.8535
6949.00,0.8557
6948.00,0.8578
6947.00,0.8596
6946.00,0.8614
6945.00,0.8631
6944.00,0.8648
6943.00,0.8667
6942.00,0.8687
6941.00,0.8709
6940.00,0.8732
6939.00,0.8756
6938.00,0.8781
6937.00,0.8805
6936.00,0.8829
6935.00,0.8852
6934.00,0.8875
6933.00,0.8899
6932.00,0.8923
6931.00,0.8948
6930.00,0.8973
6929.00,0.8998
6928.00,0.9023
6927.00,0.9047
6926.00,0.9072
6925.00,0.9098
6924.00,0.9122
6923.00,0.9146
6922.00,0.9170
6921.00,0.9195
6920.00,0.9220
6919.00,0.9246
6918.00,0.9274
6917.00,0.9303
6916.00,0.9330
6915.00,0.9355
6914.00,0.9380
6913.00,0.9407
6912.00,0.9436
6911.00,0.9466
6910.00,0.9494
6909.00,0.9521
6908.00,0.9547
6907.00,0.9575
6906.00,0.9602
6905.00,0.9629
6904.00,0.9657
6903.00,0.9685
6902.00,0.9714
6901.00,0.9743
6900.00,0.9772
6899.00,0.9799
6898.00,0.9823
6897.00,0.9847
6896.00,0.9872
6895.00,0.9896
6894.00,0.9922
6893.00,0.9949
6892.00,0.9978
6891.00,1.0007
6890.00,1.0037
6889.00,1.0068
6888.00,1.0098
6887.00,1.0128
6886.00,1.0157
6885.00,1.0185
6884.00,1.0212
6883.00,1.0240
6882.00,1.0268
6881.00,1.0299
6880.00,1.0329
6879.00,1.0359
6878.00,1.0386
6877.00,1.0412
6876.00,1.0437
6875.00,1.0461
6874.00,1.0486
6873.00,1.0513
6872.00,1.0542
6871.00,1.0570
6870.00,1.0599
6869.00,1.0628
6868.00,1.0656
6867.00,1.0682
6866.00,1.0705
6865.00,1.0727
6864.00,1.0749
6863.00,1.0772
6862.00,1.0796
6861.00,1.0821
6860.00,1.0848
6859.00,1.0876
6858.00,1.0904
6857.00,1.0928
6856.00,1.0950
6855.00,1.0971
6854.00,1.0993
6853.00,1.1015
6852.00,1.1038
6851.00,1.1062
6850.00,1.1088
6849.00,1.1116
6848.00,1.1143
6847.00,1.1168
6846.00,1.1191
6845.00,1.1213
6844.00,1.1233
6843.00,1.1250
6842.00,1.1267
6841.00,1.1285
6840.00,1.1303
6839.00,1.1320
6838.00,1.1336
6837.00,1.1353
6836.00,1.1370
6835.00,1.1387
6834.00,1.1402
6833.00,1.1414
6832.00,1.1428
6831.00,1.1444
6830.00,1.1460
6829.00,1.1475
6828.00,1.1491
6827.00,1.1507
6826.00,1.1523
6825.00,1.1537
6824.00,1.1547
6823.00,1.1555
6822.00,1.1564
6821.00,1.1574
6820.00,1.1584
6819.00,1.1593
6818.00,1.1603
6817.00,1.1615
6816.00,1.1627
6815.00,1.1635
6814.00,1.1641
6813.00,1.1647
6812.00,1.1655
6811.00,1.1662
6810.00,1.1670
6809.00,1.1676
6808.00,1.1680
6807.00,1.1680
6806.00,1.1678
6805.00,1.1676
6804.00,1.1674
6803.00,1.1673
6802.00,1.1673
6801.00,1.1675
6800.00,1.1679
6799.00,1.1681
6798.00,1.1678
6797.00,1.1673
6796.00,1.1669
6795.00,1.1665
6794.00,1.1659
6793.00,1.1655
6792.00,1.1653
6791.00,1.1652
6790.00,1.1647
6789.00,1.1639
6788.00,1.1628
6787.00,1.1618
6786.00,1.1610
6785.00,1.1602
6784.00,1.1593
6783.00,1.1585
6782.00,1.1581
6781.00,1.1580
6780.00,1.1578
6779.00,1.1573
6778.00,1.1564
6777.00,1.1555
6776.00,1.1542
6775.00,1.1525
6774.00,1.1504
6773.00,1.1483
6772.00,1.1462
6771.00,1.1443
6770.00,1.1426
6769.00,1.1412
6768.00,1.1402
6767.00,1.1393
6766.00,1.1381
6765.00,1.1367
6764.00,1.1349
6763.00,1.1329
6762.00,1.1309
6761.00,1.1289
6760.00,1.1268
6759.00,1.1248
6758.00,1.1228
6757.00,1.1210
6756.00,1.1190
6755.00,1.1167
6754.00,1.1142
6753.00,1.1119
6752.00,1.1100
6751.00,1.1084
6750.00,1.1068
6749.00,1.1050
6748.00,1.1029
6747.00,1.1005
6746.00,1.0981
6745.00,1.0956
6744.00,1.0931
6743.00,1.0908
6742.00,1.0884
6741.00,1.0861
6740.00,1.0838
6739.00,1.0816
6738.00,1.0792
6737.00,1.0766
6736.00,1.0738
6735.00,1.0709
6734.00,1.0681
6733.00,1.0655
6732.00,1.0630
6731.00,1.0605
6730.00,1.0579
6729.00,1.0554
6728.00,1.0530
6727.00,1.0506
6726.00,1.0481
6725.00,1.0455
6724.00,1.0427
6723.00,1.0399
6722.00,1.0371
6721.00,1.0344
6720.00,1.0314
6719.00,1.0281
6718.00,1.0248
6717.00,1.0218
6716.00,1.0189
6715.00,1.0161
6714.00,1.0134
6713.00,1.0110
6712.00,1.0087
6711.00,1.0060
6710.00,1.0031
6709.00,1.0001
6708.00,0.9972
6707.00,0.9945
6706.00,0.9917
6705.00,0.9888
6704.00,0.9860
6703.00,0.9833
6702.00,0.9805
6701.00,0.9778
6700.00,0.9752
6699.00,0.9726
6698.00,0.9700
6697.00,0.9674
6696.00,0.9647
6695.00,0.9621
6694.00,0.9595
6693.00,0.9569
6692.00,0.9543
6691.00,0.9518
6690.00,0.9494
6689.00,0.9471
6688.00,0.9446
6687.00,0.9420
6686.00,0.9393
6685.00,0.9367
6684.00,0.9342
6683.00,0.9317
6682.00,0.9292
6681.00,0.9267
6680.00,0.9242
6679.00,0.9218
6678.00,0.9194
6677.00,0.9170
6676.00,0.9147
6675.00,0.9124
6674.00,0.9100
6673.00,0.9075
6672.00,0.9049
6671.00,0.9023
6670.00,0.8998
6669.00,0.8975
6668.00,0.8953
6667.00,0.8931
6666.00,0.8910
6665.00,0.8890
6664.00,0.8870
6663.00,0.8849
6662.00,0.8827
6661.00,0.8806
6660.00,0.8786
6659.00,0.8766
6658.00,0.8746
6657.00,0.8726
6656.00,0.8707
6655.00,0.8689
6654.00,0.8670
6653.00,0.8653
6652.00,0.8637
6651.00,0.8621
6650.00,0.8605
6649.00,0.8588
6648.00,0.8569
6647.00,0.8551
6646.00,0.8536
6645.00,0.8522
6644.00,0.8509
6643.00,0.8495
6642.00,0.8481
6641.00,0.8467
6640.00,0.8453
6639.00,0.8439
6638.00,0.8427
6637.00,0.8415
6636.00,0.8404
6635.00,0.8393
6634.00,0.8383
6633.00,0.8371
6632.00,0.8359
6631.00,0.8347
6630.00,0.8336
6629.00,0.8326
6628.00,0.8316
6627.00,0.8306
6626.00,0.8298
6625.00,0.8290
6624.00,0.8284
6623.00,0.8279
6622.00,0.8274
6621.00,0.8270
6620.00,0.8265
6619.00,0.8260
6618.00,0.8254
6617.00,0.8250
6616.00,0.8245
6615.00,0.8240
6614.00,0.8237
6613.00,0.8236
6612.00,0.8236
6611.00,0.8237
6610.00,0.8239
6609.00,0.8242
6608.00,0.8244
6607.00,0.8245
6606.00,0.8245
6605.00,0.8245
6604.00,0.8247
6603.00,0.8249
6602.00,0.8254
6601.00,0.8260
6600.00,0.8268
6599.00,0.8276
6598.00,0.8283
6597.00,0.8288
6596.00,0.8291
6595.00,0.8296
6594.00,0.8303
6593.00,0.8311
6592.00,0.8321
6591.00,0.8331
6590.00,0.8341
6589.00,0.8351
6588.00,0.8361
6587.00,0.8369
6586.00,0.8378
6585.00,0.8390
6584.00,0.8404
6583.00,0.8420
6582.00,0.8436
6581.00,0.8451
6580.00,0.8466
6579.00,0.8480
6578.00,0.8494
6577.00,0.8508
6576.00,0.8523
6575.00,0.8539
6574.00,0.8557
6573.00,0.8576
6572.00,0.8595
6571.00,0.8612
6570.00,0.8629
6569.00,0.8648
6568.00,0.8667
6567.00,0.8687
6566.00,0.8706
6565.00,0.8725
6564.00,0.8745
6563.00,0.8764
6562.00,0.8783
6561.00,0.8803
6560.00,0.8823
6559.00,0.8845
6558.00,0.8869
6557.00,0.8894
6556.00,0.8917
6555.00,0.8940
6554.00,0.8963
6553.00,0.8986
6552.00,0.9010
6551.00,0.9034
6550.00,0.9057
6549.00,0.9081
6548.00,0.9105
6547.00,0.9129
6546.00,0.9153
6545.00,0.9177
6544.00,0.9202
6543.00,0.9228
6542.00,0.9256
6541.00,0.9283
6540.00,0.9310
6539.00,0.9337
6538.00,0.9363
6537.00,0.9390
6536.00,0.9417
6535.00,0.9444
6534.00,0.9473
6533.00,0.9501
6532.00,0.9530
6531.00,0.9558
6530.00,0.9586
6529.00,0.9616
6528.00,0.9645
6527.00,0.9673
6526.00,0.9700
6525.00,0.9728
6524.00,0.9756
6523.00,0.9784
6522.00,0.9811
6521.00,0.9838
6520.00,0.9866
6519.00,0.9895
6518.00,0.9924
6517.00,0.9954
6516.00,0.9983
6515.00,1.0011
6514.00,1.0038
6513.00,1.0066
6512.00,1.0095
6511.00,1.0123
6510.00,1.0151
6509.00,1.0181
6508.00,1.0211
6507.00,1.0242
6506.00,1.0274
6505.00,1.0305
6504.00,1.0335
6503.00,1.0363
6502.00,1.0389
6501.00,1.0414
6500.00,1.0441
6499.00,1.0469
6498.00,1.0499
6497.00,1.0529
6496.00,1.0558
6495.00,1.0588
6494.00,1.0616
6493.00,1.0645
6492.00,1.0671
6491.00,1.0697
6490.00,1.0723
6489.00,1.0749
6488.00,1.0775
6487.00,1.0803
6486.00,1.0833
6485.00,1.0864
6484.00,1.0894
6483.00,1.0922
6482.00,1.0950
6481.00,1.0977
6480.00,1.1002
6479.00,1.1026
6478.00,1.1051
6477.00,1.1078
6476.00,1.1106
6475.00,1.1132
6474.00,1.1155
6473.00,1.1179
6472.00,1.1202
6471.00,1.1226
6470.00,1.1248
6469.00,1.1268
6468.00,1.1289
6467.00,1.1312
6466.00,1.1335
6465.00,1.1357
6464.00,1.1379
6463.00,1.1402
6462.00,1.1428
6461.00,1.1453
6460.00,1.1477
6459.00,1.1497
6458.00,1.1517
6457.00,1.1535
6456.00,1.1552
6455.00,1.1566
6454.00,1.1581
6453.00,1.1598
6452.00,1.1615
6451.00,1.1630
6450.00,1.1647
6449.00,1.1667
6448.00,1.1687
6447.00,1.1706
6446.00,1.1722
6445.00,1.1738
6444.00,1.1753
6443.00,1.1768
6442.00,1.1782
6441.00,1.1796
6440.00,1.1809
6439.00,1.1820
6438.00,1.1831
6437.00,1.1842
6436.00,1.1851
6435.00,1.1857
6434.00,1.1861
6433.00,1.1869
6432.00,1.1880
6431.00,1.1890
6430.00,1.1899
6429.00,1.1905
6428.00,1.1910
6427.00,1.1914
6426.00,1.1917
6425.00,1.1920
6424.00,1.1923
6423.00,1.1926
6422.00,1.1929
6421.00,1.1933
6420.00,1.1938
6419.00,1.1941
6418.00,1.1942
6417.00,1.1941
6416.00,1.1941
6415.00,1.1938
6414.00,1.1934
6413.00,1.1930
6412.00,1.1928
6411.00,1.1926
6410.00,1.1925
6409.00,1.1924
6408.00,1.1921
6407.00,1.1916
6406.00,1.1908
6405.00,1.1899
6404.00,1.1889
6403.00,1.1879
6402.00,1.1871
6401.00,1.1862
6400.00,1.1852
6399.00,1.1841
6398.00,1.1830
6397.00,1.1819
6396.00,1.1809
6395.00,1.1798
6394.00,1.1788
6393.00,1.1776
6392.00,1.1762
6391.00,1.1745
6390.00,1.1727
6389.00,1.1709
6388.00,1.1692
6387.00,1.1675
6386.00,1.1658
6385.00,1.1643
6384.00,1.1628
6383.00,1.1612
6382.00,1.1594
6381.00,1.1577
6380.00,1.1559
6379.00,1.1541
6378.00,1.1519
6377.00,1.1496
6376.00,1.1473
6375.00,1.1451
6374.00,1.1427
6373.00,1.1402
6372.00,1.1376
6371.00,1.1352
6370.00,1.1330
6369.00,1.1307
6368.00,1.1284
6367.00,1.1259
6366.00,1.1233
6365.00,1.1208
6364.00,1.1179
6363.00,1.1149
6362.00,1.1119
6361.00,1.1090
6360.00,1.1064
6359.00,1.1037
6358.00,1.1008
6357.00,1.0979
6356.00,1.0949
6355.00,1.0920
6354.00,1.0892
6353.00,1.0864
6352.00,1.0836
6351.00,1.0806
6350.00,1.0774
6349.00,1.0740
6348.00,1.0706
6347.00,1.0674
6346.00,1.0643
6345.00,1.0613
6344.00,1.0584
6343.00,1.0555
6342.00,1.0526
6341.00,1.0496
6340.00,1.0465
6339.00,1.0431
6338.00,1.0396
6337.00,1.0360
6336.00,1.0324
6335.00,1.0288
6334.00,1.0254
6333.00,1.0223
6332.00,1.0194
6331.00,1.0165
6330.00,1.0137
6329.00,1.0106
6328.00,1.0073
6327.00,1.0038
6326.00,1.0002
6325.00,0.9968
6324.00,0.9936
6323.00,0.9904
6322.00,0.9872
6321.00,0.9841
6320.00,0.9809
6319.00,0.9776
6318.00,0.9743
6317.00,0.9711
6316.00,0.9679
6315.00,0.9649
6314.00,0.9620
6313.00,0.9592
6312.00,0.9563
6311.00,0.9534
6310.00,0.9503
6309.00,0.9472
6308.00,0.9440
6307.00,0.9408
6306.00,0.9377
6305.00,0.9348
6304.00,0.9319
6303.00,0.9291
6302.00,0.9262
6301.00,0.9235
6300.00,0.9206
6299.00,0.9176
6298.00,0.9146
6297.00,0.9117
6296.00,0.9089
6295.00,0.9060
6294.00,0.9032
6293.00,0.9004
6292.00,0.8977
6291.00,0.8951
6290.00,0.8925
6289.00,0.8898
6288.00,0.8872
6287.00,0.8845
6286.00,0.8819
6285.00,0.8793
6284.00,0.8768
6283.00,0.8743
6282.00,0.8719
6281.00,0.8696
6280.00,0.8674
6279.00,0.8651
6278.00,0.8629
6277.00,0.8607
6276.00,0.8585
6275.00,0.8562
6274.00,0.8540
6273.00,0.8518
6272.00,0.8498
6271.00,0.8477
6270.00,0.8457
6269.00,0.8438
6268.00,0.8420
6267.00,0.8402
6266.00,0.8384
6265.00,0.8366
6264.00,0.8348
6263.00,0.8329
6262.00,0.8311
6261.00,0.8294
6260.00,0.8277
6259.00,0.8260
6258.00,0.8245
6257.00,0.8231
6256.00,0.8216
6255.00,0.8200
6254.00,0.8183
6253.00,0.8167
6252.00,0.8152
6251.00,0.8137
6250.00,0.8123
6249.00,0.8110
6248.00,0.8098
6247.00,0.8086
6246.00,0.8074
6245.00,0.8064
6244.00,0.8055
6243.00,0.8046
6242.00,0.8037
6241.00,0.8029
6240.00,0.8021
6239.00,0.8012
6238.00,0.8003
6237.00,0.7994
6236.00,0.7985
6235.00,0.7978
6234.00,0.7971
6233.00,0.7966
6232.00,0.7960
6231.00,0.7956
6230.00,0.7953
6229.00,0.7951
6228.00,0.7948
6227.00,0.7944
6226.00,0.7942
6225.00,0.7940
6224.00,0.7939
6223.00,0.7938
6222.00,0.7939
6221.00,0.7941
6220.00,0.7944
6219.00,0.7947
6218.00,0.7950
6217.00,0.7954
6216.00,0.7958
6215.00,0.7961
6214.00,0.7964
6213.00,0.7967
6212.00,0.7971
6211.00,0.7976
6210.00,0.7981
6209.00,0.7987
6208.00,0.7993
6207.00,0.8000
6206.00,0.8009
6205.00,0.8021
6204.00,0.8034
6203.00,0.8046
6202.00,0.8059
6201.00,0.8072
6200.00,0.8083
6199.00,0.8093
6198.00,0.8102
6197.00,0.8114
6196.00,0.8127
6195.00,0.8142
6194.00,0.8157
6193.00,0.8174
6192.00,0.8191
6191.00,0.8209
6190.00,0.8226
6189.00,0.8243
6188.00,0.8262
6187.00,0.8280
6186.00,0.8298
6185.00,0.8318
6184.00,0.8338
6183.00,0.8359
6182.00,0.8380
6181.00,0.8401
6180.00,0.8422
6179.00,0.8443
6178.00,0.8465
6177.00,0.8486
6176.00,0.8509
6175.00,0.8532
6174.00,0.8557
6173.00,0.8583
6172.00,0.8609
6171.00,0.8634
6170.00,0.8660
6169.00,0.8685
6168.00,0.8710
6167.00,0.8736
6166.00,0.8762
6165.00,0.8790
6164.00,0.8819
6163.00,0.8847
6162.00,0.8875
6161.00,0.8901
6160.00,0.8927
6159.00,0.8955
6158.00,0.8984
6157.00,0.9015
6156.00,0.9046
6155.00,0.9078
6154.00,0.9111
6153.00,0.9142
6152.00,0.9172
6151.00,0.9201
6150.00,0.9231
6149.00,0.9261
6148.00,0.9291
6147.00,0.9322
6146.00,0.9354
6145.00,0.9388
6144.00,0.9422
6143.00,0.9455
6142.00,0.9488
6141.00,0.9522
6140.00,0.9557
6139.00,0.9591
6138.00,0.9624
6137.00,0.9658
6136.00,0.9692
6135.00,0.9724
6134.00,0.9755
6133.00,0.9788
6132.00,0.9823
6131.00,0.9859
6130.00,0.9896
6129.00,0.9933
6128.00,0.9968
6127.00,1.0002
6126.00,1.0035
6125.00,1.0067
6124.00,1.0100
6123.00,1.0133
6122.00,1.0166
6121.00,1.0200
6120.00,1.0234
6119.00,1.0268
6118.00,1.0303
6117.00,1.0338
6116.00,1.0374
6115.00,1.0410
6114.00,1.0445
6113.00,1.0480
6112.00,1.0513
6111.00,1.0545
6110.00,1.0579
6109.00,1.0613
6108.00,1.0648
6107.00,1.0682
6106.00,1.0715
6105.00,1.0748
6104.00,1.0781
6103.00,1.0815
6102.00,1.0849
6101.00,1.0885
6100.00,1.0920
6099.00,1.0953
6098.00,1.0986
6097.00,1.1018
6096.00,1.1051
6095.00,1.1083
6094.00,1.1115
6093.00,1.1148
6092.00,1.1181
6091.00,1.1214
6090.00,1.1246
6089.00,1.1278
6088.00,1.1310
6087.00,1.1342
6086.00,1.1374
6085.00,1.1406
6084.00,1.1435
6083.00,1.1463
6082.00,1.1491
6081.00,1.1521
6080.00,1.1550
6079.00,1.1579
6078.00,1.1606
6077.00,1.1633
6076.00,1.1661
6075.00,1.1688
6074.00,1.1716
6073.00,1.1745
6072.00,1.1774
6071.00,1.1805
6070.00,1.1835
6069.00,1.1865
6068.00,1.1892
6067.00,1.1916
6066.00,1.1938
6065.00,1.1959
6064.00,1.1979
6063.00,1.2000
6062.00,1.2022
6061.00,1.2045
6060.00,1.2070
6059.00,1.2094
6058.00,1.2116
6057.00,1.2137
6056.00,1.2155
6055.00,1.2174
6054.00,1.2192
6053.00,1.2212
6052.00,1.2230
6051.00,1.2247
6050.00,1.2261
6049.00,1.2275
6048.00,1.2287
6047.00,1.2300
6046.00,1.2314
6045.00,1.2328
6044.00,1.2340
6043.00,1.2351
6042.00,1.2362
6041.00,1.2375
6040.00,1.2388
6039.00,1.2401
6038.00,1.2414
6037.00,1.2428
6036.00,1.2438
6035.00,1.2444
6034.00,1.2449
6033.00,1.2454
6032.00,1.2462
6031.00,1.2470
6030.00,1.2476
6029.00,1.2481
6028.00,1.2484
6027.00,1.2488
6026.00,1.2491
6025.00,1.2496
6024.00,1.2501
6023.00,1.2505
6022.00,1.2507
6021.00,1.2506
6020.00,1.2503
6019.00,1.2500
6018.00,1.2497
6017.00,1.2494
6016.00,1.2491
6015.00,1.2488
6014.00,1.2486
6013.00,1.2483
6012.00,1.2479
6011.00,1.2474
6010.00,1.2469
6009.00,1.2465
6008.00,1.2461
6007.00,1.2455
6006.00,1.2447
6005.00,1.2438
6004.00,1.2428
6003.00,1.2416
6002.00,1.2403
6001.00,1.2390
6000.00,1.2377
5999.00,1.2367
5998.00,1.2356
5997.00,1.2344
5996.00,1.2332
5995.00,1.2319
5994.00,1.2306
5993.00,1.2291
5992.00,1.2275
5991.00,1.2258
5990.00,1.2242
5989.00,1.2227
5988.00,1.2210
5987.00,1.2192
5986.00,1.2174
5985.00,1.2157
5984.00,1.2139
5983.00,1.2119
5982.00,1.2097
5981.00,1.2075
5980.00,1.2054
5979.00,1.2032
5978.00,1.2009
5977.00,1.1987
5976.00,1.1963
5975.00,1.1938
5974.00,1.1913
5973.00,1.1885
5972.00,1.1856
5971.00,1.1828
5970.00,1.1801
5969.00,1.1775
5968.00,1.1748
5967.00,1.1720
5966.00,1.1690
5965.00,1.1661
5964.00,1.1631
5963.00,1.1599
5962.00,1.1568
5961.00,1.1538
5960.00,1.1509
5959.00,1.1480
5958.00,1.1451
5957.00,1.1420
5956.00,1.1387
5955.00,1.1352
5954.00,1.1317
5953.00,1.1283
5952.00,1.1250
5951.00,1.1218
5950.00,1.1187
5949.00,1.1157
5948.00,1.1124
5947.00,1.1088
5946.00,1.1051
5945.00,1.1014
5944.00,1.0978
5943.00,1.0942
5942.00,1.0907
5941.00,1.0874
5940.00,1.0842
5939.00,1.0810
5938.00,1.0777
5937.00,1.0743
5936.00,1.0709
5935.00,1.0673
5934.00,1.0638
5933.00,1.0602
5932.00,1.0567
5931.00,1.0533
5930.00,1.0500
5929.00,1.0468
5928.00,1.0434
5927.00,1.0399
5926.00,1.0365
5925.00,1.0331
5924.00,1.0296
5923.00,1.0258
5922.00,1.0221
5921.00,1.0186
5920.00,1.0152
5919.00,1.0119
5918.00,1.0087
5917.00,1.0054
5916.00,1.0020
5915.00,0.9984
5914.00,0.9947
5913.00,0.9910
5912.00,0.9875
5911.00,0.9842
5910.00,0.9810
5909.00,0.9779
5908.00,0.9747
5907.00,0.9712
5906.00,0.9677
5905.00,0.9642
5904.00,0.9608
5903.00,0.9576
5902.00,0.9544
5901.00,0.9513
5900.00,0.9483
5899.00,0.9454
5898.00,0.9423
5897.00,0.9392
5896.00,0.9361
5895.00,0.9330
5894.00,0.9300
5893.00,0.9270
5892.00,0.9240
5891.00,0.9209
5890.00,0.9178
5889.00,0.9148
5888.00,0.9118
5887.00,0.9089
5886.00,0.9061
5885.00,0.9035
5884.00,0.9009
5883.00,0.8983
5882.00,0.8957
5881.00,0.8930
5880.00,0.8903
5879.00,0.8876
5878.00,0.8850
5877.00,0.8825
5876.00,0.8801
5875.00,0.8777
5874.00,0.8753
5873.00,0.8731
5872.00,0.8708
5871.00,0.8685
5870.00,0.8663
5869.00,0.8641
5868.00,0.8619
5867.00,0.8597
5866.00,0.8576
5865.00,0.8555
5864.00,0.8535
5863.00,0.8516
5862.00,0.8497
5861.00,0.8478
5860.00,0.8460
5859.00,0.8441
5858.00,0.8423
5857.00,0.8406
5856.00,0.8389
5855.00,0.8373
5854.00,0.8356
5853.00,0.8341
5852.00,0.8326
5851.00,0.8311
5850.00,0.8296
5849.00,0.8283
5848.00,0.8271
5847.00,0.8259
5846.00,0.8249
5845.00,0.8239
5844.00,0.8230
5843.00,0.8220
5842.00,0.8211
5841.00,0.8203
5840.00,0.8195
5839.00,0.8188
5838.00,0.8182
5837.00,0.8177
5836.00,0.8172
5835.00,0.8168
5834.00,0.8165
5833.00,0.8163
5832.00,0.8161
5831.00,0.8161
5830.00,0.8160
5829.00,0.8160
5828.00,0.8160
5827.00,0.8160
5826.00,0.8162
5825.00,0.8165
5824.00,0.8169
5823.00,0.8173
5822.00,0.8178
5821.00,0.8183
5820.00,0.8189
5819.00,0.8195
5818.00,0.8202
5817.00,0.8210
5816.00,0.8219
5815.00,0.8227
5814.00,0.8236
5813.00,0.8246
5812.00,0.8256
5811.00,0.8267
5810.00,0.8279
5809.00,0.8291
5808.00,0.8305
5807.00,0.8319
5806.00,0.8335
5805.00,0.8350
5804.00,0.8366
5803.00,0.8381
5802.00,0.8396
5801.00,0.8411
5800.00,0.8428
5799.00,0.8445
5798.00,0.8463
5797.00,0.8482
5796.00,0.8501
5795.00,0.8521
5794.00,0.8541
5793.00,0.8563
5792.00,0.8584
5791.00,0.8607
5790.00,0.8629
5789.00,0.8653
5788.00,0.8675
5787.00,0.8698
5786.00,0.8722
5785.00,0.8747
5784.00,0.8773
5783.00,0.8798
5782.00,0.8824
5781.00,0.8850
5780.00,0.8877
5779.00,0.8904
5778.00,0.8931
5777.00,0.8960
5776.00,0.8989
5775.00,0.9019
5774.00,0.9050
5773.00,0.9080
5772.00,0.9111
5771.00,0.9141
5770.00,0.9171
5769.00,0.9202
5768.00,0.9233
5767.00,0.9265
5766.00,0.9298
5765.00,0.9330
5764.00,0.9362
5763.00,0.9395
5762.00,0.9427
5761.00,0.9462
5760.00,0.9497
5759.00,0.9534
5758.00,0.9571
5757.00,0.9607
5756.00,0.9642
5755.00,0.9676
5754.00,0.9710
5753.00,0.9746
5752.00,0.9782
5751.00,0.9820
5750.00,0.9858
5749.00,0.9895
5748.00,0.9931
5747.00,0.9966
5746.00,1.0002
5745.00,1.0039
5744.00,1.0077
5743.00,1.0115
5742.00,1.0151
5741.00,1.0188
5740.00,1.0225
5739.00,1.0263
5738.00,1.0302
5737.00,1.0342
5736.00,1.0382
5735.00,1.0423
5734.00,1.0462
5733.00,1.0500
5732.00,1.0537
5731.00,1.0575
5730.00,1.0613
5729.00,1.0651
5728.00,1.0689
5727.00,1.0726
5726.00,1.0763
5725.00,1.0800
5724.00,1.0837
5723.00,1.0873
5722.00,1.0910
5721.00,1.0947
5720.00,1.0984
5719.00,1.1020
5718.00,1.1058
5717.00,1.1095
5716.00,1.1132
5715.00,1.1168
5714.00,1.1204
5713.00,1.1240
5712.00,1.1276
5711.00,1.1313
5710.00,1.1351
5709.00,1.1389
5708.00,1.1426
5707.00,1.1461
5706.00,1.1494
5705.00,1.1526
5704.00,1.1559
5703.00,1.1592
5702.00,1.1626
5701.00,1.1661
5700.00,1.1697
5699.00,1.1732
5698.00,1.1767
5697.00,1.1800
5696.00,1.1832
5695.00,1.1864
5694.00,1.1895
5693.00,1.1926
5692.00,1.1957
5691.00,1.1988
5690.00,1.2020
5689.00,1.2053
5688.00,1.2084
5687.00,1.2114
5686.00,1.2144
5685.00,1.2174
5684.00,1.2203
5683.00,1.2231
5682.00,1.2260
5681.00,1.2290
5680.00,1.2321
5679.00,1.2351
5678.00,1.2378
5677.00,1.2403
5676.00,1.2427
5675.00,1.2451
5674.00,1.2476
5673.00,1.2504
5672.00,1.2532
5671.00,1.2560
5670.00,1.2584
5669.00,1.2605
5668.00,1.2625
5667.00,1.2644
5666.00,1.2664
5665.00,1.2685
5664.00,1.2706
5663.00,1.2726
5662.00,1.2744
5661.00,1.2762
5660.00,1.2781
5659.00,1.2800
5658.00,1.2819
5657.00,1.2838
5656.00,1.2855
5655.00,1.2870
5654.00,1.2886
5653.00,1.2902
5652.00,1.2917
5651.00,1.2931
5650.00,1.2942
5649.00,1.2953
5648.00,1.2963
5647.00,1.2973
5646.00,1.2982
5645.00,1.2991
5644.00,1.2999
5643.00,1.3004
5642.00,1.3007
5641.00,1.3011
5640.00,1.3017
5639.00,1.3024
5638.00,1.3031
5637.00,1.3036
5636.00,1.3040
5635.00,1.3042
5634.00,1.3044
5633.00,1.3047
5632.00,1.3049
5631.00,1.3049
5630.00,1.3048
5629.00,1.3045
5628.00,1.3041
5627.00,1.3038
5626.00,1.3037
5625.00,1.3038
5624.00,1.3038
5623.00,1.3036
5622.00,1.3031
5621.00,1.3024
5620.00,1.3017
5619.00,1.3010
5618.00,1.3004
5617.00,1.2999
5616.00,1.2993
5615.00,1.2986
5614.00,1.2977
5613.00,1.2965
5612.00,1.2954
5611.00,1.2942
5610.00,1.2930
5609.00,1.2919
5608.00,1.2906
5607.00,1.2893
5606.00,1.2878
5605.00,1.2863
5604.00,1.2845
5603.00,1.2827
5602.00,1.2810
5601.00,1.2794
5600.00,1.2779
5599.00,1.2763
5598.00,1.2746
5597.00,1.2728
5596.00,1.2708
5595.00,1.2686
5594.00,1.2664
5593.00,1.2641
5592.00,1.2620
5591.00,1.2598
5590.00,1.2577
5589.00,1.2555
5588.00,1.2531
5587.00,1.2506
5586.00,1.2481
5585.00,1.2454
5584.00,1.2426
5583.00,1.2397
5582.00,1.2369
5581.00,1.2343
5580.00,1.2316
5579.00,1.2289
5578.00,1.2262
5577.00,1.2234
5576.00,1.2204
5575.00,1.2172
5574.00,1.2140
5573.00,1.2107
5572.00,1.2074
5571.00,1.2041
5570.00,1.2007
5569.00,1.1974
5568.00,1.1940
5567.00,1.1906
5566.00,1.1872
5565.00,1.1837
5564.00,1.1800
5563.00,1.1762
5562.00,1.1723
5561.00,1.1686
5560.00,1.1648
5559.00,1.1611
5558.00,1.1575
5557.00,1.1538
5556.00,1.1502
5555.00,1.1464
5554.00,1.1425
5553.00,1.1385
5552.00,1.1346
5551.00,1.1305
5550.00,1.1264
5549.00,1.1224
5548.00,1.1183
5547.00,1.1143
5546.00,1.1103
5545.00,1.1063
5544.00,1.1022
5543.00,1.0981
5542.00,1.0940
5541.00,1.0899
5540.00,1.0858
5539.00,1.0816
5538.00,1.0774
5537.00,1.0732
5536.00,1.0689
5535.00,1.0647
5534.00,1.0606
5533.00,1.0566
5532.00,1.0526
5531.00,1.0486
5530.00,1.0445
5529.00,1.0404
5528.00,1.0363
5527.00,1.0322
5526.00,1.0281
5525.00,1.0240
5524.00,1.0198
5523.00,1.0156
5522.00,1.0114
5521.00,1.0073
5520.00,1.0032
5519.00,0.9992
5518.00,0.9952
5517.00,0.9913
5516.00,0.9874
5515.00,0.9834
5514.00,0.9795
5513.00,0.9756
5512.00,0.9717
5511.00,0.9677
5510.00,0.9638
5509.00,0.9600
5508.00,0.9561
5507.00,0.9522
5506.00,0.9483
5505.00,0.9445
5504.00,0.9408
5503.00,0.9372
5502.00,0.9336
5501.00,0.9300
5500.00,0.9264
5499.00,0.9227
5498.00,0.9190
5497.00,0.9154
5496.00,0.9119
5495.00,0.9085
5494.00,0.9050
5493.00,0.9016
5492.00,0.8981
5491.00,0.8946
5490.00,0.8912
5489.00,0.8879
5488.00,0.8847
5487.00,0.8816
5486.00,0.8784
5485.00,0.8753
5484.00,0.8721
5483.00,0.8690
5482.00,0.8659
5481.00,0.8630
5480.00,0.8601
5479.00,0.8574
5478.00,0.8548
5477.00,0.8522
5476.00,0.8495
5475.00,0.8467
5474.00,0.8440
5473.00,0.8413
5472.00,0.8388
5471.00,0.8364
5470.00,0.8341
5469.00,0.8320
5468.00,0.8298
5467.00,0.8275
5466.00,0.8252
5465.00,0.8231
5464.00,0.8210
5463.00,0.8190
5462.00,0.8170
5461.00,0.8152
5460.00,0.8134
5459.00,0.8118
5458.00,0.8101
5457.00,0.8086
5456.00,0.8072
5455.00,0.8059
5454.00,0.8046
5453.00,0.8033
5452.00,0.8021
5451.00,0.8010
5450.00,0.8000
5449.00,0.7990
5448.00,0.7981
5447.00,0.7973
5446.00,0.7965
5445.00,0.7959
5444.00,0.7954
5443.00,0.7949
5442.00,0.7946
5441.00,0.7943
5440.00,0.7940
5439.00,0.7937
5438.00,0.7937
5437.00,0.7938
5436.00,0.7941
5435.00,0.7943
5434.00,0.7945
5433.00,0.7948
5432.00,0.7953
5431.00,0.7958
5430.00,0.7965
5429.00,0.7972
5428.00,0.7978
5427.00,0.7985
5426.00,0.7992
5425.00,0.8002
5424.00,0.8014
5423.00,0.8027
5422.00,0.8041
5421.00,0.8055
5420.00,0.8069
5419.00,0.8084
5418.00,0.8100
5417.00,0.8118
5416.00,0.8136
5415.00,0.8154
5414.00,0.8171
5413.00,0.8189
5412.00,0.8207
5411.00,0.8227
5410.00,0.8247
5409.00,0.8269
5408.00,0.8290
5407.00,0.8313
5406.00,0.8336
5405.00,0.8360
5404.00,0.8385
5403.00,0.8411
5402.00,0.8438
5401.00,0.8465
5400.00,0.8492
5399.00,0.8520
5398.00,0.8549
5397.00,0.8578
5396.00,0.8608
5395.00,0.8638
5394.00,0.8668
5393.00,0.8699
5392.00,0.8730
5391.00,0.8761
5390.00,0.8793
5389.00,0.8826
5388.00,0.8859
5387.00,0.8892
5386.00,0.8926
5385.00,0.8961
5384.00,0.8995
5383.00,0.9030
5382.00,0.9066
5381.00,0.9101
5380.00,0.9137
5379.00,0.9174
5378.00,0.9211
5377.00,0.9249
5376.00,0.9288
5375.00,0.9327
5374.00,0.9365
5373.00,0.9404
5372.00,0.9444
5371.00,0.9484
5370.00,0.9524
5369.00,0.9564
5368.00,0.9604
5367.00,0.9644
5366.00,0.9685
5365.00,0.9726
5364.00,0.9768
5363.00,0.9810
5362.00,0.9852
5361.00,0.9894
5360.00,0.9937
5359.00,0.9979
5358.00,1.0022
5357.00,1.0065
5356.00,1.0108
5355.00,1.0151
5354.00,1.0195
5353.00,1.0239
5352.00,1.0282
5351.00,1.0325
5350.00,1.0368
5349.00,1.0411
5348.00,1.0453
5347.00,1.0495
5346.00,1.0538
5345.00,1.0582
5344.00,1.0626
5343.00,1.0671
5342.00,1.0715
5341.00,1.0760
5340.00,1.0805
5339.00,1.0849
5338.00,1.0893
5337.00,1.0937
5336.00,1.0983
5335.00,1.1028
5334.00,1.1073
5333.00,1.1117
5332.00,1.1160
5331.00,1.1202
5330.00,1.1241
5329.00,1.1282
5328.00,1.1323
5327.00,1.1367
5326.00,1.1411
5325.00,1.1456
5324.00,1.1501
5323.00,1.1544
5322.00,1.1585
5321.00,1.1626
5320.00,1.1667
5319.00,1.1708
5318.00,1.1751
5317.00,1.1793
5316.00,1.1837
5315.00,1.1880
5314.00,1.1922
5313.00,1.1964
5312.00,1.2005
5311.00,1.2045
5310.00,1.2084
5309.00,1.2123
5308.00,1.2161
5307.00,1.2201
5306.00,1.2240
5305.00,1.2279
5304.00,1.2318
5303.00,1.2356
5302.00,1.2395
5301.00,1.2433
5300.00,1.2470
5299.00,1.2508
5298.00,1.2544
5297.00,1.2580
5296.00,1.2614
5295.00,1.2648
5294.00,1.2682
5293.00,1.2716
5292.00,1.2750
5291.00,1.2782
5290.00,1.2814
5289.00,1.2846
5288.00,1.2879
5287.00,1.2913
5286.00,1.2947
5285.00,1.2979
5284.00,1.3008
5283.00,1.3035
5282.00,1.3061
5281.00,1.3089
5280.00,1.3116
5279.00,1.3143
5278.00,1.3169
5277.00,1.3194
5276.00,1.3217
5275.00,1.3237
5274.00,1.3258
5273.00,1.3281
5272.00,1.3305
5271.00,1.3329
5270.00,1.3352
5269.00,1.3373
5268.00,1.3391
5267.00,1.3408
5266.00,1.3424
5265.00,1.3441
5264.00,1.3458
5263.00,1.3476
5262.00,1.3495
5261.00,1.3513
5260.00,1.3532
5259.00,1.3549
5258.00,1.3566
5257.00,1.3581
5256.00,1.3595
5255.00,1.3607
5254.00,1.3617
5253.00,1.3628
5252.00,1.3639
5251.00,1.3647
5250.00,1.3654
5249.00,1.3661
5248.00,1.3668
5247.00,1.3676
5246.00,1.3684
5245.00,1.3691
5244.00,1.3697
5243.00,1.3700
5242.00,1.3702
5241.00,1.3704
5240.00,1.3707
5239.00,1.3710
5238.00,1.3711
5237.00,1.3710
5236.00,1.3707
5235.00,1.3703
5234.00,1.3699
5233.00,1.3695
5232.00,1.3691
5231.00,1.3687
5230.00,1.3683
5229.00,1.3679
5228.00,1.3674
5227.00,1.3668
5226.00,1.3662
5225.00,1.3656
5224.00,1.3649
5223.00,1.3642
5222.00,1.3634
5221.00,1.3625
5220.00,1.3614
5219.00,1.3601
5218.00,1.3588
5217.00,1.3577
5216.00,1.3566
5215.00,1.3555
5214.00,1.3542
5213.00,1.3529
5212.00,1.3513
5211.00,1.3495
5210.00,1.3476
5209.00,1.3457
5208.00,1.3441
5207.00,1.3425
5206.00,1.3409
5205.00,1.3390
5204.00,1.3369
5203.00,1.3346
5202.00,1.3323
5201.00,1.3301
5200.00,1.3279
5199.00,1.3257
5198.00,1.3233
5197.00,1.3207
5196.00,1.3181
5195.00,1.3155
5194.00,1.3130
5193.00,1.3106
5192.00,1.3080
5191.00,1.3052
5190.00,1.3022
5189.00,1.2991
5188.00,1.2959
5187.00,1.2926
5186.00,1.2892
5185.00,1.2858
5184.00,1.2824
5183.00,1.2791
5182.00,1.2758
5181.00,1.2726
5180.00,1.2693
5179.00,1.2657
5178.00,1.2620
5177.00,1.2582
5176.00,1.2544
5175.00,1.2507
5174.00,1.2469
5173.00,1.2432
5172.00,1.2395
5171.00,1.2356
5170.00,1.2316
5169.00,1.2275
5168.00,1.2234
5167.00,1.2192
5166.00,1.2150
5165.00,1.2107
5164.00,1.2064
5163.00,1.2020
5162.00,1.1975
5161.00,1.1930
5160.00,1.1886
5159.00,1.1841
5158.00,1.1796
5157.00,1.1750
5156.00,1.1705
5155.00,1.1659
5154.00,1.1613
5153.00,1.1568
5152.00,1.1523
5151.00,1.1476
5150.00,1.1429
5149.00,1.1380
5148.00,1.1332
5147.00,1.1285
5146.00,1.1238
5145.00,1.1190
5144.00,1.1143
5143.00,1.1094
5142.00,1.1046
5141.00,1.0998
5140.00,1.0951
5139.00,1.0904
5138.00,1.0856
5137.00,1.0810
5136.00,1.0762
5135.00,1.0715
5134.00,1.0668
5133.00,1.0621
5132.00,1.0573
5131.00,1.0526
5130.00,1.0478
5129.00,1.0431
5128.00,1.0384
5127.00,1.0337
5126.00,1.0291
5125.00,1.0245
5124.00,1.0200
5123.00,1.0155
5122.00,1.0109
5121.00,1.0064
5120.00,1.0018
5119.00,0.9973
5118.00,0.9929
5117.00,0.9886
5116.00,0.9844
5115.00,0.9802
5114.00,0.9760
5113.00,0.9717
5112.00,0.9675
5111.00,0.9633
5110.00,0.9591
5109.00,0.9549
5108.00,0.9508
5107.00,0.9466
5106.00,0.9426
5105.00,0.9387
5104.00,0.9349
5103.00,0.9311
5102.00,0.9274
5101.00,0.9237
5100.00,0.9200
5099.00,0.9162
5098.00,0.9125
5097.00,0.9089
5096.00,0.9053
5095.00,0.9017
5094.00,0.8982
5093.00,0.8948
5092.00,0.8914
5091.00,0.8881
5090.00,0.8849
5089.00,0.8818
5088.00,0.8786
5087.00,0.8756
5086.00,0.8726
5085.00,0.8697
5084.00,0.8669
5083.00,0.8641
5082.00,0.8613
5081.00,0.8585
5080.00,0.8558
5079.00,0.8532
5078.00,0.8506
5077.00,0.8482
5076.00,0.8458
5075.00,0.8435
5074.00,0.8412
5073.00,0.8390
5072.00,0.8368
5071.00,0.8348
5070.00,0.8327
5069.00,0.8308
5068.00,0.8288
5067.00,0.8270
5066.00,0.8252
5065.00,0.8237
5064.00,0.8222
5063.00,0.8209
5062.00,0.8196
5061.00,0.8183
5060.00,0.8172
5059.00,0.8160
5058.00,0.8150
5057.00,0.8141
5056.00,0.8133
5055.00,0.8125
5054.00,0.8119
5053.00,0.8114
5052.00,0.8110
5051.00,0.8107
5050.00,0.8106
5049.00,0.8105
5048.00,0.8104
5047.00,0.8104
5046.00,0.8105
5045.00,0.8107
5044.00,0.8111
5043.00,0.8115
5042.00,0.8121
5041.00,0.8127
5040.00,0.8134
5039.00,0.8143
5038.00,0.8152
5037.00,0.8163
5036.00,0.8174
5035.00,0.8186
5034.00,0.8199
5033.00,0.8213
5032.00,0.8228
5031.00,0.8243
5030.00,0.8259
5029.00,0.8277
5028.00,0.8295
5027.00,0.8314
5026.00,0.8334
5025.00,0.8356
5024.00,0.8378
5023.00,0.8400
5022.00,0.8423
5021.00,0.8447
5020.00,0.8472
5019.00,0.8497
5018.00,0.8524
5017.00,0.8551
5016.00,0.8579
5015.00,0.8609
5014.00,0.8639
5013.00,0.8670
5012.00,0.8701
5011.00,0.8732
5010.00,0.8764
5009.00,0.8795
5008.00,0.8828
5007.00,0.8862
5006.00,0.8896
5005.00,0.8932
5004.00,0.8969
5003.00,0.9005
5002.00,0.9043
5001.00,0.9081
5000.00,0.9119
4999.00,0.9158
4998.00,0.9197
4997.00,0.9236
4996.00,0.9276
4995.00,0.9317
4994.00,0.9358
4993.00,0.9401
4992.00,0.9443
4991.00,0.9485
4990.00,0.9527
4989.00,0.9569
4988.00,0.9611
4987.00,0.9656
4986.00,0.9701
4985.00,0.9747
4984.00,0.9792
4983.00,0.9838
4982.00,0.9884
4981.00,0.9930
4980.00,0.9977
4979.00,1.0025
4978.00,1.0072
4977.00,1.0120
4976.00,1.0168
4975.00,1.0215
4974.00,1.0263
4973.00,1.0312
4972.00,1.0360
4971.00,1.0408
4970.00,1.0457
4969.00,1.0505
4968.00,1.0554
4967.00,1.0603
4966.00,1.0653
4965.00,1.0703
4964.00,1.0753
4963.00,1.0803
4962.00,1.0853
4961.00,1.0903
4960.00,1.0953
4959.00,1.1004
4958.00,1.1055
4957.00,1.1107
4956.00,1.1159
4955.00,1.1211
4954.00,1.1263
4953.00,1.1314
4952.00,1.1365
4951.00,1.1413
4950.00,1.1462
4949.00,1.1511
4948.00,1.1561
4947.00,1.1612
4946.00,1.1666
4945.00,1.1719
4944.00,1.1772
4943.00,1.1824
4942.00,1.1875
4941.00,1.1926
4940.00,1.1976
4939.00,1.2025
4938.00,1.2074
4937.00,1.2123
4936.00,1.2171
4935.00,1.2218
4934.00,1.2266
4933.00,1.2316
4932.00,1.2366
4931.00,1.2416
4930.00,1.2465
4929.00,1.2515
4928.00,1.2563
4927.00,1.2611
4926.00,1.2658
4925.00,1.2706
4924.00,1.2754
4923.00,1.2800
4922.00,1.2846
4921.00,1.2890
4920.00,1.2934
4919.00,1.2977
4918.00,1.3018
4917.00,1.3060
4916.00,1.3101
4915.00,1.3143
4914.00,1.3184
4913.00,1.3226
4912.00,1.3268
4911.00,1.3309
4910.00,1.3349
4909.00,1.3389
4908.00,1.3427
4907.00,1.3463
4906.00,1.3499
4905.00,1.3535
4904.00,1.3572
4903.00,1.3609
4902.00,1.3646
4901.00,1.3682
4900.00,1.3716
4899.00,1.3750
4898.00,1.3783
4897.00,1.3816
4896.00,1.3848
4895.00,1.3877
4894.00,1.3906
4893.00,1.3933
4892.00,1.3960
4891.00,1.3987
4890.00,1.4014
4889.00,1.4041
4888.00,1.4069
4887.00,1.4096
4886.00,1.4122
4885.00,1.4148
4884.00,1.4173
4883.00,1.4196
4882.00,1.4217
4881.00,1.4236
4880.00,1.4254
4879.00,1.4273
4878.00,1.4292
4877.00,1.4313
4876.00,1.4333
4875.00,1.4351
4874.00,1.4366
4873.00,1.4379
4872.00,1.4393
4871.00,1.4408
4870.00,1.4422
4869.00,1.4435
4868.00,1.4447
4867.00,1.4458
4866.00,1.4468
4865.00,1.4478
4864.00,1.4489
4863.00,1.4499
4862.00,1.4508
4861.00,1.4516
4860.00,1.4523
4859.00,1.4530
4858.00,1.4538
4857.00,1.4546
4856.00,1.4552
4855.00,1.4555
4854.00,1.4557
4853.00,1.4558
4852.00,1.4558
4851.00,1.4559
4850.00,1.4561
4849.00,1.4564
4848.00,1.4566
4847.00,1.4567
4846.00,1.4567
4845.00,1.4565
4844.00,1.4561
4843.00,1.4556
4842.00,1.4551
4841.00,1.4548
4840.00,1.4545
4839.00,1.4540
4838.00,1.4535
4837.00,1.4527
4836.00,1.4518
4835.00,1.4508
4834.00,1.4499
4833.00,1.4491
4832.00,1.4482
4831.00,1.4472
4830.00,1.4461
4829.00,1.4449
4828.00,1.4435
4827.00,1.4420
4826.00,1.4405
4825.00,1.4391
4824.00,1.4376
4823.00,1.4361
4822.00,1.4345
4821.00,1.4328
4820.00,1.4308
4819.00,1.4288
4818.00,1.4267
4817.00,1.4247
4816.00,1.4227
4815.00,1.4207
4814.00,1.4186
4813.00,1.4165
4812.00,1.4143
4811.00,1.4120
4810.00,1.4096
4809.00,1.4070
4808.00,1.4043
4807.00,1.4015
4806.00,1.3987
4805.00,1.3958
4804.00,1.3927
4803.00,1.3896
4802.00,1.3863
4801.00,1.3832
4800.00,1.3800
4799.00,1.3768
4798.00,1.3734
4797.00,1.3699
4796.00,1.3662
4795.00,1.3626
4794.00,1.3589
4793.00,1.3553
4792.00,1.3517
4791.00,1.3480
4790.00,1.3443
4789.00,1.3403
4788.00,1.3362
4787.00,1.3318
4786.00,1.3274
4785.00,1.3231
4784.00,1.3189
4783.00,1.3147
4782.00,1.3105
4781.00,1.3061
4780.00,1.3016
4779.00,1.2969
4778.00,1.2921
4777.00,1.2873
4776.00,1.2826
4775.00,1.2779
4774.00,1.2732
4773.00,1.2684
4772.00,1.2635
4771.00,1.2585
4770.00,1.2533
4769.00,1.2481
4768.00,1.2428
4767.00,1.2375
4766.00,1.2323
4765.00,1.2271
4764.00,1.2219
4763.00,1.2166
4762.00,1.2111
4761.00,1.2056
4760.00,1.2001
4759.00,1.1946
4758.00,1.1892
4757.00,1.1838
4756.00,1.1783
4755.00,1.1727
4754.00,1.1669
4753.00,1.1612
4752.00,1.1556
4751.00,1.1501
4750.00,1.1445
4749.00,1.1389
4748.00,1.1334
4747.00,1.1279
4746.00,1.1224
4745.00,1.1170
4744.00,1.1114
4743.00,1.1059
4742.00,1.1003
4741.00,1.0947
4740.00,1.0892
4739.00,1.0837
4738.00,1.0782
4737.00,1.0728
4736.00,1.0674
4735.00,1.0620
4734.00,1.0567
4733.00,1.0514
4732.00,1.0461
4731.00,1.0408
4730.00,1.0355
4729.00,1.0302
4728.00,1.0250
4727.00,1.0198
4726.00,1.0147
4725.00,1.0097
4724.00,1.0048
4723.00,0.9998
4722.00,0.9948
4721.00,0.9897
4720.00,0.9847
4719.00,0.9798
4718.00,0.9750
4717.00,0.9702
4716.00,0.9656
4715.00,0.9609
4714.00,0.9564
4713.00,0.9519
4712.00,0.9474
4711.00,0.9429
4710.00,0.9384
4709.00,0.9340
4708.00,0.9295
4707.00,0.9252
4706.00,0.9209
4705.00,0.9167
4704.00,0.9126
4703.00,0.9085
4702.00,0.9045
4701.00,0.9005
4700.00,0.8966
4699.00,0.8928
4698.00,0.8892
4697.00,0.8857
4696.00,0.8824
4695.00,0.8792
4694.00,0.8761
4693.00,0.8732
4692.00,0.8703
4691.00,0.8675
4690.00,0.8647
4689.00,0.8620
4688.00,0.8594
4687.00,0.8569
4686.00,0.8545
4685.00,0.8522
4684.00,0.8499
4683.00,0.8476
4682.00,0.8454
4681.00,0.8432
4680.00,0.8411
4679.00,0.8391
4678.00,0.8372
4677.00,0.8353
4676.00,0.8335
4675.00,0.8318
4674.00,0.8302
4673.00,0.8287
4672.00,0.8273
4671.00,0.8258
4670.00,0.8245
4669.00,0.8232
4668.00,0.8220
4667.00,0.8209
4666.00,0.8199
4665.00,0.8190
4664.00,0.8182
4663.00,0.8175
4662.00,0.8168
4661.00,0.8162
4660.00,0.8157
4659.00,0.8154
4658.00,0.8153
4657.00,0.8153
4656.00,0.8154
4655.00,0.8157
4654.00,0.8161
4653.00,0.8165
4652.00,0.8172
4651.00,0.8179
4650.00,0.8187
4649.00,0.8197
4648.00,0.8208
4647.00,0.8220
4646.00,0.8235
4645.00,0.8252
4644.00,0.8270
4643.00,0.8288
4642.00,0.8308
4641.00,0.8328
4640.00,0.8349
4639.00,0.8372
4638.00,0.8396
4637.00,0.8421
4636.00,0.8447
4635.00,0.8474
4634.00,0.8502
4633.00,0.8532
4632.00,0.8563
4631.00,0.8595
4630.00,0.8628
4629.00,0.8662
4628.00,0.8696
4627.00,0.8732
4626.00,0.8768
4625.00,0.8805
4624.00,0.8842
4623.00,0.8880
4622.00,0.8919
4621.00,0.8959
4620.00,0.9000
4619.00,0.9041
4618.00,0.9082
4617.00,0.9125
4616.00,0.9168
4615.00,0.9212
4614.00,0.9257
4613.00,0.9303
4612.00,0.9349
4611.00,0.9395
4610.00,0.9443
4609.00,0.9490
4608.00,0.9537
4607.00,0.9585
4606.00,0.9634
4605.00,0.9683
4604.00,0.9733
4603.00,0.9783
4602.00,0.9834
4601.00,0.9885
4600.00,0.9936
4599.00,0.9987
4598.00,1.0039
4597.00,1.0092
4596.00,1.0145
4595.00,1.0199
4594.00,1.0252
4593.00,1.0306
4592.00,1.0361
4591.00,1.0418
4590.00,1.0475
4589.00,1.0532
4588.00,1.0588
4587.00,1.0644
4586.00,1.0700
4585.00,1.0756
4584.00,1.0813
4583.00,1.0870
4582.00,1.0927
4581.00,1.0985
4580.00,1.1044
4579.00,1.1104
4578.00,1.1164
4577.00,1.1224
4576.00,1.1283
4575.00,1.1341
4574.00,1.1400
4573.00,1.1459
4572.00,1.1518
4571.00,1.1578
4570.00,1.1638
4569.00,1.1698
4568.00,1.1759
4567.00,1.1821
4566.00,1.1883
4565.00,1.1944
4564.00,1.2004
4563.00,1.2064
4562.00,1.2124
4561.00,1.2184
4560.00,1.2245
4559.00,1.2305
4558.00,1.2365
4557.00,1.2425
4556.00,1.2484
4555.00,1.2542
4554.00,1.2602
4553.00,1.2662
4552.00,1.2723
4551.00,1.2785
4550.00,1.2846
4549.00,1.2906
4548.00,1.2965
4547.00,1.3021
4546.00,1.3078
4545.00,1.3135
4544.00,1.3191
4543.00,1.3248
4542.00,1.3303
4541.00,1.3357
4540.00,1.3410
4539.00,1.3465
4538.00,1.3520
4537.00,1.3575
4536.00,1.3629
4535.00,1.3681
4534.00,1.3733
4533.00,1.3784
4532.00,1.3835
4531.00,1.3885
4530.00,1.3935
4529.00,1.3984
4528.00,1.4032
4527.00,1.4079
4526.00,1.4125
4525.00,1.4172
4524.00,1.4217
4523.00,1.4262
4522.00,1.4304
4521.00,1.4345
4520.00,1.4386
4519.00,1.4427
4518.00,1.4468
4517.00,1.4509
4516.00,1.4550
4515.00,1.4588
4514.00,1.4626
4513.00,1.4662
4512.00,1.4699
4511.00,1.4735
4510.00,1.4772
4509.00,1.4807
4508.00,1.4841
4507.00,1.4873
4506.00,1.4904
4505.00,1.4934
4504.00,1.4963
4503.00,1.4994
4502.00,1.5025
4501.00,1.5056
4500.00,1.5086
4499.00,1.5117
4498.00,1.5147
4497.00,1.5176
4496.00,1.5202
4495.00,1.5224
4494.00,1.5243
4493.00,1.5261
4492.00,1.5281
4491.00,1.5303
4490.00,1.5325
4489.00,1.5346
4488.00,1.5366
4487.00,1.5384
4486.00,1.5402
4485.00,1.5420
4484.00,1.5438
4483.00,1.5456
4482.00,1.5473
4481.00,1.5489
4480.00,1.5504
4479.00,1.5518
4478.00,1.5530
4477.00,1.5540
4476.00,1.5548
4475.00,1.5556
4474.00,1.5564
4473.00,1.5574
4472.00,1.5585
4471.00,1.5596
4470.00,1.5606
4469.00,1.5615
4468.00,1.5623
4467.00,1.5631
4466.00,1.5637
4465.00,1.5641
4464.00,1.5642
4463.00,1.5642
4462.00,1.5643
4461.00,1.5644
4460.00,1.5645
4459.00,1.5645
4458.00,1.5644
4457.00,1.5644
4456.00,1.5642
4455.00,1.5639
4454.00,1.5636
4453.00,1.5634
4452.00,1.5631
4451.00,1.5629
4450.00,1.5624
4449.00,1.5617
4448.00,1.5608
4447.00,1.5598
4446.00,1.5589
4445.00,1.5580
4444.00,1.5570
4443.00,1.5560
4442.00,1.5549
4441.00,1.5538
4440.00,1.5527
4439.00,1.5515
4438.00,1.5503
4437.00,1.5489
4436.00,1.5475
4435.00,1.5459
4434.00,1.5441
4433.00,1.5424
4432.00,1.5406
4431.00,1.5388
4430.00,1.5370
4429.00,1.5351
4428.00,1.5332
4427.00,1.5312
4426.00,1.5291
4425.00,1.5267
4424.00,1.5242
4423.00,1.5216
4422.00,1.5191
4421.00,1.5166
4420.00,1.5141
4419.00,1.5114
4418.00,1.5086
4417.00,1.5057
4416.00,1.5028
4415.00,1.5000
4414.00,1.4971
4413.00,1.4942
4412.00,1.4910
4411.00,1.4876
4410.00,1.4842
4409.00,1.4807
4408.00,1.4773
4407.00,1.4738
4406.00,1.4703
4405.00,1.4667
4404.00,1.4630
4403.00,1.4592
4402.00,1.4551
4401.00,1.4508
4400.00,1.4465
4399.00,1.4422
4398.00,1.4382
4397.00,1.4342
4396.00,1.4302
4395.00,1.4259
4394.00,1.4216
4393.00,1.4171
4392.00,1.4124
4391.00,1.4077
4390.00,1.4029
4389.00,1.3980
4388.00,1.3930
4387.00,1.3881
4386.00,1.3831
4385.00,1.3782
4384.00,1.3733
4383.00,1.3683
4382.00,1.3633
4381.00,1.3582
4380.00,1.3530
4379.00,1.3479
4378.00,1.3427
4377.00,1.3375
4376.00,1.3322
4375.00,1.3268
4374.00,1.3212
4373.00,1.3156
4372.00,1.3100
4371.00,1.3046
4370.00,1.2992
4369.00,1.2938
4368.00,1.2883
4367.00,1.2826
4366.00,1.2768
4365.00,1.2710
4364.00,1.2651
4363.00,1.2591
4362.00,1.2530
4361.00,1.2468
4360.00,1.2406
4359.00,1.2344
4358.00,1.2282
4357.00,1.2220
4356.00,1.2158
4355.00,1.2095
4354.00,1.2032
4353.00,1.1967
4352.00,1.1903
4351.00,1.1839
4350.00,1.1776
4349.00,1.1713
4348.00,1.1650
4347.00,1.1586
4346.00,1.1522
4345.00,1.1459
4344.00,1.1396
4343.00,1.1333
4342.00,1.1270
4341.00,1.1206
4340.00,1.1143
4339.00,1.1079
4338.00,1.1015
4337.00,1.0951
4336.00,1.0887
4335.00,1.0824
4334.00,1.0762
4333.00,1.0700
4332.00,1.0639
4331.00,1.0577
4330.00,1.0517
4329.00,1.0458
4328.00,1.0400
4327.00,1.0342
4326.00,1.0284
4325.00,1.0227
4324.00,1.0171
4323.00,1.0116
4322.00,1.0062
4321.00,1.0009
4320.00,0.9958
4319.00,0.9908
4318.00,0.9858
4317.00,0.9809
4316.00,0.9762
4315.00,0.9715
4314.00,0.9668
4313.00,0.9623
4312.00,0.9577
4311.00,0.9532
4310.00,0.9487
4309.00,0.9444
4308.00,0.9401
4307.00,0.9359
4306.00,0.9317
4305.00,0.9276
4304.00,0.9236
4303.00,0.9196
4302.00,0.9158
4301.00,0.9122
4300.00,0.9087
4299.00,0.9053
4298.00,0.9020
4297.00,0.8988
4296.00,0.8957
4295.00,0.8928
4294.00,0.8900
4293.00,0.8873
4292.00,0.8848
4291.00,0.8824
4290.00,0.8802
4289.00,0.8781
4288.00,0.8762
4287.00,0.8744
4286.00,0.8727
4285.00,0.8712
4284.00,0.8697
4283.00,0.8683
4282.00,0.8669
4281.00,0.8657
4280.00,0.8645
4279.00,0.8634
4278.00,0.8623
4277.00,0.8613
4276.00,0.8603
4275.00,0.8596
4274.00,0.8590
4273.00,0.8586
4272.00,0.8583
4271.00,0.8581
4270.00,0.8581
4269.00,0.8582
4268.00,0.8584
4267.00,0.8586
4266.00,0.8591
4265.00,0.8596
4264.00,0.8603
4263.00,0.8612
4262.00,0.8622
4261.00,0.8633
4260.00,0.8645
4259.00,0.8659
4258.00,0.8674
4257.00,0.8691
4256.00,0.8709
4255.00,0.8730
4254.00,0.8753
4253.00,0.8777
4252.00,0.8802
4251.00,0.8828
4250.00,0.8856
4249.00,0.8885
4248.00,0.8915
4247.00,0.8947
4246.00,0.8982
4245.00,0.9018
4244.00,0.9055
4243.00,0.9093
4242.00,0.9132
4241.00,0.9171
4240.00,0.9212
4239.00,0.9254
4238.00,0.9298
4237.00,0.9343
4236.00,0.9389
4235.00,0.9437
4234.00,0.9486
4233.00,0.9536
4232.00,0.9586
4231.00,0.9637
4230.00,0.9689
4229.00,0.9742
4228.00,0.9796
4227.00,0.9850
4226.00,0.9906
4225.00,0.9962
4224.00,1.0018
4223.00,1.0075
4222.00,1.0132
4221.00,1.0190
4220.00,1.0247
4219.00,1.0305
4218.00,1.0362
4217.00,1.0420
4216.00,1.0479
4215.00,1.0538
4214.00,1.0597
4213.00,1.0657
4212.00,1.0717
4211.00,1.0777
4210.00,1.0837
4209.00,1.0899
4208.00,1.0961
4207.00,1.1024
4206.00,1.1087
4205.00,1.1150
4204.00,1.1214
4203.00,1.1277
4202.00,1.1342
4201.00,1.1408
4200.00,1.1474
4199.00,1.1541
4198.00,1.1608
4197.00,1.1675
4196.00,1.1743
4195.00,1.1811
4194.00,1.1880
4193.00,1.1951
4192.00,1.2021
4191.00,1.2091
4190.00,1.2161
4189.00,1.2230
4188.00,1.2300
4187.00,1.2369
4186.00,1.2439
4185.00,1.2509
4184.00,1.2580
4183.00,1.2651
4182.00,1.2722
4181.00,1.2793
4180.00,1.2863
4179.00,1.2933
4178.00,1.3002
4177.00,1.3071
4176.00,1.3141
4175.00,1.3212
4174.00,1.3282
4173.00,1.3353
4172.00,1.3423
4171.00,1.3492
4170.00,1.3561
4169.00,1.3630
4168.00,1.3699
4167.00,1.3767
4166.00,1.3835
4165.00,1.3901
4164.00,1.3966
4163.00,1.4032
4162.00,1.4098
4161.00,1.4165
4160.00,1.4231
4159.00,1.4295
4158.00,1.4358
4157.00,1.4420
4156.00,1.4482
4155.00,1.4543
4154.00,1.4603
4153.00,1.4662
4152.00,1.4721
4151.00,1.4779
4150.00,1.4836
4149.00,1.4891
4148.00,1.4945
4147.00,1.4999
4146.00,1.5055
4145.00,1.5112
4144.00,1.5168
4143.00,1.5223
4142.00,1.5274
4141.00,1.5323
4140.00,1.5372
4139.00,1.5420
4138.00,1.5469
4137.00,1.5518
4136.00,1.5566
4135.00,1.5612
4134.00,1.5656
4133.00,1.5701
4132.00,1.5745
4131.00,1.5789
4130.00,1.5833
4129.00,1.5875
4128.00,1.5915
4127.00,1.5954
4126.00,1.5992
4125.00,1.6029
4124.00,1.6065
4123.00,1.6099
4122.00,1.6134
4121.00,1.6170
4120.00,1.6206
4119.00,1.6241
4118.00,1.6274
4117.00,1.6307
4116.00,1.6339
4115.00,1.6371
4114.00,1.6402
4113.00,1.6431
4112.00,1.6458
4111.00,1.6483
4110.00,1.6507
4109.00,1.6531
4108.00,1.6557
4107.00,1.6584
4106.00,1.6611
4105.00,1.6636
4104.00,1.6659
4103.00,1.6682
4102.00,1.6703
4101.00,1.6723
4100.00,1.6741
4099.00,1.6758
4098.00,1.6775
4097.00,1.6792
4096.00,1.6809
4095.00,1.6824
4094.00,1.6838
4093.00,1.6852
4092.00,1.6865
4091.00,1.6880
4090.00,1.6895
4089.00,1.6909
4088.00,1.6922
4087.00,1.6934
4086.00,1.6945
4085.00,1.6956
4084.00,1.6965
4083.00,1.6974
4082.00,1.6983
4081.00,1.6992
4080.00,1.7000
4079.00,1.7004
4078.00,1.7007
4077.00,1.7010
4076.00,1.7012
4075.00,1.7016
4074.00,1.7019
4073.00,1.7022
4072.00,1.7025
4071.00,1.7028
4070.00,1.7031
4069.00,1.7033
4068.00,1.7033
4067.00,1.7030
4066.00,1.7026
4065.00,1.7021
4064.00,1.7016
4063.00,1.7011
4062.00,1.7006
4061.00,1.7001
4060.00,1.6994
4059.00,1.6987
4058.00,1.6980
4057.00,1.6971
4056.00,1.6960
4055.00,1.6948
4054.00,1.6935
4053.00,1.6923
4052.00,1.6911
4051.00,1.6901
4050.00,1.6890
4049.00,1.6879
4048.00,1.6868
4047.00,1.6855
4046.00,1.6840
4045.00,1.6824
4044.00,1.6807
4043.00,1.6790
4042.00,1.6772
4041.00,1.6754
4040.00,1.6734
4039.00,1.6713
4038.00,1.6690
4037.00,1.6666
4036.00,1.6642
4035.00,1.6617
4034.00,1.6592
4033.00,1.6567
4032.00,1.6542
4031.00,1.6516
4030.00,1.6489
4029.00,1.6461
4028.00,1.6432
4027.00,1.6401
4026.00,1.6370
4025.00,1.6338
4024.00,1.6307
4023.00,1.6275
4022.00,1.6241
4021.00,1.6206
4020.00,1.6170
4019.00,1.6134
4018.00,1.6099
4017.00,1.6063
4016.00,1.6027
4015.00,1.5989
4014.00,1.5949
4013.00,1.5909
4012.00,1.5868
4011.00,1.5826
4010.00,1.5783
4009.00,1.5737
4008.00,1.5688
4007.00,1.5638
4006.00,1.5589
4005.00,1.5541
4004.00,1.5494
4003.00,1.5447
4002.00,1.5396
4001.00,1.5344
4000.00,1.5289
3999.00,1.5234
3998.00,1.5177
3997.00,1.5120
3996.00,1.5061
3995.00,1.5002
3994.00,1.4942
3993.00,1.4881
3992.00,1.4818
3991.00,1.4755
3990.00,1.4692
3989.00,1.4630
3988.00,1.4566
3987.00,1.4502
3986.00,1.4436
3985.00,1.4369
3984.00,1.4301
3983.00,1.4233
3982.00,1.4164
3981.00,1.4094
3980.00,1.4024
3979.00,1.3953
3978.00,1.3881
3977.00,1.3810
3976.00,1.3739
3975.00,1.3668
3974.00,1.3596
3973.00,1.3523
3972.00,1.3449
3971.00,1.3373
3970.00,1.3296
3969.00,1.3218
3968.00,1.3141
3967.00,1.3065
3966.00,1.2989
3965.00,1.2915
3964.00,1.2840
3963.00,1.2766
3962.00,1.2690
3961.00,1.2613
3960.00,1.2537
3959.00,1.2463
3958.00,1.2389
3957.00,1.2316
3956.00,1.2243
3955.00,1.2170
3954.00,1.2097
3953.00,1.2024
3952.00,1.1952
3951.00,1.1880
3950.00,1.1807
3949.00,1.1733
3948.00,1.1660
3947.00,1.1588
3946.00,1.1517
3945.00,1.1447
3944.00,1.1375
3943.00,1.1303
3942.00,1.1230
3941.00,1.1158
3940.00,1.1087
3939.00,1.1018
3938.00,1.0950
3937.00,1.0883
3936.00,1.0815
3935.00,1.0748
3934.00,1.0680
3933.00,1.0612
3932.00,1.0546
3931.00,1.0479
3930.00,1.0414
3929.00,1.0349
3928.00,1.0286
3927.00,1.0222
3926.00,1.0159
3925.00,1.0096
3924.00,1.0034
3923.00,0.9972
3922.00,0.9912
3921.00,0.9854
3920.00,0.9798
3919.00,0.9744
3918.00,0.9689
3917.00,0.9634
3916.00,0.9579
3915.00,0.9526
3914.00,0.9474
3913.00,0.9424
3912.00,0.9376
3911.00,0.9329
3910.00,0.9284
3909.00,0.9241
3908.00,0.9202
3907.00,0.9166
3906.00,0.9133
3905.00,0.9100
3904.00,0.9065
3903.00,0.9028
3902.00,0.8991
3901.00,0.8956
3900.00,0.8923
3899.00,0.8891
3898.00,0.8860
3897.00,0.8831
3896.00,0.8808
3895.00,0.8791
3894.00,0.8780
3893.00,0.8770
3892.00,0.8758
3891.00,0.8742
3890.00,0.8725
3889.00,0.8715
3888.00,0.8716
3887.00,0.8724
3886.00,0.8731
3885.00,0.8732
3884.00,0.8728
3883.00,0.8728
3882.00,0.8735
3881.00,0.8746
3880.00,0.8755
3879.00,0.8761
3878.00,0.8768
3877.00,0.8784
3876.00,0.8810
3875.00,0.8840
3874.00,0.8868
3873.00,0.8895
3872.00,0.8924
3871.00,0.8956
3870.00,0.8988
3869.00,0.9016
3868.00,0.9042
3867.00,0.9071
3866.00,0.9109
3865.00,0.9154
3864.00,0.9198
3863.00,0.9236
3862.00,0.9271
3861.00,0.9307
3860.00,0.9349
3859.00,0.9396
3858.00,0.9449
3857.00,0.9509
3856.00,0.9579
3855.00,0.9656
3854.00,0.9732
3853.00,0.9796
3852.00,0.9844
3851.00,0.9880
3850.00,0.9915
3849.00,0.9955
3848.00,1.0000
3847.00,1.0048
3846.00,1.0101
3845.00,1.0160
3844.00,1.0224
3843.00,1.0292
3842.00,1.0358
3841.00,1.0425
3840.00,1.0493
3839.00,1.0565
3838.00,1.0641
3837.00,1.0717
3836.00,1.0789
3835.00,1.0858
3834.00,1.0926
3833.00,1.0998
3832.00,1.1071
3831.00,1.1145
3830.00,1.1218
3829.00,1.1290
3828.00,1.1362
3827.00,1.1436
3826.00,1.1512
3825.00,1.1586
3824.00,1.1658
3823.00,1.1732
3822.00,1.1814
3821.00,1.1909
3820.00,1.2010
3819.00,1.2103
3818.00,1.2184
3817.00,1.2262
3816.00,1.2348
3815.00,1.2441
3814.00,1.2534
3813.00,1.2621
3812.00,1.2703
3811.00,1.2779
3810.00,1.2849
3809.00,1.2916
3808.00,1.2990
3807.00,1.3077
3806.00,1.3177
3805.00,1.3278
3804.00,1.3371
3803.00,1.3455
3802.00,1.3539
3801.00,1.3633
3800.00,1.3732
3799.00,1.3830
3798.00,1.3923
3797.00,1.4013
3796.00,1.4098
3795.00,1.4179
3794.00,1.4258
3793.00,1.4339
3792.00,1.4422
3791.00,1.4506
3790.00,1.4588
3789.00,1.4669
3788.00,1.4749
3787.00,1.4829
3786.00,1.4910
3785.00,1.4993
3784.00,1.5076
3783.00,1.5155
3782.00,1.5232
3781.00,1.5307
3780.00,1.5384
3779.00,1.5463
3778.00,1.5545
3777.00,1.5626
3776.00,1.5706
3775.00,1.5782
3774.00,1.5854
3773.00,1.5922
3772.00,1.5985
3771.00,1.6048
3770.00,1.6115
3769.00,1.6187
3768.00,1.6260
3767.00,1.6331
3766.00,1.6400
3765.00,1.6466
3764.00,1.6530
3763.00,1.6588
3762.00,1.6645
3761.00,1.6700
3760.00,1.6758
3759.00,1.6816
3758.00,1.6874
3757.00,1.6930
3756.00,1.6982
3755.00,1.7030
3754.00,1.7076
3753.00,1.7124
3752.00,1.7175
3751.00,1.7231
3750.00,1.7293
3749.00,1.7357
3748.00,1.7418
3747.00,1.7473
3746.00,1.7521
3745.00,1.7564
3744.00,1.7608
3743.00,1.7655
3742.00,1.7705
3741.00,1.7751
3740.00,1.7787
3739.00,1.7809
3738.00,1.7823
3737.00,1.7839
3736.00,1.7862
3735.00,1.7892
3734.00,1.7927
3733.00,1.7964
3732.00,1.8002
3731.00,1.8040
3730.00,1.8077
3729.00,1.8108
3728.00,1.8133
3727.00,1.8154
3726.00,1.8176
3725.00,1.8200
3724.00,1.8229
3723.00,1.8260
3722.00,1.8294
3721.00,1.8327
3720.00,1.8357
3719.00,1.8385
3718.00,1.8414
3717.00,1.8444
3716.00,1.8474
3715.00,1.8501
3714.00,1.8527
3713.00,1.8549
3712.00,1.8569
3711.00,1.8585
3710.00,1.8599
3709.00,1.8612
3708.00,1.8624
3707.00,1.8638
3706.00,1.8655
3705.00,1.8671
3704.00,1.8683
3703.00,1.8693
3702.00,1.8703
3701.00,1.8715
3700.00,1.8727
3699.00,1.8738
3698.00,1.8749
3697.00,1.8760
3696.00,1.8772
3695.00,1.8783
3694.00,1.8793
3693.00,1.8802
3692.00,1.8812
3691.00,1.8824
3690.00,1.8838
3689.00,1.8850
3688.00,1.8858
3687.00,1.8863
3686.00,1.8868
3685.00,1.8873
3684.00,1.8876
3683.00,1.8873
3682.00,1.8865
3681.00,1.8858
3680.00,1.8853
3679.00,1.8850
3678.00,1.8849
3677.00,1.8850
3676.00,1.8853
3675.00,1.8856
3674.00,1.8859
3673.00,1.8861
3672.00,1.8860
3671.00,1.8856
3670.00,1.8846
3669.00,1.8830
3668.00,1.8815
3667.00,1.8802
3666.00,1.8791
3665.00,1.8779
3664.00,1.8762
3663.00,1.8741
3662.00,1.8720
3661.00,1.8702
3660.00,1.8685
3659.00,1.8671
3658.00,1.8657
3657.00,1.8642
3656.00,1.8625
3655.00,1.8606
3654.00,1.8586
3653.00,1.8565
3652.00,1.8542
3651.00,1.8517
3650.00,1.8491
3649.00,1.8467
3648.00,1.8441
3647.00,1.8415
3646.00,1.8390
3645.00,1.8368
3644.00,1.8345
3643.00,1.8316
3642.00,1.8278
3641.00,1.8236
3640.00,1.8194
3639.00,1.8156
3638.00,1.8120
3637.00,1.8086
3636.00,1.8052
3635.00,1.8019
3634.00,1.7985
3633.00,1.7950
3632.00,1.7913
3631.00,1.7872
3630.00,1.7830
3629.00,1.7788
3628.00,1.7749
3627.00,1.7716
3626.00,1.7685
3625.00,1.7652
3624.00,1.7613
3623.00,1.7565
3622.00,1.7511
3621.00,1.7458
3620.00,1.7406
3619.00,1.7357
3618.00,1.7309
3617.00,1.7262
3616.00,1.7214
3615.00,1.7164
3614.00,1.7115
3613.00,1.7064
3612.00,1.7012
3611.00,1.6958
3610.00,1.6902
3609.00,1.6844
3608.00,1.6784
3607.00,1.6724
3606.00,1.6663
3605.00,1.6601
3604.00,1.6534
3603.00,1.6465
3602.00,1.6393
3601.00,1.6321
3600.00,1.6248
3599.00,1.6175
3598.00,1.6103
3597.00,1.6033
3596.00,1.5963
3595.00,1.5893
3594.00,1.5821
3593.00,1.5748
3592.00,1.5674
3591.00,1.5599
3590.00,1.5523
3589.00,1.5446
3588.00,1.5366
3587.00,1.5286
3586.00,1.5206
3585.00,1.5127
3584.00,1.5047
3583.00,1.4965
3582.00,1.4882
3581.00,1.4796
3580.00,1.4708
3579.00,1.4619
3578.00,1.4530
3577.00,1.4442
3576.00,1.4355
3575.00,1.4268
3574.00,1.4181
3573.00,1.4094
3572.00,1.4007
3571.00,1.3920
3570.00,1.3832
3569.00,1.3742
3568.00,1.3650
3567.00,1.3559
3566.00,1.3469
3565.00,1.3381
3564.00,1.3294
3563.00,1.3208
3562.00,1.3122
3561.00,1.3036
3560.00,1.2950
3559.00,1.2865
3558.00,1.2783
3557.00,1.2702
3556.00,1.2622
3555.00,1.2542
3554.00,1.2463
3553.00,1.2385
3552.00,1.2306
3551.00,1.2228
3550.00,1.2152
3549.00,1.2078
3548.00,1.2005
3547.00,1.1932
3546.00,1.1861
3545.00,1.1790
3544.00,1.1719
3543.00,1.1650
3542.00,1.1583
3541.00,1.1519
3540.00,1.1457
3539.00,1.1397
3538.00,1.1338
3537.00,1.1278
3536.00,1.1218
3535.00,1.1159
3534.00,1.1103
3533.00,1.1049
3532.00,1.0999
3531.00,1.0949
3530.00,1.0901
3529.00,1.0852
3528.00,1.0803
3527.00,1.0756
3526.00,1.0710
3525.00,1.0666
3524.00,1.0625
3523.00,1.0585
3522.00,1.0547
3521.00,1.0511
3520.00,1.0477
3519.00,1.0447
3518.00,1.0418
3517.00,1.0391
3516.00,1.0365
3515.00,1.0340
3514.00,1.0317
3513.00,1.0296
3512.00,1.0277
3511.00,1.0260
3510.00,1.0244
3509.00,1.0229
3508.00,1.0215
3507.00,1.0203
3506.00,1.0195
3505.00,1.0190
3504.00,1.0188
3503.00,1.0186
3502.00,1.0184
3501.00,1.0184
3500.00,1.0188
3499.00,1.0197
3498.00,1.0209
3497.00,1.0224
3496.00,1.0241
3495.00,1.0259
3494.00,1.0279
3493.00,1.0302
3492.00,1.0327
3491.00,1.0354
3490.00,1.0384
3489.00,1.0417
3488.00,1.0450
3487.00,1.0485
3486.00,1.0522
3485.00,1.0561
3484.00,1.0603
3483.00,1.0647
3482.00,1.0692
3481.00,1.0739
3480.00,1.0786
3479.00,1.0835
3478.00,1.0886
3477.00,1.0940
3476.00,1.0995
3475.00,1.1052
3474.00,1.1110
3473.00,1.1170
3472.00,1.1232
3471.00,1.1295
3470.00,1.1359
3469.00,1.1425
3468.00,1.1491
3467.00,1.1559
3466.00,1.1629
3465.00,1.1699
3464.00,1.1771
3463.00,1.1844
3462.00,1.1919
3461.00,1.1996
3460.00,1.2073
3459.00,1.2151
3458.00,1.2231
3457.00,1.2312
3456.00,1.2395
3455.00,1.2479
3454.00,1.2563
3453.00,1.2649
3452.00,1.2736
3451.00,1.2823
3450.00,1.2912
3449.00,1.3000
3448.00,1.3089
3447.00,1.3179
3446.00,1.3270
3445.00,1.3362
3444.00,1.3455
3443.00,1.3549
3442.00,1.3645
3441.00,1.3741
3440.00,1.3836
3439.00,1.3932
3438.00,1.4029
3437.00,1.4127
3436.00,1.4226
3435.00,1.4326
3434.00,1.4427
3433.00,1.4529
3432.00,1.4632
3431.00,1.4734
3430.00,1.4837
3429.00,1.4940
3428.00,1.5044
3427.00,1.5149
3426.00,1.5254
3425.00,1.5358
3424.00,1.5461
3423.00,1.5564
3422.00,1.5665
3421.00,1.5766
3420.00,1.5865
3419.00,1.5962
3418.00,1.6058
3417.00,1.6152
3416.00,1.6246
3415.00,1.6338
3414.00,1.6427
3413.00,1.6513
3412.00,1.6596
3411.00,1.6675
3410.00,1.6750
3409.00,1.6820
3408.00,1.6888
3407.00,1.6954
3406.00,1.7017
3405.00,1.7077
3404.00,1.7131
3403.00,1.7181
3402.00,1.7228
3401.00,1.7277
3400.00,1.7327
3399.00,1.7379
3398.00,1.7434
3397.00,1.7489
3396.00,1.7544
3395.00,1.7600
3394.00,1.7656
3393.00,1.7714
3392.00,1.7773
3391.00,1.7830
3390.00,1.7888
3389.00,1.7948
3388.00,1.8011
3387.00,1.8075
3386.00,1.8139
3385.00,1.8199
3384.00,1.8256
3383.00,1.8312
3382.00,1.8371
3381.00,1.8432
3380.00,1.8494
3379.00,1.8555
3378.00,1.8614
3377.00,1.8672
3376.00,1.8729
3375.00,1.8785
3374.00,1.8840
3373.00,1.8894
3372.00,1.8947
3371.00,1.8999
3370.00,1.9048
3369.00,1.9095
3368.00,1.9141
3367.00,1.9186
3366.00,1.9233
3365.00,1.9280
3364.00,1.9326
3363.00,1.9372
3362.00,1.9417
3361.00,1.9459
3360.00,1.9500
3359.00,1.9542
3358.00,1.9585
3357.00,1.9628
3356.00,1.9668
3355.00,1.9705
3354.00,1.9739
3353.00,1.9770
3352.00,1.9799
3351.00,1.9828
3350.00,1.9860
3349.00,1.9895
3348.00,1.9929
3347.00,1.9962
3346.00,1.9991
3345.00,2.0018
3344.00,2.0045
3343.00,2.0073
3342.00,2.0103
3341.00,2.0133
3340.00,2.0160
3339.00,2.0184
3338.00,2.0208
3337.00,2.0231
3336.00,2.0252
3335.00,2.0273
3334.00,2.0292
3333.00,2.0310
3332.00,2.0330
3331.00,2.0352
3330.00,2.0375
3329.00,2.0397
3328.00,2.0418
3327.00,2.0434
3326.00,2.0450
3325.00,2.0466
3324.00,2.0485
3323.00,2.0504
3322.00,2.0521
3321.00,2.0535
3320.00,2.0543
3319.00,2.0548
3318.00,2.0552
3317.00,2.0559
3316.00,2.0566
3315.00,2.0574
3314.00,2.0582
3313.00,2.0591
3312.00,2.0604
3311.00,2.0619
3310.00,2.0634
3309.00,2.0642
3308.00,2.0644
3307.00,2.0642
3306.00,2.0642
3305.00,2.0645
3304.00,2.0648
3303.00,2.0651
3302.00,2.0653
3301.00,2.0656
3300.00,2.0657
3299.00,2.0658
3298.00,2.0657
3297.00,2.0656
3296.00,2.0653
3295.00,2.0649
3294.00,2.0646
3293.00,2.0643
3292.00,2.0638
3291.00,2.0633
3290.00,2.0629
3289.00,2.0625
3288.00,2.0620
3287.00,2.0610
3286.00,2.0596
3285.00,2.0578
3284.00,2.0561
3283.00,2.0544
3282.00,2.0531
3281.00,2.0521
3280.00,2.0511
3279.00,2.0498
3278.00,2.0483
3277.00,2.0466
3276.00,2.0448
3275.00,2.0431
3274.00,2.0414
3273.00,2.0397
3272.00,2.0378
3271.00,2.0357
3270.00,2.0337
3269.00,2.0316
3268.00,2.0296
3267.00,2.0274
3266.00,2.0252
3265.00,2.0230
3264.00,2.0208
3263.00,2.0184
3262.00,2.0160
3261.00,2.0133
3260.00,2.0105
3259.00,2.0075
3258.00,2.0046
3257.00,2.0017
3256.00,1.9986
3255.00,1.9953
3254.00,1.9917
3253.00,1.9881
3252.00,1.9844
3251.00,1.9808
3250.00,1.9772
3249.00,1.9734
3248.00,1.9695
3247.00,1.9656
3246.00,1.9618
3245.00,1.9580
3244.00,1.9539
3243.00,1.9496
3242.00,1.9450
3241.00,1.9404
3240.00,1.9356
3239.00,1.9308
3238.00,1.9258
3237.00,1.9210
3236.00,1.9161
3235.00,1.9112
3234.00,1.9061
3233.00,1.9007
3232.00,1.8950
3231.00,1.8891
3230.00,1.8832
3229.00,1.8775
3228.00,1.8718
3227.00,1.8660
3226.00,1.8601
3225.00,1.8540
3224.00,1.8477
3223.00,1.8414
3222.00,1.8348
3221.00,1.8280
3220.00,1.8209
3219.00,1.8136
3218.00,1.8062
3217.00,1.7990
3216.00,1.7918
3215.00,1.7844
3214.00,1.7766
3213.00,1.7685
3212.00,1.7601
3211.00,1.7517
3210.00,1.7433
3209.00,1.7350
3208.00,1.7266
3207.00,1.7178
3206.00,1.7088
3205.00,1.6995
3204.00,1.6902
3203.00,1.6809
3202.00,1.6715
3201.00,1.6620
3200.00,1.6522
3199.00,1.6421
3198.00,1.6318
3197.00,1.6214
3196.00,1.6109
3195.00,1.6005
3194.00,1.5899
3193.00,1.5793
3192.00,1.5685
3191.00,1.5576
3190.00,1.5466
3189.00,1.5355
3188.00,1.5244
3187.00,1.5132
3186.00,1.5019
3185.00,1.4907
3184.00,1.4795
3183.00,1.4683
3182.00,1.4573
3181.00,1.4462
3180.00,1.4352
3179.00,1.4241
3178.00,1.4130
3177.00,1.4020
3176.00,1.3911
3175.00,1.3804
3174.00,1.3698
3173.00,1.3593
3172.00,1.3487
3171.00,1.3383
3170.00,1.3280
3169.00,1.3178
3168.00,1.3078
3167.00,1.2979
3166.00,1.2880
3165.00,1.2784
3164.00,1.2690
3163.00,1.2598
3162.00,1.2508
3161.00,1.2418
3160.00,1.2330
3159.00,1.2244
3158.00,1.2159
3157.00,1.2077
3156.00,1.1996
3155.00,1.1917
3154.00,1.1840
3153.00,1.1766
3152.00,1.1694
3151.00,1.1624
3150.00,1.1556
3149.00,1.1489
3148.00,1.1424
3147.00,1.1361
3146.00,1.1301
3145.00,1.1244
3144.00,1.1189
3143.00,1.1136
3142.00,1.1085
3141.00,1.1036
3140.00,1.0989
3139.00,1.0945
3138.00,1.0904
3137.00,1.0866
3136.00,1.0832
3135.00,1.0800
3134.00,1.0772
3133.00,1.0745
3132.00,1.0722
3131.00,1.0701
3130.00,1.0685
3129.00,1.0673
3128.00,1.0665
3127.00,1.0661
3126.00,1.0660
3125.00,1.0662
3124.00,1.0667
3123.00,1.0677
3122.00,1.0690
3121.00,1.0708
3120.00,1.0729
3119.00,1.0755
3118.00,1.0784
3117.00,1.0816
3116.00,1.0851
3115.00,1.0889
3114.00,1.0931
3113.00,1.0976
3112.00,1.1026
3111.00,1.1080
3110.00,1.1137
3109.00,1.1196
3108.00,1.1258
3107.00,1.1322
3106.00,1.1389
3105.00,1.1459
3104.00,1.1531
3103.00,1.1606
3102.00,1.1683
3101.00,1.1762
3100.00,1.1843
3099.00,1.1927
3098.00,1.2013
3097.00,1.2101
3096.00,1.2193
3095.00,1.2288
3094.00,1.2385
3093.00,1.2484
3092.00,1.2585
3091.00,1.2688
3090.00,1.2793
3089.00,1.2900
3088.00,1.3009
3087.00,1.3119
3086.00,1.3231
3085.00,1.3345
3084.00,1.3461
3083.00,1.3577
3082.00,1.3695
3081.00,1.3814
3080.00,1.3934
3079.00,1.4055
3078.00,1.4178
3077.00,1.4302
3076.00,1.4428
3075.00,1.4554
3074.00,1.4682
3073.00,1.4812
3072.00,1.4944
3071.00,1.5077
3070.00,1.5209
3069.00,1.5342
3068.00,1.5476
3067.00,1.5610
3066.00,1.5746
3065.00,1.5881
3064.00,1.6016
3063.00,1.6151
3062.00,1.6285
3061.00,1.6420
3060.00,1.6554
3059.00,1.6688
3058.00,1.6820
3057.00,1.6951
3056.00,1.7080
3055.00,1.7207
3054.00,1.7334
3053.00,1.7460
3052.00,1.7585
3051.00,1.7710
3050.00,1.7832
3049.00,1.7950
3048.00,1.8066
3047.00,1.8182
3046.00,1.8297
3045.00,1.8414
3044.00,1.8533
3043.00,1.8651
3042.00,1.8767
3041.00,1.8880
3040.00,1.8989
3039.00,1.9095
3038.00,1.9198
3037.00,1.9300
3036.00,1.9402
3035.00,1.9505
3034.00,1.9607
3033.00,1.9707
3032.00,1.9802
3031.00,1.9894
3030.00,1.9983
3029.00,2.0073
3028.00,2.0163
3027.00,2.0255
3026.00,2.0346
3025.00,2.0432
3024.00,2.0512
3023.00,2.0589
3022.00,2.0668
3021.00,2.0751
3020.00,2.0831
3019.00,2.0905
3018.00,2.0973
3017.00,2.1040
3016.00,2.1107
3015.00,2.1175
3014.00,2.1243
3013.00,2.1313
3012.00,2.1384
3011.00,2.1455
3010.00,2.1525
3009.00,2.1589
3008.00,2.1648
3007.00,2.1704
3006.00,2.1762
3005.00,2.1821
3004.00,2.1880
3003.00,2.1937
3002.00,2.1994
3001.00,2.2049
3000.00,2.2100
2999.00,2.2146
2998.00,2.2190
2997.00,2.2235
2996.00,2.2280
2995.00,2.2323
2994.00,2.2365
2993.00,2.2408
2992.00,2.2452
2991.00,2.2494
2990.00,2.2530
2989.00,2.2561
2988.00,2.2586
2987.00,2.2608
2986.00,2.2631
2985.00,2.2655
2984.00,2.2682
2983.00,2.2708
2982.00,2.2731
2981.00,2.2752
2980.00,2.2771
2979.00,2.2791
2978.00,2.2816
2977.00,2.2847
2976.00,2.2886
2975.00,2.2935
2974.00,2.2997
2973.00,2.3074
2972.00,2.3169
2971.00,2.3284
2970.00,2.3422
2969.00,2.3583
2968.00,2.3766
2967.00,2.3974
2966.00,2.4211
2965.00,2.4479
2964.00,2.4769
2963.00,2.5074
2962.00,2.5383
2961.00,2.5686
2960.00,2.5977
2959.00,2.6258
2958.00,2.6537
2957.00,2.6816
2956.00,2.7084
2955.00,2.7328
2954.00,2.7548
2953.00,2.7757
2952.00,2.7973
2951.00,2.8213
2950.00,2.8481
2949.00,2.8758
2948.00,2.9023
2947.00,2.9263
2946.00,2.9498
2945.00,2.9756
2944.00,3.0052
2943.00,3.0379
2942.00,3.0691
2941.00,3.0924
2940.00,3.1040
2939.00,3.1065
2938.00,3.1059
2937.00,3.1044
2936.00,3.0989
2935.00,3.0866
2934.00,3.0683
2933.00,3.0460
2932.00,3.0205
2931.00,2.9916
2930.00,2.9589
2929.00,2.9225
2928.00,2.8825
2927.00,2.8404
2926.00,2.7981
2925.00,2.7564
2924.00,2.7157
2923.00,2.6770
2922.00,2.6412
2921.00,2.6086
2920.00,2.5783
2919.00,2.5497
2918.00,2.5230
2917.00,2.4991
2916.00,2.4785
2915.00,2.4617
2914.00,2.4486
2913.00,2.4387
2912.00,2.4306
2911.00,2.4237
2910.00,2.4179
2909.00,2.4137
2908.00,2.4112
2907.00,2.4100
2906.00,2.4093
2905.00,2.4083
2904.00,2.4067
2903.00,2.4048
2902.00,2.4029
2901.00,2.4015
2900.00,2.4006
2899.00,2.4001
2898.00,2.4001
2897.00,2.4005
2896.00,2.4013
2895.00,2.4024
2894.00,2.4037
2893.00,2.4047
2892.00,2.4046
2891.00,2.4035
2890.00,2.4023
2889.00,2.4023
2888.00,2.4035
2887.00,2.4051
2886.00,2.4070
2885.00,2.4092
2884.00,2.4114
2883.00,2.4135
2882.00,2.4154
2881.00,2.4172
2880.00,2.4193
2879.00,2.4217
2878.00,2.4252
2877.00,2.4311
2876.00,2.4401
2875.00,2.4517
2874.00,2.4647
2873.00,2.4785
2872.00,2.4933
2871.00,2.5094
2870.00,2.5274
2869.00,2.5474
2868.00,2.5700
2867.00,2.5949
2866.00,2.6199
2865.00,2.6417
2864.00,2.6574
2863.00,2.6661
2862.00,2.6678
2861.00,2.6622
2860.00,2.6487
2859.00,2.6287
2858.00,2.6046
2857.00,2.5788
2856.00,2.5531
2855.00,2.5281
2854.00,2.5045
2853.00,2.4825
2852.00,2.4622
2851.00,2.4438
2850.00,2.4278
2849.00,2.4142
2848.00,2.4029
2847.00,2.3937
2846.00,2.3865
2845.00,2.3809
2844.00,2.3764
2843.00,2.3724
2842.00,2.3685
2841.00,2.3648
2840.00,2.3613
2839.00,2.3582
2838.00,2.3554
2837.00,2.3527
2836.00,2.3498
2835.00,2.3470
2834.00,2.3445
2833.00,2.3423
2832.00,2.3400
2831.00,2.3373
2830.00,2.3345
2829.00,2.3321
2828.00,2.3302
2827.00,2.3283
2826.00,2.3256
2825.00,2.3220
2824.00,2.3179
2823.00,2.3137
2822.00,2.3099
2821.00,2.3061
2820.00,2.3019
2819.00,2.2970
2818.00,2.2920
2817.00,2.2873
2816.00,2.2829
2815.00,2.2784
2814.00,2.2733
2813.00,2.2676
2812.00,2.2616
2811.00,2.2558
2810.00,2.2502
2809.00,2.2447
2808.00,2.2391
2807.00,2.2335
2806.00,2.2279
2805.00,2.2223
2804.00,2.2164
2803.00,2.2101
2802.00,2.2032
2801.00,2.1960
2800.00,2.1886
2799.00,2.1816
2798.00,2.1752
2797.00,2.1691
2796.00,2.1629
2795.00,2.1564
2794.00,2.1498
2793.00,2.1429
2792.00,2.1353
2791.00,2.1270
2790.00,2.1184
2789.00,2.1097
2788.00,2.1010
2787.00,2.0919
2786.00,2.0824
2785.00,2.0727
2784.00,2.0628
2783.00,2.0528
2782.00,2.0426
2781.00,2.0323
2780.00,2.0219
2779.00,2.0115
2778.00,2.0010
2777.00,1.9903
2776.00,1.9792
2775.00,1.9679
2774.00,1.9564
2773.00,1.9446
2772.00,1.9327
2771.00,1.9204
2770.00,1.9079
2769.00,1.8953
2768.00,1.8826
2767.00,1.8697
2766.00,1.8567
2765.00,1.8433
2764.00,1.8298
2763.00,1.8161
2762.00,1.8022
2761.00,1.7884
2760.00,1.7743
2759.00,1.7599
2758.00,1.7450
2757.00,1.7298
2756.00,1.7142
2755.00,1.6982
2754.00,1.6819
2753.00,1.6655
2752.00,1.6491
2751.00,1.6328
2750.00,1.6165
2749.00,1.6003
2748.00,1.5842
2747.00,1.5681
2746.00,1.5522
2745.00,1.5366
2744.00,1.5214
2743.00,1.5064
2742.00,1.4916
2741.00,1.4771
2740.00,1.4630
2739.00,1.4492
2738.00,1.4358
2737.00,1.4227
2736.00,1.4099
2735.00,1.3976
2734.00,1.3855
2733.00,1.3736
2732.00,1.3619
2731.00,1.3504
2730.00,1.3390
2729.00,1.3279
2728.00,1.3171
2727.00,1.3065
2726.00,1.2960
2725.00,1.2859
2724.00,1.2761
2723.00,1.2666
2722.00,1.2576
2721.00,1.2489
2720.00,1.2407
2719.00,1.2329
2718.00,1.2255
2717.00,1.2186
2716.00,1.2121
2715.00,1.2059
2714.00,1.2001
2713.00,1.1946
2712.00,1.1895
2711.00,1.1848
2710.00,1.1806
2709.00,1.1768
2708.00,1.1736
2707.00,1.1711
2706.00,1.1692
2705.00,1.1679
2704.00,1.1672
2703.00,1.1671
2702.00,1.1677
2701.00,1.1689
2700.00,1.1708
2699.00,1.1734
2698.00,1.1767
2697.00,1.1806
2696.00,1.1852
2695.00,1.1903
2694.00,1.1960
2693.00,1.2024
2692.00,1.2093
2691.00,1.2168
2690.00,1.2250
2689.00,1.2339
2688.00,1.2435
2687.00,1.2540
2686.00,1.2653
2685.00,1.2773
2684.00,1.2901
2683.00,1.3035
2682.00,1.3173
2681.00,1.3315
2680.00,1.3459
2679.00,1.3599
2678.00,1.3733
2677.00,1.3859
2676.00,1.3975
2675.00,1.4082
2674.00,1.4182
2673.00,1.4276
2672.00,1.4366
2671.00,1.4452
2670.00,1.4535
2669.00,1.4611
2668.00,1.4681
2667.00,1.4743
2666.00,1.4800
2665.00,1.4856
2664.00,1.4916
2663.00,1.4984
2662.00,1.5061
2661.00,1.5150
2660.00,1.5249
2659.00,1.5357
2658.00,1.5473
2657.00,1.5596
2656.00,1.5723
2655.00,1.5853
2654.00,1.5984
2653.00,1.6114
2652.00,1.6245
2651.00,1.6376
2650.00,1.6508
2649.00,1.6638
2648.00,1.6769
2647.00,1.6898
2646.00,1.7026
2645.00,1.7154
2644.00,1.7283
2643.00,1.7413
2642.00,1.7543
2641.00,1.7675
2640.00,1.7807
2639.00,1.7941
2638.00,1.8078
2637.00,1.8218
2636.00,1.8362
2635.00,1.8506
2634.00,1.8651
2633.00,1.8795
2632.00,1.8938
2631.00,1.9079
2630.00,1.9219
2629.00,1.9359
2628.00,1.9499
2627.00,1.9637
2626.00,1.9772
2625.00,1.9904
2624.00,2.0033
2623.00,2.0160
2622.00,2.0283
2621.00,2.0402
2620.00,2.0518
2619.00,2.0629
2618.00,2.0739
2617.00,2.0847
2616.00,2.0951
2615.00,2.1052
2614.00,2.1151
2613.00,2.1251
2612.00,2.1351
2611.00,2.1446
2610.00,2.1534
2609.00,2.1617
2608.00,2.1698
2607.00,2.1780
2606.00,2.1862
2605.00,2.1945
2604.00,2.2027
2603.00,2.2108
2602.00,2.2187
2601.00,2.2264
2600.00,2.2340
2599.00,2.2418
2598.00,2.2498
2597.00,2.2579
2596.00,2.2657
2595.00,2.2732
2594.00,2.2804
2593.00,2.2872
2592.00,2.2933
2591.00,2.2990
2590.00,2.3051
2589.00,2.3120
2588.00,2.3192
2587.00,2.3260
2586.00,2.3319
2585.00,2.3373
2584.00,2.3423
2583.00,2.3473
2582.00,2.3525
2581.00,2.3581
2580.00,2.3638
2579.00,2.3694
2578.00,2.3749
2577.00,2.3806
2576.00,2.3864
2575.00,2.3917
2574.00,2.3960
2573.00,2.3994
2572.00,2.4028
2571.00,2.4068
2570.00,2.4117
2569.00,2.4169
2568.00,2.4217
2567.00,2.4260
2566.00,2.4303
2565.00,2.4348
2564.00,2.4395
2563.00,2.4435
2562.00,2.4466
2561.00,2.4491
2560.00,2.4514
2559.00,2.4536
2558.00,2.4562
2557.00,2.4593
2556.00,2.4630
2555.00,2.4669
2554.00,2.4707
2553.00,2.4742
2552.00,2.4777
2551.00,2.4813
2550.00,2.4848
2549.00,2.4880
2548.00,2.4910
2547.00,2.4939
2546.00,2.4969
2545.00,2.4998
2544.00,2.5023
2543.00,2.5044
2542.00,2.5064
2541.00,2.5082
2540.00,2.5099
2539.00,2.5118
2538.00,2.5143
2537.00,2.5175
2536.00,2.5205
2535.00,2.5224
2534.00,2.5233
2533.00,2.5240
2532.00,2.5248
2531.00,2.5259
2530.00,2.5274
2529.00,2.5295
2528.00,2.5320
2527.00,2.5344
2526.00,2.5362
2525.00,2.5375
2524.00,2.5386
2523.00,2.5397
2522.00,2.5411
2521.00,2.5428
2520.00,2.5442
2519.00,2.5453
2518.00,2.5461
2517.00,2.5470
2516.00,2.5480
2515.00,2.5488
2514.00,2.5494
2513.00,2.5499
2512.00,2.5499
2511.00,2.5491
2510.00,2.5480
2509.00,2.5476
2508.00,2.5480
2507.00,2.5482
2506.00,2.5477
2505.00,2.5469
2504.00,2.5466
2503.00,2.5470
2502.00,2.5478
2501.00,2.5483
2500.00,2.5483
2499.00,2.5475
2498.00,2.5465
2497.00,2.5457
2496.00,2.5454
2495.00,2.5454
2494.00,2.5456
2493.00,2.5456
2492.00,2.5454
2491.00,2.5449
2490.00,2.5440
2489.00,2.5428
2488.00,2.5412
2487.00,2.5394
2486.00,2.5376
2485.00,2.5364
2484.00,2.5354
2483.00,2.5342
2482.00,2.5324
2481.00,2.5301
2480.00,2.5279
2479.00,2.5259
2478.00,2.5239
2477.00,2.5220
2476.00,2.5202
2475.00,2.5187
2474.00,2.5172
2473.00,2.5154
2472.00,2.5130
2471.00,2.5104
2470.00,2.5078
2469.00,2.5054
2468.00,2.5029
2467.00,2.5001
2466.00,2.4970
2465.00,2.4940
2464.00,2.4915
2463.00,2.4897
2462.00,2.4881
2461.00,2.4861
2460.00,2.4829
2459.00,2.4788
2458.00,2.4744
2457.00,2.4705
2456.00,2.4672
2455.00,2.4645
2454.00,2.4621
2453.00,2.4592
2452.00,2.4554
2451.00,2.4506
2450.00,2.4457
2449.00,2.4412
2448.00,2.4370
2447.00,2.4328
2446.00,2.4285
2445.00,2.4242
2444.00,2.4199
2443.00,2.4151
2442.00,2.4098
2441.00,2.4044
2440.00,2.3990
2439.00,2.3938
2438.00,2.3887
2437.00,2.3837
2436.00,2.3785
2435.00,2.3727
2434.00,2.3667
2433.00,2.3608
2432.00,2.3552
2431.00,2.3498
2430.00,2.3442
2429.00,2.3382
2428.00,2.3317
2427.00,2.3248
2426.00,2.3178
2425.00,2.3111
2424.00,2.3048
2423.00,2.2985
2422.00,2.2919
2421.00,2.2849
2420.00,2.2774
2419.00,2.2694
2418.00,2.2611
2417.00,2.2529
2416.00,2.2448
2415.00,2.2363
2414.00,2.2272
2413.00,2.2179
2412.00,2.2088
2411.00,2.1996
2410.00,2.1902
2409.00,2.1807
2408.00,2.1711
2407.00,2.1614
2406.00,2.1513
2405.00,2.1408
2404.00,2.1300
2403.00,2.1188
2402.00,2.1073
2401.00,2.0955
2400.00,2.0834
2399.00,2.0711
2398.00,2.0585
2397.00,2.0458
2396.00,2.0332
2395.00,2.0205
2394.00,2.0073
2393.00,1.9937
2392.00,1.9796
2391.00,1.9653
2390.00,1.9507
2389.00,1.9358
2388.00,1.9204
2387.00,1.9048
2386.00,1.8890
2385.00,1.8730
2384.00,1.8566
2383.00,1.8396
2382.00,1.8221
2381.00,1.8042
2380.00,1.7862
2379.00,1.7683
2378.00,1.7508
2377.00,1.7339
2376.00,1.7176
2375.00,1.7021
2374.00,1.6873
2373.00,1.6727
2372.00,1.6579
2371.00,1.6423
2370.00,1.6258
2369.00,1.6086
2368.00,1.5910
2367.00,1.5734
2366.00,1.5562
2365.00,1.5394
2364.00,1.5232
2363.00,1.5078
2362.00,1.4931
2361.00,1.4793
2360.00,1.4664
2359.00,1.4543
2358.00,1.4430
2357.00,1.4328
2356.00,1.4234
2355.00,1.4145
2354.00,1.4055
2353.00,1.3956
2352.00,1.3848
2351.00,1.3740
2350.00,1.3644
2349.00,1.3560
2348.00,1.3486
2347.00,1.3415
2346.00,1.3342
2345.00,1.3268
2344.00,1.3204
2343.00,1.3152
2342.00,1.3107
2341.00,1.3065
2340.00,1.3027
2339.00,1.2993
2338.00,1.2961
2337.00,1.2930
2336.00,1.2901
2335.00,1.2876
2334.00,1.2855
2333.00,1.2837
2332.00,1.2823
2331.00,1.2816
2330.00,1.2819
2329.00,1.2834
2328.00,1.2857
2327.00,1.2883
2326.00,1.2911
2325.00,1.2939
2324.00,1.2966
2323.00,1.2997
2322.00,1.3033
2321.00,1.3081
2320.00,1.3142
2319.00,1.3215
2318.00,1.3296
2317.00,1.3381
2316.00,1.3465
2315.00,1.3546
2314.00,1.3624
2313.00,1.3703
2312.00,1.3788
2311.00,1.3880
2310.00,1.3982
2309.00,1.4092
2308.00,1.4209
2307.00,1.4331
2306.00,1.4458
2305.00,1.4589
2304.00,1.4725
2303.00,1.4861
2302.00,1.4998
2301.00,1.5136
2300.00,1.5278
2299.00,1.5422
2298.00,1.5568
2297.00,1.5716
2296.00,1.5866
2295.00,1.6017
2294.00,1.6169
2293.00,1.6322
2292.00,1.6476
2291.00,1.6628
2290.00,1.6780
2289.00,1.6934
2288.00,1.7089
2287.00,1.7247
2286.00,1.7407
2285.00,1.7567
2284.00,1.7727
2283.00,1.7887
2282.00,1.8049
2281.00,1.8213
2280.00,1.8382
2279.00,1.8555
2278.00,1.8729
2277.00,1.8903
2276.00,1.9076
2275.00,1.9248
2274.00,1.9418
2273.00,1.9587
2272.00,1.9753
2271.00,1.9916
2270.00,2.0077
2269.00,2.0237
2268.00,2.0396
2267.00,2.0554
2266.00,2.0707
2265.00,2.0857
2264.00,2.1007
2263.00,2.1158
2262.00,2.1311
2261.00,2.1463
2260.00,2.1612
2259.00,2.1757
2258.00,2.1897
2257.00,2.2032
2256.00,2.2161
2255.00,2.2287
2254.00,2.2411
2253.00,2.2534
2252.00,2.2658
2251.00,2.2782
2250.00,2.2904
2249.00,2.3019
2248.00,2.3127
2247.00,2.3233
2246.00,2.3341
2245.00,2.3449
2244.00,2.3556
2243.00,2.3660
2242.00,2.3762
2241.00,2.3864
2240.00,2.3963
2239.00,2.4056
2238.00,2.4140
2237.00,2.4217
2236.00,2.4293
2235.00,2.4374
2234.00,2.4460
2233.00,2.4546
2232.00,2.4627
2231.00,2.4704
2230.00,2.4784
2229.00,2.4870
2228.00,2.4955
2227.00,2.5032
2226.00,2.5103
2225.00,2.5173
2224.00,2.5246
2223.00,2.5321
2222.00,2.5392
2221.00,2.5456
2220.00,2.5511
2219.00,2.5561
2218.00,2.5612
2217.00,2.5665
2216.00,2.5721
2215.00,2.5783
2214.00,2.5855
2213.00,2.5937
2212.00,2.6019
2211.00,2.6086
2210.00,2.6132
2209.00,2.6169
2208.00,2.6211
2207.00,2.6266
2206.00,2.6327
2205.00,2.6382
2204.00,2.6427
2203.00,2.6471
2202.00,2.6521
2201.00,2.6580
2200.00,2.6636
2199.00,2.6683
2198.00,2.6719
2197.00,2.6749
2196.00,2.6783
2195.00,2.6825
2194.00,2.6881
2193.00,2.6946
2192.00,2.7010
2191.00,2.7066
2190.00,2.7106
2189.00,2.7132
2188.00,2.7149
2187.00,2.7166
2186.00,2.7192
2185.00,2.7228
2184.00,2.7268
2183.00,2.7307
2182.00,2.7343
2181.00,2.7378
2180.00,2.7408
2179.00,2.7433
2178.00,2.7456
2177.00,2.7482
2176.00,2.7509
2175.00,2.7536
2174.00,2.7563
2173.00,2.7596
2172.00,2.7638
2171.00,2.7683
2170.00,2.7721
2169.00,2.7743
2168.00,2.7743
2167.00,2.7731
2166.00,2.7724
2165.00,2.7733
2164.00,2.7759
2163.00,2.7795
2162.00,2.7837
2161.00,2.7879
2160.00,2.7911
2159.00,2.7927
2158.00,2.7934
2157.00,2.7944
2156.00,2.7961
2155.00,2.7982
2154.00,2.8003
2153.00,2.8024
2152.00,2.8042
2151.00,2.8054
2150.00,2.8059
2149.00,2.8063
2148.00,2.8072
2147.00,2.8086
2146.00,2.8101
2145.00,2.8116
2144.00,2.8130
2143.00,2.8142
2142.00,2.8151
2141.00,2.8156
2140.00,2.8158
2139.00,2.8158
2138.00,2.8162
2137.00,2.8170
2136.00,2.8175
2135.00,2.8171
2134.00,2.8161
2133.00,2.8156
2132.00,2.8160
2131.00,2.8164
2130.00,2.8160
2129.00,2.8151
2128.00,2.8148
2127.00,2.8159
2126.00,2.8178
2125.00,2.8191
2124.00,2.8193
2123.00,2.8188
2122.00,2.8189
2121.00,2.8198
2120.00,2.8211
2119.00,2.8217
2118.00,2.8213
2117.00,2.8201
2116.00,2.8184
2115.00,2.8165
2114.00,2.8150
2113.00,2.8137
2112.00,2.8127
2111.00,2.8117
2110.00,2.8108
2109.00,2.8099
2108.00,2.8089
2107.00,2.8079
2106.00,2.8073
2105.00,2.8068
2104.00,2.8054
2103.00,2.8026
2102.00,2.7993
2101.00,2.7966
2100.00,2.7945
2099.00,2.7924
2098.00,2.7905
2097.00,2.7892
2096.00,2.7882
2095.00,2.7865
2094.00,2.7838
2093.00,2.7804
2092.00,2.7772
2091.00,2.7751
2090.00,2.7746
2089.00,2.7751
2088.00,2.7746
2087.00,2.7717
2086.00,2.7669
2085.00,2.7626
2084.00,2.7598
2083.00,2.7580
2082.00,2.7557
2081.00,2.7526
2080.00,2.7487
2079.00,2.7446
2078.00,2.7411
2077.00,2.7385
2076.00,2.7361
2075.00,2.7328
2074.00,2.7279
2073.00,2.7221
2072.00,2.7167
2071.00,2.7120
2070.00,2.7081
2069.00,2.7042
2068.00,2.7001
2067.00,2.6959
2066.00,2.6921
2065.00,2.6888
2064.00,2.6851
2063.00,2.6803
2062.00,2.6745
2061.00,2.6686
2060.00,2.6632
2059.00,2.6580
2058.00,2.6527
2057.00,2.6477
2056.00,2.6425
2055.00,2.6368
2054.00,2.6303
2053.00,2.6234
2052.00,2.6166
2051.00,2.6102
2050.00,2.6045
2049.00,2.5994
2048.00,2.5942
2047.00,2.5882
2046.00,2.5810
2045.00,2.5732
2044.00,2.5652
2043.00,2.5569
2042.00,2.5486
2041.00,2.5403
2040.00,2.5317
2039.00,2.5224
2038.00,2.5127
2037.00,2.5034
2036.00,2.4948
2035.00,2.4865
2034.00,2.4782
2033.00,2.4696
2032.00,2.4610
2031.00,2.4517
2030.00,2.4412
2029.00,2.4299
2028.00,2.4185
2027.00,2.4073
2026.00,2.3961
2025.00,2.3849
2024.00,2.3737
2023.00,2.3623
2022.00,2.3506
2021.00,2.3386
2020.00,2.3261
2019.00,2.3131
2018.00,2.2995
2017.00,2.2859
2016.00,2.2724
2015.00,2.2587
2014.00,2.2444
2013.00,2.2296
2012.00,2.2143
2011.00,2.1988
2010.00,2.1830
2009.00,2.1667
2008.00,2.1501
2007.00,2.1330
2006.00,2.1158
2005.00,2.0982
2004.00,2.0802
2003.00,2.0615
2002.00,2.0422
2001.00,2.0229
2000.00,2.0035
1999.00,1.9840
1998.00,1.9644
1997.00,1.9447
1996.00,1.9251
1995.00,1.9054
1994.00,1.8857
1993.00,1.8666
1992.00,1.8480
1991.00,1.8294
1990.00,1.8104
1989.00,1.7913
1988.00,1.7731
1987.00,1.7561
1986.00,1.7400
1985.00,1.7243
1984.00,1.7093
1983.00,1.6950
1982.00,1.6817
1981.00,1.6692
1980.00,1.6574
1979.00,1.6460
1978.00,1.6351
1977.00,1.6246
1976.00,1.6143
1975.00,1.6039
1974.00,1.5934
1973.00,1.5828
1972.00,1.5724
1971.00,1.5619
1970.00,1.5516
1969.00,1.5419
1968.00,1.5330
1967.00,1.5249
1966.00,1.5174
1965.00,1.5100
1964.00,1.5029
1963.00,1.4965
1962.00,1.4915
1961.00,1.4880
1960.00,1.4858
1959.00,1.4845
1958.00,1.4841
1957.00,1.4850
1956.00,1.4871
1955.00,1.4904
1954.00,1.4946
1953.00,1.4998
1952.00,1.5058
1951.00,1.5126
1950.00,1.5203
1949.00,1.5287
1948.00,1.5379
1947.00,1.5475
1946.00,1.5574
1945.00,1.5676
1944.00,1.5784
1943.00,1.5897
1942.00,1.6010
1941.00,1.6118
1940.00,1.6221
1939.00,1.6328
1938.00,1.6446
1937.00,1.6577
1936.00,1.6716
1935.00,1.6860
1934.00,1.7010
1933.00,1.7168
1932.00,1.7332
1931.00,1.7498
1930.00,1.7666
1929.00,1.7839
1928.00,1.8018
1927.00,1.8201
1926.00,1.8385
1925.00,1.8574
1924.00,1.8772
1923.00,1.8985
1922.00,1.9202
1921.00,1.9412
1920.00,1.9610
1919.00,1.9811
1918.00,2.0022
1917.00,2.0237
1916.00,2.0442
1915.00,2.0641
1914.00,2.0844
1913.00,2.1058
1912.00,2.1278
1911.00,2.1496
1910.00,2.1708
1909.00,2.1915
1908.00,2.2115
1907.00,2.2308
1906.00,2.2497
1905.00,2.2686
1904.00,2.2875
1903.00,2.3064
1902.00,2.3252
1901.00,2.3437
1900.00,2.3613
1899.00,2.3782
1898.00,2.3948
1897.00,2.4117
1896.00,2.4288
1895.00,2.4454
1894.00,2.4609
1893.00,2.4753
1892.00,2.4890
1891.00,2.5028
1890.00,2.5171
1889.00,2.5313
1888.00,2.5445
1887.00,2.5570
1886.00,2.5698
1885.00,2.5836
1884.00,2.5975
1883.00,2.6107
1882.00,2.6231
1881.00,2.6353
1880.00,2.6474
1879.00,2.6585
1878.00,2.6678
1877.00,2.6756
1876.00,2.6832
1875.00,2.6921
1874.00,2.7028
1873.00,2.7145
1872.00,2.7258
1871.00,2.7358
1870.00,2.7445
1869.00,2.7521
1868.00,2.7585
1867.00,2.7639
1866.00,2.7698
1865.00,2.7775
1864.00,2.7871
1863.00,2.7978
1862.00,2.8082
1861.00,2.8173
1860.00,2.8247
1859.00,2.8303
1858.00,2.8349
1857.00,2.8397
1856.00,2.8458
1855.00,2.8534
1854.00,2.8627
1853.00,2.8729
1852.00,2.8828
1851.00,2.8910
1850.00,2.8975
1849.00,2.9032
1848.00,2.9091
1847.00,2.9156
1846.00,2.9228
1845.00,2.9312
1844.00,2.9399
1843.00,2.9465
1842.00,2.9501
1841.00,2.9530
1840.00,2.9575
1839.00,2.9642
1838.00,2.9718
1837.00,2.9788
1836.00,2.9844
1835.00,2.9889
1834.00,2.9926
1833.00,2.9961
1832.00,3.0008
1831.00,3.0072
1830.00,3.0130
1829.00,3.0150
1828.00,3.0128
1827.00,3.0111
1826.00,3.0141
1825.00,3.0210
1824.00,3.0278
1823.00,3.0324
1822.00,3.0367
1821.00,3.0428
1820.00,3.0498
1819.00,3.0552
1818.00,3.0581
1817.00,3.0598
1816.00,3.0623
1815.00,3.0659
1814.00,3.0695
1813.00,3.0720
1812.00,3.0733
1811.00,3.0743
1810.00,3.0760
1809.00,3.0781
1808.00,3.0804
1807.00,3.0832
1806.00,3.0874
1805.00,3.0927
1804.00,3.0974
1803.00,3.0997
1802.00,3.0987
1801.00,3.0947
1800.00,3.0892
1799.00,3.0843
1798.00,3.0830
1797.00,3.0863
1796.00,3.0923
1795.00,3.0979
1794.00,3.1022
1793.00,3.1051
1792.00,3.1053
1791.00,3.1025
1790.00,3.1002
1789.00,3.1017
1788.00,3.1066
1787.00,3.1120
1786.00,3.1162
1785.00,3.1192
1784.00,3.1194
1783.00,3.1147
1782.00,3.1059
1781.00,3.0976
1780.00,3.0930
1779.00,3.0910
1778.00,3.0885
1777.00,3.0849
1776.00,3.0818
1775.00,3.0806
1774.00,3.0810
1773.00,3.0815
1772.00,3.0792
1771.00,3.0724
1770.00,3.0647
1769.00,3.0616
1768.00,3.0638
1767.00,3.0675
1766.00,3.0689
1765.00,3.0671
1764.00,3.0640
1763.00,3.0599
1762.00,3.0525
1761.00,3.0408
1760.00,3.0282
1759.00,3.0191
1758.00,3.0139
1757.00,3.0084
1756.00,2.9988
1755.00,2.9855
1754.00,2.9732
1753.00,2.9653
1752.00,2.9603
1751.00,2.9523
1750.00,2.9368
1749.00,2.9135
1748.00,2.8854
1747.00,2.8561
1746.00,2.8274
1745.00,2.7995
1744.00,2.7700
1743.00,2.7367
1742.00,2.6993
1741.00,2.6584
1740.00,2.6160
1739.00,2.5759
1738.00,2.5446
1737.00,2.5280
1736.00,2.5303
1735.00,2.5549
1734.00,2.6035
1733.00,2.6727
1732.00,2.7583
1731.00,2.8601
1730.00,2.9778
1729.00,3.1103
1728.00,3.2541
1727.00,3.4047
1726.00,3.5616
1725.00,3.7301
1724.00,3.9218
1723.00,4.1579
1722.00,4.4369
1721.00,4.6499
1720.00,4.7195
1719.00,4.8364
1718.00,4.9861
1717.00,4.9295
1716.00,4.9627
1715.00,5.1325
1714.00,5.2246
1713.00,5.0766
1712.00,4.9422
1711.00,4.8718
1710.00,4.7333
1709.00,4.6433
1708.00,4.6325
1707.00,4.6550
1706.00,4.7950
1705.00,4.9843
1704.00,4.6344
1703.00,4.3007
1702.00,4.0599
1701.00,3.8085
1700.00,3.5615
1699.00,3.3525
1698.00,3.1969
1697.00,3.0864
1696.00,3.0049
1695.00,2.9463
1694.00,2.9104
1693.00,2.8978
1692.00,2.9069
1691.00,2.9325
1690.00,2.9685
1689.00,3.0069
1688.00,3.0411
1687.00,3.0705
1686.00,3.0986
1685.00,3.1267
1684.00,3.1474
1683.00,3.1533
1682.00,3.1525
1681.00,3.1585
1680.00,3.1730
1679.00,3.1892
1678.00,3.2011
1677.00,3.2075
1676.00,3.2093
1675.00,3.2069
1674.00,3.2018
1673.00,3.1993
1672.00,3.2009
1671.00,3.2009
1670.00,3.1952
1669.00,3.1868
1668.00,3.1816
1667.00,3.1825
1666.00,3.1863
1665.00,3.1877
1664.00,3.1837
1663.00,3.1745
1662.00,3.1646
1661.00,3.1615
1660.00,3.1693
1659.00,3.1827
1658.00,3.1931
1657.00,3.1973
1656.00,3.1975
1655.00,3.1974
1654.00,3.1975
1653.00,3.1925
1652.00,3.1762
1651.00,3.1596
1650.00,3.1537
1649.00,3.1495
1648.00,3.1429
1647.00,3.1367
1646.00,3.1283
1645.00,3.1186
1644.00,3.1125
1643.00,3.1115
1642.00,3.1090
1641.00,3.1086
1640.00,3.1079
1639.00,3.1039
1638.00,3.0995
1637.00,3.0947
1636.00,3.0854
1635.00,3.0704
1634.00,3.0556
1633.00,3.0449
1632.00,3.0441
1631.00,3.0468
1630.00,3.0485
1629.00,3.0472
1628.00,3.0426
1627.00,3.0344
1626.00,3.0233
1625.00,3.0108
1624.00,2.9988
1623.00,2.9876
1622.00,2.9773
1621.00,2.9693
1620.00,2.9641
1619.00,2.9593
1618.00,2.9527
1617.00,2.9438
1616.00,2.9319
1615.00,2.9180
1614.00,2.9058
1613.00,2.8971
1612.00,2.8909
1611.00,2.8854
1610.00,2.8786
1609.00,2.8701
1608.00,2.8612
1607.00,2.8522
1606.00,2.8419
1605.00,2.8297
1604.00,2.8157
1603.00,2.8003
1602.00,2.7844
1601.00,2.7693
1600.00,2.7558
1599.00,2.7432
1598.00,2.7305
1597.00,2.7173
1596.00,2.7028
1595.00,2.6863
1594.00,2.6681
1593.00,2.6498
1592.00,2.6328
1591.00,2.6169
1590.00,2.6009
1589.00,2.5849
1588.00,2.5690
1587.00,2.5524
1586.00,2.5341
1585.00,2.5142
1584.00,2.4938
1583.00,2.4734
1582.00,2.4534
1581.00,2.4341
1580.00,2.4154
1579.00,2.3972
1578.00,2.3799
1577.00,2.3627
1576.00,2.3416
1575.00,2.3122
1574.00,2.2786
1573.00,2.2464
1572.00,2.2185
1571.00,2.1893
1570.00,2.1636
1569.00,2.1364
1568.00,2.1059
1567.00,2.0788
1566.00,2.0521
1565.00,2.0265
1564.00,2.0018
1563.00,1.9794
1562.00,1.9590
1561.00,1.9390
1560.00,1.9165
1559.00,1.8912
1558.00,1.8674
1557.00,1.8496
1556.00,1.8368
1555.00,1.8257
1554.00,1.8143
1553.00,1.8038
1552.00,1.7944
1551.00,1.7884
1550.00,1.7852
1549.00,1.7824
1548.00,1.7797
1547.00,1.7777
1546.00,1.7792
1545.00,1.7842
1544.00,1.7901
1543.00,1.7948
1542.00,1.7981
1541.00,1.8010
1540.00,1.8039
1539.00,1.8083
1538.00,1.8187
1537.00,1.8385
1536.00,1.8630
1535.00,1.8875
1534.00,1.9124
1533.00,1.9360
1532.00,1.9578
1531.00,1.9822
1530.00,2.0122
1529.00,2.0452
1528.00,2.0779
1527.00,2.1099
1526.00,2.1419
1525.00,2.1718
1524.00,2.1975
1523.00,2.2205
1522.00,2.2439
1521.00,2.2660
1520.00,2.2819
1519.00,2.2905
1518.00,2.2950
1517.00,2.2996
1516.00,2.3073
1515.00,2.3198
1514.00,2.3368
1513.00,2.3573
1512.00,2.3801
1511.00,2.4043
1510.00,2.4292
1509.00,2.4557
1508.00,2.4850
1507.00,2.5157
1506.00,2.5408
1505.00,2.5553
1504.00,2.5695
1503.00,2.5914
1502.00,2.6164
1501.00,2.6421
1500.00,2.6661
1499.00,2.6858
1498.00,2.7029
1497.00,2.7210
1496.00,2.7414
1495.00,2.7642
1494.00,2.7896
1493.00,2.8158
1492.00,2.8399
1491.00,2.8610
1490.00,2.8798
1489.00,2.8961
1488.00,2.9093
1487.00,2.9206
1486.00,2.9332
1485.00,2.9476
1484.00,2.9616
1483.00,2.9742
1482.00,2.9865
1481.00,2.9980
1480.00,3.0062
1479.00,3.0115
1478.00,3.0190
1477.00,3.0326
1476.00,3.0511
1475.00,3.0716
1474.00,3.0934
1473.00,3.1167
1472.00,3.1400
1471.00,3.1612
1470.00,3.1802
1469.00,3.1967
1468.00,3.2104
1467.00,3.2230
1466.00,3.2363
1465.00,3.2487
1464.00,3.2578
1463.00,3.2660
1462.00,3.2770
1461.00,3.2886
1460.00,3.2966
1459.00,3.3041
1458.00,3.3205
1457.00,3.3501
1456.00,3.3859
1455.00,3.4189
1454.00,3.4475
1453.00,3.4731
1452.00,3.4977
1451.00,3.5192
1450.00,3.5238
1449.00,3.4912
1448.00,3.4202
1447.00,3.3365
1446.00,3.2656
1445.00,3.2171
1444.00,3.1905
1443.00,3.1823
1442.00,3.1873
1441.00,3.1982
1440.00,3.2099
1439.00,3.2257
1438.00,3.2527
1437.00,3.2912
1436.00,3.3305
1435.00,3.3600
1434.00,3.3784
1433.00,3.3881
1432.00,3.3901
1431.00,3.3879
1430.00,3.3866
1429.00,3.3879
1428.00,3.3899
1427.00,3.3920
1426.00,3.3963
1425.00,3.4023
1424.00,3.4063
1423.00,3.4064
1422.00,3.4035
1421.00,3.3964
1420.00,3.3800
1419.00,3.3537
1418.00,3.3249
1417.00,3.3011
1416.00,3.2831
1415.00,3.2697
1414.00,3.2618
1413.00,3.2612
1412.00,3.2680
1411.00,3.2812
1410.00,3.2974
1409.00,3.3103
1408.00,3.3146
1407.00,3.3115
1406.00,3.3080
1405.00,3.3116
1404.00,3.3258
1403.00,3.3493
1402.00,3.3764
1401.00,3.3978
1400.00,3.4063
1399.00,3.4052
1398.00,3.4056
1397.00,3.4137
1396.00,3.4247
1395.00,3.4308
1394.00,3.4307
1393.00,3.4288
1392.00,3.4286
1391.00,3.4293
1390.00,3.4276
1389.00,3.4235
1388.00,3.4216
1387.00,3.4269
1386.00,3.4365
1385.00,3.4405
1384.00,3.4343
1383.00,3.4273
1382.00,3.4319
1381.00,3.4506
1380.00,3.4749
1379.00,3.4952
1378.00,3.5098
1377.00,3.5198
1376.00,3.5232
1375.00,3.5173
1374.00,3.5060
1373.00,3.4967
1372.00,3.4935
1371.00,3.4969
1370.00,3.5063
1369.00,3.5204
1368.00,3.5351
1367.00,3.5454
1366.00,3.5503
1365.00,3.5529
1364.00,3.5557
1363.00,3.5583
1362.00,3.5598
1361.00,3.5607
1360.00,3.5635
1359.00,3.5719
1358.00,3.5860
1357.00,3.5993
1356.00,3.6031
1355.00,3.5932
1354.00,3.5724
1353.00,3.5488
1352.00,3.5326
1351.00,3.5315
1350.00,3.5465
1349.00,3.5700
1348.00,3.5912
1347.00,3.6042
1346.00,3.6092
1345.00,3.6087
1344.00,3.6074
1343.00,3.6110
1342.00,3.6218
1341.00,3.6340
1340.00,3.6405
1339.00,3.6406
1338.00,3.6392
1337.00,3.6413
1336.00,3.6478
1335.00,3.6549
1334.00,3.6562
1333.00,3.6458
1332.00,3.6247
1331.00,3.6005
1330.00,3.5802
1329.00,3.5648
1328.00,3.5532
1327.00,3.5488
1326.00,3.5555
1325.00,3.5693
1324.00,3.5816
1323.00,3.5881
1322.00,3.5918
1321.00,3.5951
1320.00,3.5977
1319.00,3.6019
1318.00,3.6122
1317.00,3.6273
1316.00,3.6414
1315.00,3.6561
1314.00,3.6808
1313.00,3.7205
1312.00,3.7640
1311.00,3.7922
1310.00,3.7960
1309.00,3.7808
1308.00,3.7565
1307.00,3.7319
1306.00,3.7115
1305.00,3.6917
1304.00,3.6637
1303.00,3.6274
1302.00,3.5959
1301.00,3.5806
1300.00,3.5792
1299.00,3.5797
1298.00,3.5751
1297.00,3.5720
1296.00,3.5791
1295.00,3.5935
1294.00,3.6015
1293.00,3.5932
1292.00,3.5739
1291.00,3.5547
1290.00,3.5410
1289.00,3.5317
1288.00,3.5236
1287.00,3.5180
1286.00,3.5209
1285.00,3.5328
1284.00,3.5425
1283.00,3.5383
1282.00,3.5224
1281.00,3.5064
1280.00,3.5003
1279.00,3.5077
1278.00,3.5247
1277.00,3.5442
1276.00,3.5590
1275.00,3.5645
1274.00,3.5600
1273.00,3.5498
1272.00,3.5407
1271.00,3.5367
1270.00,3.5368
1269.00,3.5377
1268.00,3.5374
1267.00,3.5355
1266.00,3.5300
1265.00,3.5187
1264.00,3.5031
1263.00,3.4880
1262.00,3.4761
1261.00,3.4688
1260.00,3.4692
1259.00,3.4790
1258.00,3.4928
1257.00,3.4988
1256.00,3.4885
1255.00,3.4649
1254.00,3.4380
1253.00,3.4157
1252.00,3.4020
1251.00,3.3969
1250.00,3.3954
1249.00,3.3901
1248.00,3.3787
1247.00,3.3661
1246.00,3.3576
1245.00,3.3507
1244.00,3.3379
1243.00,3.3159
1242.00,3.2898
1241.00,3.2674
1240.00,3.2535
1239.00,3.2478
1238.00,3.2444
1237.00,3.2360
1236.00,3.2215
1235.00,3.2075
1234.00,3.2001
1233.00,3.1980
1232.00,3.1953
1231.00,3.1910
1230.00,3.1938
1229.00,3.2149
1228.00,3.2592
1227.00,3.3236
1226.00,3.4006
1225.00,3.4832
1224.00,3.5689
1223.00,3.6587
1222.00,3.7539
1221.00,3.8447
1220.00,3.9004
1219.00,3.8858
1218.00,3.8108
1217.00,3.7256
1216.00,3.6655
1215.00,3.6347
1214.00,3.6182
1213.00,3.5982
1212.00,3.5693
1211.00,3.5376
1210.00,3.5091
1209.00,3.4847
1208.00,3.4619
1207.00,3.4368
1206.00,3.4045
1205.00,3.3651
1204.00,3.3261
1203.00,3.2974
1202.00,3.2817
1201.00,3.2731
1200.00,3.2628
1199.00,3.2469
1198.00,3.2258
1197.00,3.2002
1196.00,3.1698
1195.00,3.1361
1194.00,3.1019
1193.00,3.0691
1192.00,3.0392
1191.00,3.0125
1190.00,2.9888
1189.00,2.9672
1188.00,2.9469
1187.00,2.9269
1186.00,2.9052
1185.00,2.8801
1184.00,2.8531
1183.00,2.8267
1182.00,2.8018
1181.00,2.7765
1180.00,2.7494
1179.00,2.7214
1178.00,2.6939
1177.00,2.6670
1176.00,2.6389
1175.00,2.6094
1174.00,2.5803
1173.00,2.5541
1172.00,2.5324
1171.00,2.5141
1170.00,2.4968
1169.00,2.4791
1168.00,2.4621
1167.00,2.4480
1166.00,2.4370
1165.00,2.4276
1164.00,2.4185
1163.00,2.4109
1162.00,2.4066
1161.00,2.4064
1160.00,2.4095
1159.00,2.4147
1158.00,2.4203
1157.00,2.4256
1156.00,2.4307
1155.00,2.4378
1154.00,2.4485
1153.00,2.4629
1152.00,2.4803
1151.00,2.5009
1150.00,2.5256
1149.00,2.5548
1148.00,2.5868
1147.00,2.6189
1146.00,2.6495
1145.00,2.6788
1144.00,2.7091
1143.00,2.7439
1142.00,2.7847
1141.00,2.8286
1140.00,2.8714
1139.00,2.9124
1138.00,2.9556
1137.00,3.0036
1136.00,3.0551
1135.00,3.1078
1134.00,3.1614
1133.00,3.2154
1132.00,3.2667
1131.00,3.3150
1130.00,3.3656
1129.00,3.4238
1128.00,3.4864
1127.00,3.5442
1126.00,3.5973
1125.00,3.6599
1124.00,3.7491
1123.00,3.8697
1122.00,3.9949
1121.00,4.0495
1120.00,3.9783
1119.00,3.8503
1118.00,3.7423
1117.00,3.6640
1116.00,3.5948
1115.00,3.5166
1114.00,3.4273
1113.00,3.3376
1112.00,3.2602
1111.00,3.2047
1110.00,3.1750
1109.00,3.1681
1108.00,3.1761
1107.00,3.1938
1106.00,3.2184
1105.00,3.2445
1104.00,3.2647
1103.00,3.2779
1102.00,3.2927
1101.00,3.3206
1100.00,3.3673
1099.00,3.4307
1098.00,3.4980
1097.00,3.5470
1096.00,3.5635
1095.00,3.5590
1094.00,3.5605
1093.00,3.5843
1092.00,3.6217
1091.00,3.6515
1090.00,3.6664
1089.00,3.6770
1088.00,3.6962
1087.00,3.7372
1086.00,3.8052
1085.00,3.8638
1084.00,3.8602
1083.00,3.8116
1082.00,3.7716
1081.00,3.7786
1080.00,3.8272
1079.00,3.8773
1078.00,3.8959
1077.00,3.9025
1076.00,3.9306
1075.00,3.9557
1074.00,3.9315
1073.00,3.8802
1072.00,3.8383
1071.00,3.8133
1070.00,3.8029
1069.00,3.8097
1068.00,3.8500
1067.00,3.9428
1066.00,4.0502
1065.00,4.0727
1064.00,4.0725
1063.00,4.0690
1062.00,4.0010
1061.00,3.9069
1060.00,3.8398
1059.00,3.8191
1058.00,3.8405
1057.00,3.8987
1056.00,3.9779
1055.00,4.0431
1054.00,4.0777
1053.00,4.0917
1052.00,4.0820
1051.00,4.0368
1050.00,3.9982
1049.00,3.9988
1048.00,3.9997
1047.00,3.9833
1046.00,3.9820
1045.00,3.9938
1044.00,3.9909
1043.00,3.9616
1042.00,3.9299
1041.00,3.9297
1040.00,3.9774
1039.00,4.0707
1038.00,4.1839
1037.00,4.2600
1036.00,4.2499
1035.00,4.2128
1034.00,4.2264
1033.00,4.2735
1032.00,4.2614
1031.00,4.1668
1030.00,4.0806
1029.00,4.0605
1028.00,4.1018
1027.00,4.1645
1026.00,4.2132
1025.00,4.2279
1024.00,4.1930
1023.00,4.1254
1022.00,4.0584
1021.00,4.0168
1020.00,4.0162
1019.00,4.0574
1018.00,4.1054
1017.00,4.1174
1016.00,4.0994
1015.00,4.0622
1014.00,4.0279
1013.00,4.0286
1012.00,4.0794
1011.00,4.1852
1010.00,4.3330
1009.00,4.4497
1008.00,4.4421
1007.00,4.3123
1006.00,4.1609
1005.00,4.0673
1004.00,4.0446
1003.00,4.0854
1002.00,4.1833
1001.00,4.3409
1000.00,4.5871
999.00,4.9063
998.00,4.7138
997.00,4.4306
996.00,4.2617
995.00,4.2299
994.00,4.3430
993.00,4.5812
992.00,4.8106
991.00,4.7054
990.00,4.4102
989.00,4.1944
988.00,4.0929
987.00,4.1027
986.00,4.2131
985.00,4.4097
984.00,4.6501
983.00,4.7001
982.00,4.5380
981.00,4.3964
980.00,4.3154
979.00,4.3180
978.00,4.4303
977.00,4.7071
976.00,5.3367
975.00,5.0113
974.00,4.8280
973.00,4.5727
972.00,4.3521
971.00,4.2811
970.00,4.3758
969.00,4.5481
968.00,4.4976
967.00,4.5053
966.00,4.6470
965.00,4.7081
964.00,4.6858
963.00,4.5695
962.00,4.4336
961.00,4.4263
960.00,4.5628
959.00,4.8245
958.00,5.0586
957.00,4.8654
956.00,4.7978
955.00,5.3070
954.00,4.8921
953.00,4.5379
952.00,4.4885
951.00,4.5795
950.00,4.6575
949.00,4.5409
948.00,4.3773
947.00,4.2938
946.00,4.3069
945.00,4.4041
944.00,4.5192
943.00,4.6166
942.00,4.7113
941.00,4.7650
940.00,4.7219
939.00,4.6258
938.00,4.5726
937.00,4.5797
936.00,4.6544
935.00,4.7794
934.00,4.7669
933.00,4.6205
932.00,4.5935
931.00,4.7790
930.00,5.2371
929.00,5.4657
928.00,4.7843
927.00,4.4109
926.00,4.2874
925.00,4.3510
924.00,4.6523
923.00,5.4930
922.00,4.7327
921.00,4.6285
920.00,4.5990
919.00,4.5424
918.00,4.5086
917.00,4.5086
916.00,4.5047
915.00,4.4780
914.00,4.5482
913.00,4.9274
912.00,4.7610
911.00,4.4269
910.00,4.3690
909.00,4.3838
908.00,4.4016
907.00,4.4886
906.00,4.6839
905.00,4.6718
904.00,4.5729
903.00,4.5532
902.00,4.4492
901.00,4.3282
900.00,4.2874
899.00,4.2951
898.00,4.2810
897.00,4.2207
896.00,4.1591
895.00,4.1199
894.00,4.0993
893.00,4.0979
892.00,4.0984
891.00,4.0748
890.00,4.0267
889.00,3.9656
888.00,3.9340
887.00,3.9738
886.00,4.0882
885.00,4.1720
884.00,4.0785
883.00,3.9869
882.00,3.9945
881.00,4.0893
880.00,4.0997
879.00,3.9127
878.00,3.7833
877.00,3.7622
876.00,3.8245
875.00,3.9389
874.00,4.0712
873.00,4.1733
872.00,4.1618
871.00,4.0886
870.00,4.0680
869.00,4.1370
868.00,4.2703
867.00,4.3352
866.00,4.2995
865.00,4.2811
864.00,4.3174
863.00,4.4233
862.00,4.6994
861.00,4.9758
860.00,4.5288
859.00,4.3831
858.00,4.4220
857.00,4.5778
856.00,4.6218
855.00,4.2834
854.00,4.0604
853.00,3.9925
852.00,4.0354
851.00,4.1062
850.00,4.1067
849.00,4.0423
848.00,3.9608
847.00,3.9021
846.00,3.8771
845.00,3.8784
844.00,3.9020
843.00,3.9518
842.00,4.0347
841.00,4.1356
840.00,4.1775
839.00,4.1418
838.00,4.1146
837.00,4.1310
836.00,4.1841
835.00,4.2251
834.00,4.1615
833.00,4.0531
832.00,4.0186
831.00,4.0877
830.00,4.2278
829.00,4.3351
828.00,4.3224
827.00,4.2538
826.00,4.2443
825.00,4.3670
824.00,4.4147
823.00,4.2582
822.00,4.2169
821.00,4.2539
820.00,4.2761
819.00,4.2629
818.00,4.1944
817.00,4.0937
816.00,4.0079
815.00,3.9493
814.00,3.9010
813.00,3.8786
812.00,3.9071
811.00,3.9621
810.00,4.0015
809.00,4.0248
808.00,4.0627
807.00,4.1360
806.00,4.2294
805.00,4.3071
804.00,4.3208
803.00,4.2374
802.00,4.1275
801.00,4.0673
800.00,4.1157
799.00,4.2544
798.00,4.5208
797.00,4.8833
796.00,4.3812
795.00,4.1860
794.00,4.1823
793.00,4.2372
792.00,4.3058
791.00,4.3698
790.00,4.3701
789.00,4.2636
788.00,4.1750
787.00,4.1663
786.00,4.2292
785.00,4.3311
784.00,4.3557
783.00,4.3088
782.00,4.3545
781.00,4.4758
780.00,4.4643
779.00,4.2697
778.00,4.0898
777.00,4.0068
776.00,4.0324
775.00,4.1491
774.00,4.2151
773.00,4.1079
772.00,3.9707
771.00,3.8807
770.00,3.8452
769.00,3.8462
768.00,3.8557
767.00,3.8688
766.00,3.8910
765.00,3.9014
764.00,3.8782
763.00,3.8490
762.00,3.8534
761.00,3.9036
760.00,3.9743
759.00,4.0337
758.00,4.0654
757.00,4.0981
756.00,4.1383
755.00,4.2630
754.00,4.7543
753.00,4.5351
752.00,4.1164
751.00,4.0073
750.00,4.1129
749.00,4.4759
748.00,4.4587
747.00,4.2998
746.00,4.4291
745.00,4.5905
744.00,4.4103
743.00,4.2735
742.00,4.2135
741.00,4.1286
740.00,4.0818
739.00,4.1679
738.00,4.4980
737.00,5.2184
736.00,5.1495
735.00,4.6878
734.00,4.4104
733.00,4.2772
732.00,4.1970
731.00,4.1578
730.00,4.1982
729.00,4.3584
728.00,4.5626
727.00,4.5795
726.00,4.3561
725.00,4.0352
724.00,3.8654
723.00,3.8464
722.00,3.9317
721.00,4.0328
720.00,4.0582
719.00,4.0694
718.00,4.1226
717.00,4.2131
716.00,4.3006
715.00,4.3510
714.00,4.3682
713.00,4.3806
712.00,4.4572
711.00,4.4729
710.00,4.2908
709.00,4.1204
708.00,4.0550
707.00,4.1155
706.00,4.4229
705.00,4.8258
704.00,4.5300
703.00,4.5717
702.00,4.5230
701.00,4.3192
700.00,4.2924
699.00,4.3803
698.00,4.5231
697.00,4.6552
696.00,4.7939
695.00,4.5877
694.00,4.3168
693.00,4.2379
692.00,4.3191
691.00,4.4052
690.00,4.3542
689.00,4.3191
688.00,4.3188
687.00,4.2899
686.00,4.2676
685.00,4.2837
684.00,4.3713
683.00,4.5980
682.00,5.1176
681.00,5.4765
680.00,4.7390
679.00,4.5378
678.00,4.6885
677.00,4.9054
676.00,4.5413
675.00,4.1840
674.00,4.0132
673.00,3.9510
672.00,3.9277
671.00,3.9123
670.00,3.9621
669.00,4.1539
668.00,4.1242
667.00,3.9574
666.00,3.9721
665.00,4.2357
664.00,4.8845
663.00,4.3782
662.00,4.1492
661.00,4.1058
660.00,4.1747
659.00,4.3603
658.00,4.1718
657.00,4.0147
656.00,4.0194
655.00,4.1103
654.00,4.1648
653.00,4.1372
652.00,4.1040
651.00,4.1597
650.00,4.2721
649.00,4.2436
648.00,4.1702
647.00,4.3984
646.00,4.6290
645.00,4.0703
644.00,3.8628
643.00,3.8394
642.00,3.9209
641.00,4.0394
640.00,4.0234
639.00,4.1921
638.00,4.5838
637.00,4.1588
636.00,3.9577
635.00,3.9708
634.00,4.1363
633.00,4.4217
632.00,4.3854
631.00,4.3898
630.00,4.3652
629.00,4.2025
628.00,4.1310
627.00,4.1655
626.00,4.2795
625.00,4.2332
624.00,4.0422
623.00,3.9685
622.00,3.9983
621.00,4.0732
620.00,4.1370
619.00,4.2729
618.00,4.7085
617.00,4.5553
616.00,4.1254
615.00,3.9917
614.00,4.0144
613.00,4.2660
612.00,4.4963
611.00,4.1772
610.00,4.0513
609.00,3.9892
608.00,3.9120
607.00,3.9324
606.00,4.0863
605.00,4.1214
604.00,3.9727
603.00,3.9141
602.00,3.9595
601.00,4.0369
600.00,4.2592
599.00,4.7825
598.00,4.3532
597.00,4.1567
596.00,4.1698
595.00,4.0828
594.00,3.9666
593.00,3.9271
592.00,3.9767
591.00,3.9716
590.00,3.8949
589.00,3.8586
588.00,3.8825
587.00,3.9402
586.00,4.0654
585.00,4.4538
584.00,4.5898
583.00,4.0816
582.00,3.9210
581.00,3.9528
580.00,4.2036
579.00,4.8407
578.00,4.7873
577.00,4.3528
576.00,4.0688
575.00,3.8580
574.00,3.7312
573.00,3.7203
572.00,3.7836
571.00,3.8223
570.00,3.8014
569.00,3.7142
568.00,3.5994
567.00,3.5475
566.00,3.6047
565.00,3.8042
564.00,4.1515
563.00,4.2482
562.00,4.1222
561.00,4.0994
560.00,4.0395
559.00,3.9268
558.00,3.8605
557.00,3.8585
556.00,3.8776
555.00,3.8659
554.00,3.8013
553.00,3.7280
552.00,3.7128
551.00,3.7749
550.00,3.8604
549.00,3.8617
548.00,3.7386
547.00,3.6354
546.00,3.6290
545.00,3.7579
544.00,4.0155
543.00,4.3571
542.00,4.8368
541.00,4.3391
540.00,4.0072
539.00,3.8769
538.00,3.7745
537.00,3.6889
536.00,3.6344
535.00,3.6443
534.00,3.7222
533.00,3.8330
532.00,3.9010
531.00,3.9038
530.00,3.8868
529.00,3.8311
528.00,3.7434
527.00,3.6951
526.00,3.7112
525.00,3.7626
524.00,3.7935
523.00,3.8075
522.00,3.8395
521.00,3.9298
520.00,4.0282
519.00,3.8551
518.00,3.5855
517.00,3.4209
516.00,3.3683
515.00,3.4010
514.00,3.4616
513.00,3.4882
512.00,3.5115
511.00,3.5885
510.00,3.7510
509.00,3.8424
508.00,3.8941
507.00,4.1603
506.00,3.9646
505.00,3.6757
504.00,3.7629
503.00,3.9208
502.00,3.6219
501.00,3.4800
500.00,3.5133
499.00,3.6979
498.00,4.1063
497.00,4.1726
496.00,3.9459
495.00,3.7065
494.00,3.4799
493.00,3.3604
492.00,3.3585
491.00,3.3988
490.00,3.3778
489.00,3.3085
488.00,3.2394
487.00,3.1922
486.00,3.1532
485.00,3.1293
484.00,3.1630
483.00,3.2795
482.00,3.4483
481.00,3.5311
480.00,3.4613
479.00,3.3706
478.00,3.3276
477.00,3.2885
476.00,3.2044
475.00,3.1125
474.00,3.0607
473.00,3.0570
472.00,3.0889
471.00,3.1380
470.00,3.1798
469.00,3.1930
468.00,3.1729
467.00,3.1476
466.00,3.1432
465.00,3.1584
464.00,3.2029
463.00,3.3035
462.00,3.4536
461.00,3.5196
460.00,3.3909
459.00,3.2297
458.00,3.1454
457.00,3.1255
456.00,3.1124
455.00,3.0885
454.00,3.0962
453.00,3.1638
452.00,3.1942
451.00,3.1135
450.00,3.0481
449.00,3.0485
448.00,3.1221
447.00,3.2635
446.00,3.4766
445.00,3.8102
444.00,3.7810
443.00,3.5022
442.00,3.3281
441.00,3.1894
440.00,3.0965
439.00,3.0773
438.00,3.1333
437.00,3.2258
436.00,3.3469
435.00,3.4960
434.00,3.4827
433.00,3.3189
432.00,3.2250
431.00,3.2382
430.00,3.3137
429.00,3.3969
428.00,3.3849
427.00,3.2679
426.00,3.1755
425.00,3.1298
424.00,3.1227
423.00,3.1310
422.00,3.0808
421.00,2.9976
420.00,2.9815
419.00,3.0863
418.00,3.1735
417.00,3.0753
416.00,2.9924
415.00,2.9774
414.00,3.0099
413.00,3.0626
412.00,3.1005
411.00,3.1818
410.00,3.2326
409.00,3.1293
408.00,3.0112
407.00,2.8818
406.00,2.7683
405.00,2.7258
404.00,2.7559
403.00,2.8300
402.00,3.0017
401.00,3.3037
400.00,3.4693
