Created as New Dataset,Sample 185 By Administrator Date Friday, November 26 2021
cm-1,A
7000.00,0.9165
6999.00,0.9188
6998.00,0.9212
6997.00,0.9235
6996.00,0.9257
6995.00,0.9280
6994.00,0.9306
6993.00,0.9334
6992.00,0.9363
6991.00,0.9390
6990.00,0.9416
6989.00,0.9443
6988.00,0.9469
6987.00,0.9494
6986.00,0.9518
6985.00,0.9542
6984.00,0.9567
6983.00,0.9593
6982.00,0.9617
6981.00,0.9640
6980.00,0.9664
6979.00,0.9688
6978.00,0.9714
6977.00,0.9742
6976.00,0.9768
6975.00,0.9795
6974.00,0.9823
6973.00,0.9851
6972.00,0.9878
6971.00,0.9903
6970.00,0.9928
6969.00,0.9955
6968.00,0.9984
6967.00,1.0016
6966.00,1.0047
6965.00,1.0077
6964.00,1.0107
6963.00,1.0136
6962.00,1.0164
6961.00,1.0190
6960.00,1.0212
6959.00,1.0235
6958.00,1.0260
6957.00,1.0287
6956.00,1.0313
6955.00,1.0340
6954.00,1.0369
6953.00,1.0400
6952.00,1.0429
6951.00,1.0455
6950.00,1.0479
6949.00,1.0505
6948.00,1.0533
6947.00,1.0560
6946.00,1.0589
6945.00,1.0618
6944.00,1.0646
6943.00,1.0672
6942.00,1.0695
6941.00,1.0718
6940.00,1.0741
6939.00,1.0762
6938.00,1.0783
6937.00,1.0806
6936.00,1.0833
6935.00,1.0858
6934.00,1.0880
6933.00,1.0900
6932.00,1.0922
6931.00,1.0948
6930.00,1.0975
6929.00,1.1001
6928.00,1.1024
6927.00,1.1047
6926.00,1.1071
6925.00,1.1094
6924.00,1.1113
6923.00,1.1129
6922.00,1.1144
6921.00,1.1162
6920.00,1.1182
6919.00,1.1203
6918.00,1.1223
6917.00,1.1243
6916.00,1.1263
6915.00,1.1283
6914.00,1.1301
6913.00,1.1317
6912.00,1.1331
6911.00,1.1341
6910.00,1.1349
6909.00,1.1356
6908.00,1.1364
6907.00,1.1377
6906.00,1.1392
6905.00,1.1410
6904.00,1.1427
6903.00,1.1445
6902.00,1.1461
6901.00,1.1473
6900.00,1.1480
6899.00,1.1484
6898.00,1.1486
6897.00,1.1491
6896.00,1.1496
6895.00,1.1503
6894.00,1.1512
6893.00,1.1522
6892.00,1.1530
6891.00,1.1535
6890.00,1.1538
6889.00,1.1541
6888.00,1.1545
6887.00,1.1548
6886.00,1.1551
6885.00,1.1553
6884.00,1.1556
6883.00,1.1560
6882.00,1.1561
6881.00,1.1559
6880.00,1.1554
6879.00,1.1552
6878.00,1.1553
6877.00,1.1557
6876.00,1.1560
6875.00,1.1562
6874.00,1.1563
6873.00,1.1562
6872.00,1.1559
6871.00,1.1554
6870.00,1.1546
6869.00,1.1537
6868.00,1.1528
6867.00,1.1519
6866.00,1.1511
6865.00,1.1503
6864.00,1.1493
6863.00,1.1482
6862.00,1.1470
6861.00,1.1460
6860.00,1.1453
6859.00,1.1446
6858.00,1.1437
6857.00,1.1427
6856.00,1.1415
6855.00,1.1402
6854.00,1.1389
6853.00,1.1377
6852.00,1.1364
6851.00,1.1352
6850.00,1.1340
6849.00,1.1329
6848.00,1.1315
6847.00,1.1299
6846.00,1.1280
6845.00,1.1260
6844.00,1.1241
6843.00,1.1222
6842.00,1.1205
6841.00,1.1188
6840.00,1.1173
6839.00,1.1157
6838.00,1.1141
6837.00,1.1122
6836.00,1.1102
6835.00,1.1081
6834.00,1.1061
6833.00,1.1040
6832.00,1.1020
6831.00,1.0998
6830.00,1.0978
6829.00,1.0958
6828.00,1.0939
6827.00,1.0919
6826.00,1.0898
6825.00,1.0874
6824.00,1.0849
6823.00,1.0824
6822.00,1.0801
6821.00,1.0780
6820.00,1.0760
6819.00,1.0740
6818.00,1.0716
6817.00,1.0691
6816.00,1.0664
6815.00,1.0638
6814.00,1.0613
6813.00,1.0588
6812.00,1.0565
6811.00,1.0544
6810.00,1.0525
6809.00,1.0506
6808.00,1.0482
6807.00,1.0455
6806.00,1.0428
6805.00,1.0402
6804.00,1.0379
6803.00,1.0357
6802.00,1.0334
6801.00,1.0309
6800.00,1.0283
6799.00,1.0257
6798.00,1.0232
6797.00,1.0206
6796.00,1.0181
6795.00,1.0157
6794.00,1.0134
6793.00,1.0111
6792.00,1.0087
6791.00,1.0061
6790.00,1.0036
6789.00,1.0010
6788.00,0.9985
6787.00,0.9960
6786.00,0.9934
6785.00,0.9908
6784.00,0.9883
6783.00,0.9859
6782.00,0.9836
6781.00,0.9811
6780.00,0.9786
6779.00,0.9761
6778.00,0.9736
6777.00,0.9712
6776.00,0.9689
6775.00,0.9666
6774.00,0.9643
6773.00,0.9621
6772.00,0.9597
6771.00,0.9572
6770.00,0.9548
6769.00,0.9525
6768.00,0.9503
6767.00,0.9483
6766.00,0.9464
6765.00,0.9445
6764.00,0.9423
6763.00,0.9400
6762.00,0.9376
6761.00,0.9352
6760.00,0.9330
6759.00,0.9308
6758.00,0.9287
6757.00,0.9266
6756.00,0.9245
6755.00,0.9222
6754.00,0.9201
6753.00,0.9181
6752.00,0.9162
6751.00,0.9143
6750.00,0.9123
6749.00,0.9103
6748.00,0.9082
6747.00,0.9061
6746.00,0.9039
6745.00,0.9018
6744.00,0.8997
6743.00,0.8978
6742.00,0.8961
6741.00,0.8944
6740.00,0.8927
6739.00,0.8908
6738.00,0.8888
6737.00,0.8869
6736.00,0.8852
6735.00,0.8833
6734.00,0.8814
6733.00,0.8797
6732.00,0.8782
6731.00,0.8768
6730.00,0.8752
6729.00,0.8734
6728.00,0.8718
6727.00,0.8703
6726.00,0.8689
6725.00,0.8674
6724.00,0.8659
6723.00,0.8645
6722.00,0.8632
6721.00,0.8619
6720.00,0.8606
6719.00,0.8591
6718.00,0.8577
6717.00,0.8565
6716.00,0.8554
6715.00,0.8542
6714.00,0.8529
6713.00,0.8517
6712.00,0.8505
6711.00,0.8494
6710.00,0.8483
6709.00,0.8474
6708.00,0.8465
6707.00,0.8455
6706.00,0.8447
6705.00,0.8439
6704.00,0.8431
6703.00,0.8424
6702.00,0.8417
6701.00,0.8411
6700.00,0.8406
6699.00,0.8400
6698.00,0.8394
6697.00,0.8388
6696.00,0.8382
6695.00,0.8376
6694.00,0.8369
6693.00,0.8364
6692.00,0.8360
6691.00,0.8358
6690.00,0.8356
6689.00,0.8353
6688.00,0.8352
6687.00,0.8351
6686.00,0.8351
6685.00,0.8352
6684.00,0.8353
6683.00,0.8352
6682.00,0.8353
6681.00,0.8354
6680.00,0.8356
6679.00,0.8358
6678.00,0.8360
6677.00,0.8363
6676.00,0.8367
6675.00,0.8370
6674.00,0.8374
6673.00,0.8376
6672.00,0.8378
6671.00,0.8381
6670.00,0.8386
6669.00,0.8392
6668.00,0.8400
6667.00,0.8408
6666.00,0.8416
6665.00,0.8426
6664.00,0.8436
6663.00,0.8447
6662.00,0.8457
6661.00,0.8467
6660.00,0.8477
6659.00,0.8487
6658.00,0.8497
6657.00,0.8509
6656.00,0.8520
6655.00,0.8531
6654.00,0.8543
6653.00,0.8556
6652.00,0.8571
6651.00,0.8585
6650.00,0.8597
6649.00,0.8609
6648.00,0.8621
6647.00,0.8634
6646.00,0.8649
6645.00,0.8664
6644.00,0.8681
6643.00,0.8697
6642.00,0.8715
6641.00,0.8734
6640.00,0.8753
6639.00,0.8771
6638.00,0.8788
6637.00,0.8807
6636.00,0.8826
6635.00,0.8846
6634.00,0.8865
6633.00,0.8884
6632.00,0.8903
6631.00,0.8922
6630.00,0.8942
6629.00,0.8963
6628.00,0.8985
6627.00,0.9007
6626.00,0.9030
6625.00,0.9053
6624.00,0.9076
6623.00,0.9097
6622.00,0.9119
6621.00,0.9142
6620.00,0.9166
6619.00,0.9190
6618.00,0.9212
6617.00,0.9235
6616.00,0.9260
6615.00,0.9286
6614.00,0.9312
6613.00,0.9336
6612.00,0.9360
6611.00,0.9384
6610.00,0.9409
6609.00,0.9435
6608.00,0.9460
6607.00,0.9484
6606.00,0.9508
6605.00,0.9533
6604.00,0.9560
6603.00,0.9586
6602.00,0.9613
6601.00,0.9640
6600.00,0.9668
6599.00,0.9697
6598.00,0.9725
6597.00,0.9753
6596.00,0.9779
6595.00,0.9804
6594.00,0.9832
6593.00,0.9863
6592.00,0.9893
6591.00,0.9923
6590.00,0.9951
6589.00,0.9979
6588.00,1.0009
6587.00,1.0038
6586.00,1.0067
6585.00,1.0096
6584.00,1.0124
6583.00,1.0151
6582.00,1.0176
6581.00,1.0201
6580.00,1.0228
6579.00,1.0255
6578.00,1.0285
6577.00,1.0317
6576.00,1.0349
6575.00,1.0380
6574.00,1.0408
6573.00,1.0437
6572.00,1.0468
6571.00,1.0500
6570.00,1.0531
6569.00,1.0560
6568.00,1.0588
6567.00,1.0615
6566.00,1.0641
6565.00,1.0665
6564.00,1.0690
6563.00,1.0717
6562.00,1.0746
6561.00,1.0776
6560.00,1.0804
6559.00,1.0833
6558.00,1.0861
6557.00,1.0890
6556.00,1.0919
6555.00,1.0948
6554.00,1.0976
6553.00,1.1004
6552.00,1.1030
6551.00,1.1056
6550.00,1.1081
6549.00,1.1105
6548.00,1.1129
6547.00,1.1152
6546.00,1.1177
6545.00,1.1202
6544.00,1.1225
6543.00,1.1248
6542.00,1.1271
6541.00,1.1295
6540.00,1.1318
6539.00,1.1339
6538.00,1.1361
6537.00,1.1384
6536.00,1.1407
6535.00,1.1429
6534.00,1.1450
6533.00,1.1470
6532.00,1.1488
6531.00,1.1506
6530.00,1.1523
6529.00,1.1543
6528.00,1.1564
6527.00,1.1584
6526.00,1.1601
6525.00,1.1618
6524.00,1.1636
6523.00,1.1652
6522.00,1.1668
6521.00,1.1682
6520.00,1.1695
6519.00,1.1709
6518.00,1.1724
6517.00,1.1738
6516.00,1.1752
6515.00,1.1765
6514.00,1.1779
6513.00,1.1793
6512.00,1.1804
6511.00,1.1813
6510.00,1.1822
6509.00,1.1830
6508.00,1.1837
6507.00,1.1842
6506.00,1.1846
6505.00,1.1849
6504.00,1.1851
6503.00,1.1852
6502.00,1.1855
6501.00,1.1860
6500.00,1.1867
6499.00,1.1875
6498.00,1.1882
6497.00,1.1886
6496.00,1.1888
6495.00,1.1888
6494.00,1.1889
6493.00,1.1890
6492.00,1.1892
6491.00,1.1894
6490.00,1.1894
6489.00,1.1894
6488.00,1.1893
6487.00,1.1892
6486.00,1.1888
6485.00,1.1885
6484.00,1.1881
6483.00,1.1877
6482.00,1.1871
6481.00,1.1863
6480.00,1.1853
6479.00,1.1843
6478.00,1.1833
6477.00,1.1823
6476.00,1.1812
6475.00,1.1803
6474.00,1.1794
6473.00,1.1786
6472.00,1.1776
6471.00,1.1762
6470.00,1.1748
6469.00,1.1734
6468.00,1.1719
6467.00,1.1703
6466.00,1.1688
6465.00,1.1676
6464.00,1.1666
6463.00,1.1654
6462.00,1.1636
6461.00,1.1615
6460.00,1.1595
6459.00,1.1577
6458.00,1.1561
6457.00,1.1545
6456.00,1.1527
6455.00,1.1508
6454.00,1.1488
6453.00,1.1466
6452.00,1.1443
6451.00,1.1420
6450.00,1.1398
6449.00,1.1379
6448.00,1.1360
6447.00,1.1340
6446.00,1.1317
6445.00,1.1293
6444.00,1.1268
6443.00,1.1244
6442.00,1.1220
6441.00,1.1197
6440.00,1.1173
6439.00,1.1149
6438.00,1.1123
6437.00,1.1095
6436.00,1.1067
6435.00,1.1039
6434.00,1.1012
6433.00,1.0987
6432.00,1.0962
6431.00,1.0937
6430.00,1.0910
6429.00,1.0883
6428.00,1.0855
6427.00,1.0826
6426.00,1.0794
6425.00,1.0762
6424.00,1.0731
6423.00,1.0701
6422.00,1.0671
6421.00,1.0641
6420.00,1.0611
6419.00,1.0583
6418.00,1.0556
6417.00,1.0529
6416.00,1.0501
6415.00,1.0473
6414.00,1.0445
6413.00,1.0415
6412.00,1.0384
6411.00,1.0352
6410.00,1.0320
6409.00,1.0289
6408.00,1.0258
6407.00,1.0228
6406.00,1.0198
6405.00,1.0167
6404.00,1.0134
6403.00,1.0100
6402.00,1.0067
6401.00,1.0035
6400.00,1.0005
6399.00,0.9977
6398.00,0.9952
6397.00,0.9926
6396.00,0.9898
6395.00,0.9867
6394.00,0.9835
6393.00,0.9804
6392.00,0.9772
6391.00,0.9741
6390.00,0.9711
6389.00,0.9682
6388.00,0.9654
6387.00,0.9627
6386.00,0.9599
6385.00,0.9571
6384.00,0.9543
6383.00,0.9513
6382.00,0.9484
6381.00,0.9455
6380.00,0.9426
6379.00,0.9396
6378.00,0.9366
6377.00,0.9339
6376.00,0.9313
6375.00,0.9286
6374.00,0.9259
6373.00,0.9232
6372.00,0.9206
6371.00,0.9181
6370.00,0.9156
6369.00,0.9131
6368.00,0.9105
6367.00,0.9080
6366.00,0.9055
6365.00,0.9030
6364.00,0.9005
6363.00,0.8980
6362.00,0.8956
6361.00,0.8931
6360.00,0.8907
6359.00,0.8884
6358.00,0.8863
6357.00,0.8843
6356.00,0.8821
6355.00,0.8799
6354.00,0.8777
6353.00,0.8755
6352.00,0.8732
6351.00,0.8708
6350.00,0.8685
6349.00,0.8665
6348.00,0.8645
6347.00,0.8625
6346.00,0.8605
6345.00,0.8586
6344.00,0.8566
6343.00,0.8546
6342.00,0.8527
6341.00,0.8508
6340.00,0.8491
6339.00,0.8474
6338.00,0.8457
6337.00,0.8441
6336.00,0.8425
6335.00,0.8407
6334.00,0.8390
6333.00,0.8375
6332.00,0.8360
6331.00,0.8344
6330.00,0.8329
6329.00,0.8315
6328.00,0.8300
6327.00,0.8285
6326.00,0.8271
6325.00,0.8257
6324.00,0.8243
6323.00,0.8231
6322.00,0.8219
6321.00,0.8208
6320.00,0.8197
6319.00,0.8187
6318.00,0.8176
6317.00,0.8166
6316.00,0.8155
6315.00,0.8144
6314.00,0.8133
6313.00,0.8123
6312.00,0.8112
6311.00,0.8102
6310.00,0.8093
6309.00,0.8086
6308.00,0.8079
6307.00,0.8072
6306.00,0.8065
6305.00,0.8060
6304.00,0.8056
6303.00,0.8052
6302.00,0.8048
6301.00,0.8045
6300.00,0.8043
6299.00,0.8040
6298.00,0.8037
6297.00,0.8034
6296.00,0.8031
6295.00,0.8027
6294.00,0.8025
6293.00,0.8024
6292.00,0.8024
6291.00,0.8025
6290.00,0.8027
6289.00,0.8029
6288.00,0.8032
6287.00,0.8035
6286.00,0.8038
6285.00,0.8042
6284.00,0.8044
6283.00,0.8046
6282.00,0.8049
6281.00,0.8054
6280.00,0.8059
6279.00,0.8065
6278.00,0.8071
6277.00,0.8079
6276.00,0.8088
6275.00,0.8096
6274.00,0.8104
6273.00,0.8113
6272.00,0.8122
6271.00,0.8131
6270.00,0.8142
6269.00,0.8154
6268.00,0.8166
6267.00,0.8178
6266.00,0.8189
6265.00,0.8202
6264.00,0.8214
6263.00,0.8226
6262.00,0.8238
6261.00,0.8252
6260.00,0.8266
6259.00,0.8280
6258.00,0.8294
6257.00,0.8309
6256.00,0.8326
6255.00,0.8343
6254.00,0.8361
6253.00,0.8379
6252.00,0.8397
6251.00,0.8415
6250.00,0.8433
6249.00,0.8452
6248.00,0.8471
6247.00,0.8492
6246.00,0.8513
6245.00,0.8535
6244.00,0.8556
6243.00,0.8577
6242.00,0.8598
6241.00,0.8620
6240.00,0.8642
6239.00,0.8664
6238.00,0.8686
6237.00,0.8708
6236.00,0.8732
6235.00,0.8755
6234.00,0.8780
6233.00,0.8805
6232.00,0.8832
6231.00,0.8859
6230.00,0.8885
6229.00,0.8911
6228.00,0.8937
6227.00,0.8961
6226.00,0.8985
6225.00,0.9011
6224.00,0.9039
6223.00,0.9068
6222.00,0.9098
6221.00,0.9129
6220.00,0.9160
6219.00,0.9190
6218.00,0.9219
6217.00,0.9248
6216.00,0.9277
6215.00,0.9306
6214.00,0.9335
6213.00,0.9365
6212.00,0.9395
6211.00,0.9426
6210.00,0.9458
6209.00,0.9490
6208.00,0.9522
6207.00,0.9555
6206.00,0.9587
6205.00,0.9620
6204.00,0.9653
6203.00,0.9686
6202.00,0.9720
6201.00,0.9754
6200.00,0.9786
6199.00,0.9819
6198.00,0.9853
6197.00,0.9888
6196.00,0.9924
6195.00,0.9960
6194.00,0.9995
6193.00,1.0031
6192.00,1.0067
6191.00,1.0100
6190.00,1.0132
6189.00,1.0165
6188.00,1.0199
6187.00,1.0234
6186.00,1.0269
6185.00,1.0306
6184.00,1.0342
6183.00,1.0379
6182.00,1.0415
6181.00,1.0449
6180.00,1.0484
6179.00,1.0518
6178.00,1.0554
6177.00,1.0590
6176.00,1.0626
6175.00,1.0660
6174.00,1.0694
6173.00,1.0729
6172.00,1.0763
6171.00,1.0797
6170.00,1.0831
6169.00,1.0865
6168.00,1.0900
6167.00,1.0936
6166.00,1.0971
6165.00,1.1006
6164.00,1.1040
6163.00,1.1074
6162.00,1.1109
6161.00,1.1142
6160.00,1.1174
6159.00,1.1205
6158.00,1.1236
6157.00,1.1268
6156.00,1.1300
6155.00,1.1333
6154.00,1.1367
6153.00,1.1402
6152.00,1.1436
6151.00,1.1467
6150.00,1.1495
6149.00,1.1521
6148.00,1.1547
6147.00,1.1573
6146.00,1.1600
6145.00,1.1626
6144.00,1.1653
6143.00,1.1680
6142.00,1.1710
6141.00,1.1741
6140.00,1.1770
6139.00,1.1797
6138.00,1.1822
6137.00,1.1846
6136.00,1.1870
6135.00,1.1892
6134.00,1.1912
6133.00,1.1932
6132.00,1.1953
6131.00,1.1976
6130.00,1.1997
6129.00,1.2017
6128.00,1.2034
6127.00,1.2051
6126.00,1.2069
6125.00,1.2087
6124.00,1.2103
6123.00,1.2120
6122.00,1.2138
6121.00,1.2159
6120.00,1.2177
6119.00,1.2193
6118.00,1.2205
6117.00,1.2219
6116.00,1.2233
6115.00,1.2247
6114.00,1.2261
6113.00,1.2275
6112.00,1.2291
6111.00,1.2307
6110.00,1.2318
6109.00,1.2327
6108.00,1.2333
6107.00,1.2340
6106.00,1.2347
6105.00,1.2354
6104.00,1.2360
6103.00,1.2367
6102.00,1.2374
6101.00,1.2381
6100.00,1.2386
6099.00,1.2388
6098.00,1.2389
6097.00,1.2391
6096.00,1.2392
6095.00,1.2392
6094.00,1.2391
6093.00,1.2391
6092.00,1.2393
6091.00,1.2396
6090.00,1.2399
6089.00,1.2402
6088.00,1.2402
6087.00,1.2398
6086.00,1.2393
6085.00,1.2388
6084.00,1.2385
6083.00,1.2382
6082.00,1.2380
6081.00,1.2378
6080.00,1.2375
6079.00,1.2368
6078.00,1.2358
6077.00,1.2346
6076.00,1.2334
6075.00,1.2323
6074.00,1.2314
6073.00,1.2307
6072.00,1.2301
6071.00,1.2295
6070.00,1.2286
6069.00,1.2272
6068.00,1.2255
6067.00,1.2235
6066.00,1.2215
6065.00,1.2196
6064.00,1.2181
6063.00,1.2170
6062.00,1.2162
6061.00,1.2152
6060.00,1.2138
6059.00,1.2119
6058.00,1.2097
6057.00,1.2074
6056.00,1.2050
6055.00,1.2028
6054.00,1.2009
6053.00,1.1992
6052.00,1.1976
6051.00,1.1960
6050.00,1.1942
6049.00,1.1922
6048.00,1.1899
6047.00,1.1873
6046.00,1.1846
6045.00,1.1819
6044.00,1.1791
6043.00,1.1765
6042.00,1.1740
6041.00,1.1717
6040.00,1.1693
6039.00,1.1667
6038.00,1.1641
6037.00,1.1615
6036.00,1.1588
6035.00,1.1559
6034.00,1.1529
6033.00,1.1498
6032.00,1.1467
6031.00,1.1435
6030.00,1.1405
6029.00,1.1375
6028.00,1.1346
6027.00,1.1315
6026.00,1.1285
6025.00,1.1254
6024.00,1.1223
6023.00,1.1191
6022.00,1.1160
6021.00,1.1130
6020.00,1.1102
6019.00,1.1073
6018.00,1.1043
6017.00,1.1011
6016.00,1.0978
6015.00,1.0943
6014.00,1.0907
6013.00,1.0871
6012.00,1.0835
6011.00,1.0801
6010.00,1.0769
6009.00,1.0737
6008.00,1.0706
6007.00,1.0674
6006.00,1.0642
6005.00,1.0609
6004.00,1.0577
6003.00,1.0545
6002.00,1.0514
6001.00,1.0482
6000.00,1.0449
5999.00,1.0416
5998.00,1.0383
5997.00,1.0352
5996.00,1.0321
5995.00,1.0290
5994.00,1.0259
5993.00,1.0226
5992.00,1.0192
5991.00,1.0156
5990.00,1.0120
5989.00,1.0085
5988.00,1.0051
5987.00,1.0018
5986.00,0.9987
5985.00,0.9958
5984.00,0.9931
5983.00,0.9902
5982.00,0.9874
5981.00,0.9844
5980.00,0.9814
5979.00,0.9782
5978.00,0.9749
5977.00,0.9715
5976.00,0.9682
5975.00,0.9651
5974.00,0.9621
5973.00,0.9593
5972.00,0.9564
5971.00,0.9535
5970.00,0.9506
5969.00,0.9478
5968.00,0.9450
5967.00,0.9423
5966.00,0.9397
5965.00,0.9371
5964.00,0.9346
5963.00,0.9319
5962.00,0.9292
5961.00,0.9264
5960.00,0.9236
5959.00,0.9209
5958.00,0.9181
5957.00,0.9154
5956.00,0.9127
5955.00,0.9100
5954.00,0.9073
5953.00,0.9048
5952.00,0.9024
5951.00,0.9001
5950.00,0.8977
5949.00,0.8954
5948.00,0.8931
5947.00,0.8907
5946.00,0.8884
5945.00,0.8862
5944.00,0.8839
5943.00,0.8816
5942.00,0.8795
5941.00,0.8773
5940.00,0.8752
5939.00,0.8730
5938.00,0.8710
5937.00,0.8691
5936.00,0.8672
5935.00,0.8653
5934.00,0.8634
5933.00,0.8615
5932.00,0.8596
5931.00,0.8576
5930.00,0.8556
5929.00,0.8538
5928.00,0.8520
5927.00,0.8504
5926.00,0.8489
5925.00,0.8474
5924.00,0.8461
5923.00,0.8447
5922.00,0.8433
5921.00,0.8419
5920.00,0.8405
5919.00,0.8390
5918.00,0.8375
5917.00,0.8361
5916.00,0.8348
5915.00,0.8336
5914.00,0.8326
5913.00,0.8317
5912.00,0.8309
5911.00,0.8302
5910.00,0.8295
5909.00,0.8288
5908.00,0.8280
5907.00,0.8272
5906.00,0.8265
5905.00,0.8258
5904.00,0.8253
5903.00,0.8248
5902.00,0.8244
5901.00,0.8241
5900.00,0.8238
5899.00,0.8234
5898.00,0.8231
5897.00,0.8230
5896.00,0.8229
5895.00,0.8229
5894.00,0.8229
5893.00,0.8231
5892.00,0.8233
5891.00,0.8235
5890.00,0.8239
5889.00,0.8243
5888.00,0.8246
5887.00,0.8250
5886.00,0.8255
5885.00,0.8260
5884.00,0.8266
5883.00,0.8273
5882.00,0.8282
5881.00,0.8292
5880.00,0.8303
5879.00,0.8314
5878.00,0.8324
5877.00,0.8335
5876.00,0.8346
5875.00,0.8356
5874.00,0.8368
5873.00,0.8380
5872.00,0.8394
5871.00,0.8407
5870.00,0.8422
5869.00,0.8436
5868.00,0.8452
5867.00,0.8467
5866.00,0.8484
5865.00,0.8501
5864.00,0.8520
5863.00,0.8538
5862.00,0.8555
5861.00,0.8573
5860.00,0.8590
5859.00,0.8608
5858.00,0.8626
5857.00,0.8646
5856.00,0.8668
5855.00,0.8690
5854.00,0.8712
5853.00,0.8735
5852.00,0.8756
5851.00,0.8777
5850.00,0.8798
5849.00,0.8820
5848.00,0.8843
5847.00,0.8866
5846.00,0.8890
5845.00,0.8915
5844.00,0.8940
5843.00,0.8964
5842.00,0.8990
5841.00,0.9016
5840.00,0.9044
5839.00,0.9072
5838.00,0.9101
5837.00,0.9130
5836.00,0.9160
5835.00,0.9189
5834.00,0.9218
5833.00,0.9246
5832.00,0.9275
5831.00,0.9303
5830.00,0.9333
5829.00,0.9363
5828.00,0.9394
5827.00,0.9425
5826.00,0.9458
5825.00,0.9492
5824.00,0.9525
5823.00,0.9558
5822.00,0.9590
5821.00,0.9622
5820.00,0.9654
5819.00,0.9687
5818.00,0.9721
5817.00,0.9755
5816.00,0.9788
5815.00,0.9822
5814.00,0.9857
5813.00,0.9892
5812.00,0.9928
5811.00,0.9965
5810.00,1.0001
5809.00,1.0036
5808.00,1.0071
5807.00,1.0105
5806.00,1.0140
5805.00,1.0176
5804.00,1.0212
5803.00,1.0249
5802.00,1.0288
5801.00,1.0327
5800.00,1.0366
5799.00,1.0405
5798.00,1.0443
5797.00,1.0481
5796.00,1.0519
5795.00,1.0556
5794.00,1.0595
5793.00,1.0634
5792.00,1.0673
5791.00,1.0711
5790.00,1.0749
5789.00,1.0786
5788.00,1.0824
5787.00,1.0861
5786.00,1.0898
5785.00,1.0937
5784.00,1.0977
5783.00,1.1016
5782.00,1.1054
5781.00,1.1092
5780.00,1.1130
5779.00,1.1169
5778.00,1.1207
5777.00,1.1246
5776.00,1.1286
5775.00,1.1324
5774.00,1.1363
5773.00,1.1401
5772.00,1.1438
5771.00,1.1474
5770.00,1.1510
5769.00,1.1548
5768.00,1.1585
5767.00,1.1621
5766.00,1.1656
5765.00,1.1691
5764.00,1.1726
5763.00,1.1761
5762.00,1.1795
5761.00,1.1828
5760.00,1.1861
5759.00,1.1894
5758.00,1.1927
5757.00,1.1960
5756.00,1.1992
5755.00,1.2025
5754.00,1.2057
5753.00,1.2089
5752.00,1.2121
5751.00,1.2152
5750.00,1.2182
5749.00,1.2211
5748.00,1.2240
5747.00,1.2267
5746.00,1.2294
5745.00,1.2321
5744.00,1.2347
5743.00,1.2372
5742.00,1.2398
5741.00,1.2425
5740.00,1.2451
5739.00,1.2477
5738.00,1.2502
5737.00,1.2527
5736.00,1.2552
5735.00,1.2576
5734.00,1.2598
5733.00,1.2620
5732.00,1.2642
5731.00,1.2663
5730.00,1.2681
5729.00,1.2698
5728.00,1.2715
5727.00,1.2732
5726.00,1.2748
5725.00,1.2764
5724.00,1.2780
5723.00,1.2796
5722.00,1.2811
5721.00,1.2826
5720.00,1.2842
5719.00,1.2857
5718.00,1.2871
5717.00,1.2882
5716.00,1.2890
5715.00,1.2896
5714.00,1.2900
5713.00,1.2906
5712.00,1.2913
5711.00,1.2922
5710.00,1.2930
5709.00,1.2937
5708.00,1.2945
5707.00,1.2952
5706.00,1.2959
5705.00,1.2966
5704.00,1.2971
5703.00,1.2975
5702.00,1.2977
5701.00,1.2976
5700.00,1.2974
5699.00,1.2972
5698.00,1.2969
5697.00,1.2968
5696.00,1.2966
5695.00,1.2965
5694.00,1.2964
5693.00,1.2964
5692.00,1.2963
5691.00,1.2961
5690.00,1.2957
5689.00,1.2953
5688.00,1.2950
5687.00,1.2946
5686.00,1.2941
5685.00,1.2935
5684.00,1.2928
5683.00,1.2920
5682.00,1.2910
5681.00,1.2900
5680.00,1.2889
5679.00,1.2876
5678.00,1.2863
5677.00,1.2849
5676.00,1.2836
5675.00,1.2823
5674.00,1.2811
5673.00,1.2799
5672.00,1.2786
5671.00,1.2771
5670.00,1.2754
5669.00,1.2737
5668.00,1.2719
5667.00,1.2701
5666.00,1.2683
5665.00,1.2666
5664.00,1.2650
5663.00,1.2634
5662.00,1.2617
5661.00,1.2597
5660.00,1.2576
5659.00,1.2553
5658.00,1.2528
5657.00,1.2504
5656.00,1.2480
5655.00,1.2457
5654.00,1.2434
5653.00,1.2411
5652.00,1.2386
5651.00,1.2360
5650.00,1.2333
5649.00,1.2306
5648.00,1.2280
5647.00,1.2253
5646.00,1.2227
5645.00,1.2199
5644.00,1.2171
5643.00,1.2142
5642.00,1.2112
5641.00,1.2080
5640.00,1.2047
5639.00,1.2015
5638.00,1.1983
5637.00,1.1951
5636.00,1.1919
5635.00,1.1886
5634.00,1.1854
5633.00,1.1821
5632.00,1.1788
5631.00,1.1754
5630.00,1.1720
5629.00,1.1685
5628.00,1.1650
5627.00,1.1614
5626.00,1.1577
5625.00,1.1541
5624.00,1.1506
5623.00,1.1470
5622.00,1.1434
5621.00,1.1397
5620.00,1.1359
5619.00,1.1321
5618.00,1.1282
5617.00,1.1244
5616.00,1.1207
5615.00,1.1170
5614.00,1.1132
5613.00,1.1094
5612.00,1.1056
5611.00,1.1018
5610.00,1.0981
5609.00,1.0945
5608.00,1.0907
5607.00,1.0870
5606.00,1.0831
5605.00,1.0793
5604.00,1.0754
5603.00,1.0716
5602.00,1.0678
5601.00,1.0640
5600.00,1.0601
5599.00,1.0561
5598.00,1.0521
5597.00,1.0483
5596.00,1.0445
5595.00,1.0407
5594.00,1.0369
5593.00,1.0331
5592.00,1.0293
5591.00,1.0255
5590.00,1.0218
5589.00,1.0181
5588.00,1.0146
5587.00,1.0110
5586.00,1.0075
5585.00,1.0039
5584.00,1.0003
5583.00,0.9967
5582.00,0.9932
5581.00,0.9897
5580.00,0.9862
5579.00,0.9826
5578.00,0.9789
5577.00,0.9753
5576.00,0.9717
5575.00,0.9681
5574.00,0.9647
5573.00,0.9613
5572.00,0.9580
5571.00,0.9546
5570.00,0.9513
5569.00,0.9479
5568.00,0.9445
5567.00,0.9412
5566.00,0.9379
5565.00,0.9346
5564.00,0.9314
5563.00,0.9282
5562.00,0.9252
5561.00,0.9222
5560.00,0.9192
5559.00,0.9161
5558.00,0.9131
5557.00,0.9101
5556.00,0.9071
5555.00,0.9041
5554.00,0.9011
5553.00,0.8981
5552.00,0.8951
5551.00,0.8921
5550.00,0.8890
5549.00,0.8861
5548.00,0.8833
5547.00,0.8806
5546.00,0.8778
5545.00,0.8751
5544.00,0.8724
5543.00,0.8697
5542.00,0.8671
5541.00,0.8645
5540.00,0.8621
5539.00,0.8597
5538.00,0.8574
5537.00,0.8550
5536.00,0.8526
5535.00,0.8503
5534.00,0.8480
5533.00,0.8459
5532.00,0.8439
5531.00,0.8418
5530.00,0.8398
5529.00,0.8377
5528.00,0.8356
5527.00,0.8336
5526.00,0.8318
5525.00,0.8300
5524.00,0.8284
5523.00,0.8267
5522.00,0.8251
5521.00,0.8234
5520.00,0.8218
5519.00,0.8202
5518.00,0.8186
5517.00,0.8172
5516.00,0.8158
5515.00,0.8146
5514.00,0.8135
5513.00,0.8125
5512.00,0.8116
5511.00,0.8107
5510.00,0.8098
5509.00,0.8089
5508.00,0.8080
5507.00,0.8072
5506.00,0.8064
5505.00,0.8057
5504.00,0.8051
5503.00,0.8046
5502.00,0.8042
5501.00,0.8039
5500.00,0.8036
5499.00,0.8035
5498.00,0.8034
5497.00,0.8034
5496.00,0.8035
5495.00,0.8037
5494.00,0.8039
5493.00,0.8041
5492.00,0.8044
5491.00,0.8046
5490.00,0.8050
5489.00,0.8054
5488.00,0.8060
5487.00,0.8067
5486.00,0.8075
5485.00,0.8084
5484.00,0.8095
5483.00,0.8106
5482.00,0.8118
5481.00,0.8131
5480.00,0.8144
5479.00,0.8157
5478.00,0.8170
5477.00,0.8184
5476.00,0.8198
5475.00,0.8212
5474.00,0.8227
5473.00,0.8241
5472.00,0.8256
5471.00,0.8272
5470.00,0.8289
5469.00,0.8309
5468.00,0.8330
5467.00,0.8351
5466.00,0.8372
5465.00,0.8393
5464.00,0.8415
5463.00,0.8437
5462.00,0.8460
5461.00,0.8484
5460.00,0.8509
5459.00,0.8534
5458.00,0.8560
5457.00,0.8586
5456.00,0.8611
5455.00,0.8637
5454.00,0.8664
5453.00,0.8692
5452.00,0.8721
5451.00,0.8750
5450.00,0.8781
5449.00,0.8812
5448.00,0.8843
5447.00,0.8874
5446.00,0.8906
5445.00,0.8938
5444.00,0.8970
5443.00,0.9003
5442.00,0.9035
5441.00,0.9069
5440.00,0.9103
5439.00,0.9138
5438.00,0.9173
5437.00,0.9209
5436.00,0.9244
5435.00,0.9279
5434.00,0.9316
5433.00,0.9353
5432.00,0.9391
5431.00,0.9428
5430.00,0.9466
5429.00,0.9504
5428.00,0.9543
5427.00,0.9582
5426.00,0.9622
5425.00,0.9662
5424.00,0.9702
5423.00,0.9743
5422.00,0.9785
5421.00,0.9828
5420.00,0.9870
5419.00,0.9912
5418.00,0.9955
5417.00,0.9998
5416.00,1.0041
5415.00,1.0085
5414.00,1.0129
5413.00,1.0174
5412.00,1.0217
5411.00,1.0260
5410.00,1.0302
5409.00,1.0346
5408.00,1.0389
5407.00,1.0433
5406.00,1.0476
5405.00,1.0520
5404.00,1.0564
5403.00,1.0610
5402.00,1.0657
5401.00,1.0704
5400.00,1.0752
5399.00,1.0799
5398.00,1.0846
5397.00,1.0892
5396.00,1.0936
5395.00,1.0980
5394.00,1.1025
5393.00,1.1070
5392.00,1.1116
5391.00,1.1162
5390.00,1.1209
5389.00,1.1255
5388.00,1.1299
5387.00,1.1343
5386.00,1.1387
5385.00,1.1433
5384.00,1.1479
5383.00,1.1525
5382.00,1.1569
5381.00,1.1612
5380.00,1.1653
5379.00,1.1695
5378.00,1.1739
5377.00,1.1783
5376.00,1.1828
5375.00,1.1872
5374.00,1.1914
5373.00,1.1956
5372.00,1.1995
5371.00,1.2034
5370.00,1.2074
5369.00,1.2113
5368.00,1.2153
5367.00,1.2191
5366.00,1.2230
5365.00,1.2269
5364.00,1.2307
5363.00,1.2346
5362.00,1.2384
5361.00,1.2422
5360.00,1.2459
5359.00,1.2496
5358.00,1.2533
5357.00,1.2570
5356.00,1.2605
5355.00,1.2638
5354.00,1.2669
5353.00,1.2700
5352.00,1.2731
5351.00,1.2762
5350.00,1.2793
5349.00,1.2825
5348.00,1.2856
5347.00,1.2885
5346.00,1.2912
5345.00,1.2939
5344.00,1.2967
5343.00,1.2996
5342.00,1.3023
5341.00,1.3048
5340.00,1.3071
5339.00,1.3091
5338.00,1.3112
5337.00,1.3135
5336.00,1.3158
5335.00,1.3182
5334.00,1.3204
5333.00,1.3225
5332.00,1.3244
5331.00,1.3262
5330.00,1.3281
5329.00,1.3301
5328.00,1.3321
5327.00,1.3340
5326.00,1.3358
5325.00,1.3376
5324.00,1.3391
5323.00,1.3404
5322.00,1.3416
5321.00,1.3427
5320.00,1.3438
5319.00,1.3449
5318.00,1.3461
5317.00,1.3473
5316.00,1.3484
5315.00,1.3494
5314.00,1.3503
5313.00,1.3512
5312.00,1.3521
5311.00,1.3531
5310.00,1.3540
5309.00,1.3548
5308.00,1.3554
5307.00,1.3558
5306.00,1.3562
5305.00,1.3564
5304.00,1.3565
5303.00,1.3567
5302.00,1.3568
5301.00,1.3570
5300.00,1.3570
5299.00,1.3571
5298.00,1.3572
5297.00,1.3573
5296.00,1.3573
5295.00,1.3575
5294.00,1.3577
5293.00,1.3579
5292.00,1.3577
5291.00,1.3573
5290.00,1.3567
5289.00,1.3561
5288.00,1.3553
5287.00,1.3544
5286.00,1.3534
5285.00,1.3523
5284.00,1.3511
5283.00,1.3499
5282.00,1.3488
5281.00,1.3476
5280.00,1.3463
5279.00,1.3449
5278.00,1.3434
5277.00,1.3419
5276.00,1.3405
5275.00,1.3392
5274.00,1.3379
5273.00,1.3366
5272.00,1.3351
5271.00,1.3334
5270.00,1.3316
5269.00,1.3297
5268.00,1.3279
5267.00,1.3259
5266.00,1.3240
5265.00,1.3221
5264.00,1.3200
5263.00,1.3178
5262.00,1.3154
5261.00,1.3130
5260.00,1.3106
5259.00,1.3082
5258.00,1.3058
5257.00,1.3034
5256.00,1.3010
5255.00,1.2985
5254.00,1.2957
5253.00,1.2929
5252.00,1.2899
5251.00,1.2869
5250.00,1.2838
5249.00,1.2806
5248.00,1.2774
5247.00,1.2743
5246.00,1.2712
5245.00,1.2682
5244.00,1.2652
5243.00,1.2619
5242.00,1.2584
5241.00,1.2546
5240.00,1.2508
5239.00,1.2470
5238.00,1.2433
5237.00,1.2397
5236.00,1.2360
5235.00,1.2323
5234.00,1.2287
5233.00,1.2250
5232.00,1.2213
5231.00,1.2175
5230.00,1.2136
5229.00,1.2095
5228.00,1.2054
5227.00,1.2014
5226.00,1.1974
5225.00,1.1935
5224.00,1.1894
5223.00,1.1851
5222.00,1.1806
5221.00,1.1762
5220.00,1.1717
5219.00,1.1673
5218.00,1.1631
5217.00,1.1591
5216.00,1.1550
5215.00,1.1508
5214.00,1.1465
5213.00,1.1421
5212.00,1.1378
5211.00,1.1333
5210.00,1.1289
5209.00,1.1245
5208.00,1.1200
5207.00,1.1154
5206.00,1.1108
5205.00,1.1064
5204.00,1.1019
5203.00,1.0975
5202.00,1.0931
5201.00,1.0887
5200.00,1.0842
5199.00,1.0798
5198.00,1.0754
5197.00,1.0711
5196.00,1.0668
5195.00,1.0626
5194.00,1.0585
5193.00,1.0543
5192.00,1.0501
5191.00,1.0459
5190.00,1.0416
5189.00,1.0373
5188.00,1.0330
5187.00,1.0287
5186.00,1.0246
5185.00,1.0205
5184.00,1.0164
5183.00,1.0123
5182.00,1.0082
5181.00,1.0041
5180.00,1.0000
5179.00,0.9961
5178.00,0.9921
5177.00,0.9883
5176.00,0.9844
5175.00,0.9805
5174.00,0.9767
5173.00,0.9730
5172.00,0.9693
5171.00,0.9656
5170.00,0.9619
5169.00,0.9582
5168.00,0.9545
5167.00,0.9508
5166.00,0.9472
5165.00,0.9437
5164.00,0.9402
5163.00,0.9367
5162.00,0.9333
5161.00,0.9299
5160.00,0.9265
5159.00,0.9231
5158.00,0.9197
5157.00,0.9164
5156.00,0.9132
5155.00,0.9101
5154.00,0.9069
5153.00,0.9038
5152.00,0.9007
5151.00,0.8976
5150.00,0.8945
5149.00,0.8915
5148.00,0.8886
5147.00,0.8857
5146.00,0.8828
5145.00,0.8800
5144.00,0.8773
5143.00,0.8747
5142.00,0.8721
5141.00,0.8695
5140.00,0.8670
5139.00,0.8644
5138.00,0.8619
5137.00,0.8595
5136.00,0.8571
5135.00,0.8549
5134.00,0.8527
5133.00,0.8506
5132.00,0.8485
5131.00,0.8465
5130.00,0.8446
5129.00,0.8427
5128.00,0.8408
5127.00,0.8390
5126.00,0.8373
5125.00,0.8356
5124.00,0.8340
5123.00,0.8325
5122.00,0.8312
5121.00,0.8298
5120.00,0.8285
5119.00,0.8273
5118.00,0.8261
5117.00,0.8251
5116.00,0.8241
5115.00,0.8232
5114.00,0.8224
5113.00,0.8216
5112.00,0.8209
5111.00,0.8203
5110.00,0.8198
5109.00,0.8193
5108.00,0.8189
5107.00,0.8186
5106.00,0.8183
5105.00,0.8182
5104.00,0.8183
5103.00,0.8184
5102.00,0.8186
5101.00,0.8190
5100.00,0.8193
5099.00,0.8198
5098.00,0.8203
5097.00,0.8208
5096.00,0.8214
5095.00,0.8220
5094.00,0.8227
5093.00,0.8235
5092.00,0.8245
5091.00,0.8255
5090.00,0.8267
5089.00,0.8280
5088.00,0.8293
5087.00,0.8307
5086.00,0.8321
5085.00,0.8337
5084.00,0.8353
5083.00,0.8370
5082.00,0.8387
5081.00,0.8405
5080.00,0.8423
5079.00,0.8442
5078.00,0.8462
5077.00,0.8483
5076.00,0.8505
5075.00,0.8527
5074.00,0.8550
5073.00,0.8573
5072.00,0.8598
5071.00,0.8623
5070.00,0.8649
5069.00,0.8677
5068.00,0.8705
5067.00,0.8734
5066.00,0.8763
5065.00,0.8792
5064.00,0.8822
5063.00,0.8851
5062.00,0.8881
5061.00,0.8912
5060.00,0.8944
5059.00,0.8977
5058.00,0.9011
5057.00,0.9047
5056.00,0.9083
5055.00,0.9119
5054.00,0.9155
5053.00,0.9191
5052.00,0.9228
5051.00,0.9265
5050.00,0.9304
5049.00,0.9343
5048.00,0.9383
5047.00,0.9424
5046.00,0.9465
5045.00,0.9507
5044.00,0.9549
5043.00,0.9591
5042.00,0.9633
5041.00,0.9676
5040.00,0.9719
5039.00,0.9763
5038.00,0.9808
5037.00,0.9856
5036.00,0.9903
5035.00,0.9951
5034.00,0.9998
5033.00,1.0045
5032.00,1.0093
5031.00,1.0140
5030.00,1.0189
5029.00,1.0238
5028.00,1.0288
5027.00,1.0338
5026.00,1.0388
5025.00,1.0438
5024.00,1.0489
5023.00,1.0540
5022.00,1.0592
5021.00,1.0644
5020.00,1.0697
5019.00,1.0748
5018.00,1.0799
5017.00,1.0849
5016.00,1.0901
5015.00,1.0953
5014.00,1.1007
5013.00,1.1060
5012.00,1.1113
5011.00,1.1166
5010.00,1.1219
5009.00,1.1272
5008.00,1.1326
5007.00,1.1380
5006.00,1.1434
5005.00,1.1487
5004.00,1.1540
5003.00,1.1592
5002.00,1.1644
5001.00,1.1696
5000.00,1.1748
4999.00,1.1800
4998.00,1.1853
4997.00,1.1906
4996.00,1.1959
4995.00,1.2011
4994.00,1.2064
4993.00,1.2115
4992.00,1.2166
4991.00,1.2216
4990.00,1.2265
4989.00,1.2314
4988.00,1.2363
4987.00,1.2412
4986.00,1.2461
4985.00,1.2509
4984.00,1.2556
4983.00,1.2602
4982.00,1.2647
4981.00,1.2692
4980.00,1.2736
4979.00,1.2781
4978.00,1.2825
4977.00,1.2869
4976.00,1.2914
4975.00,1.2958
4974.00,1.3002
4973.00,1.3045
4972.00,1.3088
4971.00,1.3129
4970.00,1.3169
4969.00,1.3208
4968.00,1.3245
4967.00,1.3282
4966.00,1.3320
4965.00,1.3358
4964.00,1.3395
4963.00,1.3430
4962.00,1.3465
4961.00,1.3499
4960.00,1.3532
4959.00,1.3565
4958.00,1.3597
4957.00,1.3628
4956.00,1.3659
4955.00,1.3690
4954.00,1.3722
4953.00,1.3754
4952.00,1.3785
4951.00,1.3814
4950.00,1.3842
4949.00,1.3869
4948.00,1.3894
4947.00,1.3917
4946.00,1.3941
4945.00,1.3965
4944.00,1.3990
4943.00,1.4014
4942.00,1.4037
4941.00,1.4059
4940.00,1.4079
4939.00,1.4099
4938.00,1.4118
4937.00,1.4136
4936.00,1.4154
4935.00,1.4171
4934.00,1.4189
4933.00,1.4209
4932.00,1.4229
4931.00,1.4248
4930.00,1.4265
4929.00,1.4281
4928.00,1.4296
4927.00,1.4309
4926.00,1.4320
4925.00,1.4331
4924.00,1.4340
4923.00,1.4349
4922.00,1.4358
4921.00,1.4367
4920.00,1.4377
4919.00,1.4388
4918.00,1.4398
4917.00,1.4408
4916.00,1.4415
4915.00,1.4419
4914.00,1.4422
4913.00,1.4424
4912.00,1.4426
4911.00,1.4430
4910.00,1.4435
4909.00,1.4439
4908.00,1.4442
4907.00,1.4443
4906.00,1.4443
4905.00,1.4441
4904.00,1.4438
4903.00,1.4435
4902.00,1.4432
4901.00,1.4430
4900.00,1.4429
4899.00,1.4428
4898.00,1.4426
4897.00,1.4421
4896.00,1.4414
4895.00,1.4405
4894.00,1.4396
4893.00,1.4387
4892.00,1.4379
4891.00,1.4370
4890.00,1.4360
4889.00,1.4351
4888.00,1.4341
4887.00,1.4332
4886.00,1.4322
4885.00,1.4310
4884.00,1.4294
4883.00,1.4277
4882.00,1.4260
4881.00,1.4244
4880.00,1.4227
4879.00,1.4211
4878.00,1.4194
4877.00,1.4177
4876.00,1.4158
4875.00,1.4139
4874.00,1.4118
4873.00,1.4097
4872.00,1.4075
4871.00,1.4053
4870.00,1.4031
4869.00,1.4008
4868.00,1.3983
4867.00,1.3958
4866.00,1.3933
4865.00,1.3908
4864.00,1.3882
4863.00,1.3855
4862.00,1.3826
4861.00,1.3795
4860.00,1.3765
4859.00,1.3734
4858.00,1.3703
4857.00,1.3672
4856.00,1.3641
4855.00,1.3608
4854.00,1.3574
4853.00,1.3540
4852.00,1.3506
4851.00,1.3471
4850.00,1.3436
4849.00,1.3401
4848.00,1.3365
4847.00,1.3327
4846.00,1.3288
4845.00,1.3249
4844.00,1.3209
4843.00,1.3169
4842.00,1.3128
4841.00,1.3085
4840.00,1.3042
4839.00,1.2998
4838.00,1.2953
4837.00,1.2909
4836.00,1.2866
4835.00,1.2822
4834.00,1.2777
4833.00,1.2731
4832.00,1.2684
4831.00,1.2636
4830.00,1.2588
4829.00,1.2541
4828.00,1.2494
4827.00,1.2448
4826.00,1.2400
4825.00,1.2351
4824.00,1.2301
4823.00,1.2250
4822.00,1.2200
4821.00,1.2150
4820.00,1.2100
4819.00,1.2049
4818.00,1.1997
4817.00,1.1944
4816.00,1.1891
4815.00,1.1838
4814.00,1.1785
4813.00,1.1732
4812.00,1.1678
4811.00,1.1624
4810.00,1.1570
4809.00,1.1517
4808.00,1.1464
4807.00,1.1411
4806.00,1.1359
4805.00,1.1307
4804.00,1.1254
4803.00,1.1201
4802.00,1.1147
4801.00,1.1094
4800.00,1.1042
4799.00,1.0990
4798.00,1.0939
4797.00,1.0888
4796.00,1.0836
4795.00,1.0785
4794.00,1.0733
4793.00,1.0682
4792.00,1.0632
4791.00,1.0582
4790.00,1.0532
4789.00,1.0482
4788.00,1.0433
4787.00,1.0384
4786.00,1.0335
4785.00,1.0287
4784.00,1.0238
4783.00,1.0190
4782.00,1.0143
4781.00,1.0097
4780.00,1.0051
4779.00,1.0005
4778.00,0.9959
4777.00,0.9914
4776.00,0.9869
4775.00,0.9825
4774.00,0.9782
4773.00,0.9739
4772.00,0.9697
4771.00,0.9655
4770.00,0.9613
4769.00,0.9572
4768.00,0.9530
4767.00,0.9489
4766.00,0.9449
4765.00,0.9409
4764.00,0.9370
4763.00,0.9332
4762.00,0.9294
4761.00,0.9257
4760.00,0.9220
4759.00,0.9183
4758.00,0.9147
4757.00,0.9112
4756.00,0.9077
4755.00,0.9042
4754.00,0.9008
4753.00,0.8974
4752.00,0.8942
4751.00,0.8909
4750.00,0.8878
4749.00,0.8847
4748.00,0.8817
4747.00,0.8786
4746.00,0.8757
4745.00,0.8728
4744.00,0.8700
4743.00,0.8672
4742.00,0.8645
4741.00,0.8618
4740.00,0.8592
4739.00,0.8567
4738.00,0.8542
4737.00,0.8518
4736.00,0.8495
4735.00,0.8472
4734.00,0.8450
4733.00,0.8429
4732.00,0.8408
4731.00,0.8388
4730.00,0.8369
4729.00,0.8351
4728.00,0.8334
4727.00,0.8318
4726.00,0.8303
4725.00,0.8289
4724.00,0.8275
4723.00,0.8261
4722.00,0.8249
4721.00,0.8239
4720.00,0.8229
4719.00,0.8219
4718.00,0.8211
4717.00,0.8203
4716.00,0.8197
4715.00,0.8192
4714.00,0.8188
4713.00,0.8184
4712.00,0.8182
4711.00,0.8180
4710.00,0.8180
4709.00,0.8181
4708.00,0.8184
4707.00,0.8187
4706.00,0.8191
4705.00,0.8196
4704.00,0.8202
4703.00,0.8209
4702.00,0.8218
4701.00,0.8228
4700.00,0.8239
4699.00,0.8251
4698.00,0.8265
4697.00,0.8280
4696.00,0.8297
4695.00,0.8316
4694.00,0.8336
4693.00,0.8358
4692.00,0.8380
4691.00,0.8404
4690.00,0.8428
4689.00,0.8454
4688.00,0.8480
4687.00,0.8507
4686.00,0.8535
4685.00,0.8564
4684.00,0.8593
4683.00,0.8622
4682.00,0.8652
4681.00,0.8682
4680.00,0.8713
4679.00,0.8745
4678.00,0.8778
4677.00,0.8811
4676.00,0.8845
4675.00,0.8879
4674.00,0.8913
4673.00,0.8947
4672.00,0.8983
4671.00,0.9019
4670.00,0.9056
4669.00,0.9094
4668.00,0.9132
4667.00,0.9170
4666.00,0.9208
4665.00,0.9247
4664.00,0.9287
4663.00,0.9327
4662.00,0.9368
4661.00,0.9411
4660.00,0.9454
4659.00,0.9497
4658.00,0.9541
4657.00,0.9586
4656.00,0.9632
4655.00,0.9678
4654.00,0.9725
4653.00,0.9774
4652.00,0.9822
4651.00,0.9872
4650.00,0.9924
4649.00,0.9976
4648.00,1.0028
4647.00,1.0081
4646.00,1.0134
4645.00,1.0188
4644.00,1.0242
4643.00,1.0298
4642.00,1.0354
4641.00,1.0410
4640.00,1.0467
4639.00,1.0524
4638.00,1.0582
4637.00,1.0641
4636.00,1.0701
4635.00,1.0761
4634.00,1.0821
4633.00,1.0883
4632.00,1.0944
4631.00,1.1006
4630.00,1.1068
4629.00,1.1130
4628.00,1.1191
4627.00,1.1253
4626.00,1.1315
4625.00,1.1377
4624.00,1.1439
4623.00,1.1502
4622.00,1.1565
4621.00,1.1628
4620.00,1.1691
4619.00,1.1754
4618.00,1.1817
4617.00,1.1881
4616.00,1.1945
4615.00,1.2009
4614.00,1.2073
4613.00,1.2136
4612.00,1.2199
4611.00,1.2260
4610.00,1.2320
4609.00,1.2381
4608.00,1.2441
4607.00,1.2502
4606.00,1.2563
4605.00,1.2625
4604.00,1.2686
4603.00,1.2746
4602.00,1.2805
4601.00,1.2862
4600.00,1.2918
4599.00,1.2973
4598.00,1.3029
4597.00,1.3085
4596.00,1.3141
4595.00,1.3196
4594.00,1.3251
4593.00,1.3305
4592.00,1.3357
4591.00,1.3409
4590.00,1.3461
4589.00,1.3513
4588.00,1.3565
4587.00,1.3617
4586.00,1.3668
4585.00,1.3718
4584.00,1.3767
4583.00,1.3816
4582.00,1.3864
4581.00,1.3911
4580.00,1.3958
4579.00,1.4004
4578.00,1.4049
4577.00,1.4093
4576.00,1.4134
4575.00,1.4176
4574.00,1.4218
4573.00,1.4261
4572.00,1.4305
4571.00,1.4348
4570.00,1.4388
4569.00,1.4425
4568.00,1.4461
4567.00,1.4497
4566.00,1.4533
4565.00,1.4569
4564.00,1.4604
4563.00,1.4638
4562.00,1.4672
4561.00,1.4705
4560.00,1.4738
4559.00,1.4769
4558.00,1.4799
4557.00,1.4828
4556.00,1.4857
4555.00,1.4885
4554.00,1.4914
4553.00,1.4941
4552.00,1.4969
4551.00,1.4995
4550.00,1.5021
4549.00,1.5046
4548.00,1.5069
4547.00,1.5091
4546.00,1.5114
4545.00,1.5135
4544.00,1.5157
4543.00,1.5177
4542.00,1.5197
4541.00,1.5216
4540.00,1.5235
4539.00,1.5254
4538.00,1.5272
4537.00,1.5289
4536.00,1.5306
4535.00,1.5320
4534.00,1.5334
4533.00,1.5347
4532.00,1.5360
4531.00,1.5374
4530.00,1.5388
4529.00,1.5403
4528.00,1.5416
4527.00,1.5426
4526.00,1.5435
4525.00,1.5442
4524.00,1.5450
4523.00,1.5458
4522.00,1.5466
4521.00,1.5475
4520.00,1.5482
4519.00,1.5487
4518.00,1.5489
4517.00,1.5490
4516.00,1.5490
4515.00,1.5493
4514.00,1.5496
4513.00,1.5500
4512.00,1.5502
4511.00,1.5501
4510.00,1.5500
4509.00,1.5498
4508.00,1.5495
4507.00,1.5491
4506.00,1.5487
4505.00,1.5482
4504.00,1.5479
4503.00,1.5476
4502.00,1.5474
4501.00,1.5469
4500.00,1.5462
4499.00,1.5451
4498.00,1.5440
4497.00,1.5429
4496.00,1.5419
4495.00,1.5409
4494.00,1.5399
4493.00,1.5388
4492.00,1.5377
4491.00,1.5367
4490.00,1.5358
4489.00,1.5347
4488.00,1.5333
4487.00,1.5316
4486.00,1.5297
4485.00,1.5279
4484.00,1.5261
4483.00,1.5243
4482.00,1.5224
4481.00,1.5204
4480.00,1.5181
4479.00,1.5159
4478.00,1.5137
4477.00,1.5116
4476.00,1.5095
4475.00,1.5072
4474.00,1.5047
4473.00,1.5021
4472.00,1.4995
4471.00,1.4970
4470.00,1.4945
4469.00,1.4919
4468.00,1.4892
4467.00,1.4862
4466.00,1.4830
4465.00,1.4798
4464.00,1.4765
4463.00,1.4732
4462.00,1.4699
4461.00,1.4665
4460.00,1.4631
4459.00,1.4595
4458.00,1.4557
4457.00,1.4520
4456.00,1.4483
4455.00,1.4445
4454.00,1.4406
4453.00,1.4366
4452.00,1.4323
4451.00,1.4280
4450.00,1.4236
4449.00,1.4192
4448.00,1.4149
4447.00,1.4104
4446.00,1.4058
4445.00,1.4012
4444.00,1.3963
4443.00,1.3914
4442.00,1.3865
4441.00,1.3817
4440.00,1.3769
4439.00,1.3721
4438.00,1.3671
4437.00,1.3620
4436.00,1.3568
4435.00,1.3516
4434.00,1.3462
4433.00,1.3407
4432.00,1.3351
4431.00,1.3294
4430.00,1.3237
4429.00,1.3181
4428.00,1.3126
4427.00,1.3070
4426.00,1.3014
4425.00,1.2956
4424.00,1.2897
4423.00,1.2837
4422.00,1.2778
4421.00,1.2719
4420.00,1.2661
4419.00,1.2601
4418.00,1.2541
4417.00,1.2480
4416.00,1.2419
4415.00,1.2358
4414.00,1.2298
4413.00,1.2239
4412.00,1.2181
4411.00,1.2122
4410.00,1.2062
4409.00,1.2002
4408.00,1.1942
4407.00,1.1882
4406.00,1.1823
4405.00,1.1764
4404.00,1.1704
4403.00,1.1646
4402.00,1.1588
4401.00,1.1530
4400.00,1.1474
4399.00,1.1418
4398.00,1.1362
4397.00,1.1307
4396.00,1.1252
4395.00,1.1198
4394.00,1.1144
4393.00,1.1091
4392.00,1.1038
4391.00,1.0986
4390.00,1.0936
4389.00,1.0886
4388.00,1.0838
4387.00,1.0790
4386.00,1.0743
4385.00,1.0696
4384.00,1.0649
4383.00,1.0603
4382.00,1.0558
4381.00,1.0513
4380.00,1.0469
4379.00,1.0425
4378.00,1.0381
4377.00,1.0338
4376.00,1.0296
4375.00,1.0255
4374.00,1.0214
4373.00,1.0172
4372.00,1.0130
4371.00,1.0088
4370.00,1.0047
4369.00,1.0006
4368.00,0.9966
4367.00,0.9926
4366.00,0.9886
4365.00,0.9846
4364.00,0.9805
4363.00,0.9764
4362.00,0.9722
4361.00,0.9680
4360.00,0.9639
4359.00,0.9598
4358.00,0.9556
4357.00,0.9515
4356.00,0.9473
4355.00,0.9433
4354.00,0.9394
4353.00,0.9356
4352.00,0.9318
4351.00,0.9282
4350.00,0.9245
4349.00,0.9209
4348.00,0.9174
4347.00,0.9139
4346.00,0.9106
4345.00,0.9072
4344.00,0.9039
4343.00,0.9007
4342.00,0.8975
4341.00,0.8944
4340.00,0.8913
4339.00,0.8883
4338.00,0.8853
4337.00,0.8824
4336.00,0.8796
4335.00,0.8768
4334.00,0.8742
4333.00,0.8717
4332.00,0.8694
4331.00,0.8673
4330.00,0.8653
4329.00,0.8635
4328.00,0.8619
4327.00,0.8604
4326.00,0.8591
4325.00,0.8580
4324.00,0.8571
4323.00,0.8562
4322.00,0.8556
4321.00,0.8551
4320.00,0.8547
4319.00,0.8546
4318.00,0.8547
4317.00,0.8549
4316.00,0.8552
4315.00,0.8557
4314.00,0.8563
4313.00,0.8570
4312.00,0.8579
4311.00,0.8589
4310.00,0.8600
4309.00,0.8613
4308.00,0.8627
4307.00,0.8642
4306.00,0.8658
4305.00,0.8675
4304.00,0.8694
4303.00,0.8714
4302.00,0.8737
4301.00,0.8760
4300.00,0.8785
4299.00,0.8811
4298.00,0.8839
4297.00,0.8869
4296.00,0.8899
4295.00,0.8931
4294.00,0.8965
4293.00,0.9000
4292.00,0.9036
4291.00,0.9073
4290.00,0.9110
4289.00,0.9149
4288.00,0.9188
4287.00,0.9229
4286.00,0.9271
4285.00,0.9313
4284.00,0.9356
4283.00,0.9399
4282.00,0.9442
4281.00,0.9484
4280.00,0.9527
4279.00,0.9571
4278.00,0.9616
4277.00,0.9661
4276.00,0.9707
4275.00,0.9754
4274.00,0.9801
4273.00,0.9849
4272.00,0.9897
4271.00,0.9946
4270.00,0.9996
4269.00,1.0047
4268.00,1.0099
4267.00,1.0152
4266.00,1.0205
4265.00,1.0259
4264.00,1.0315
4263.00,1.0370
4262.00,1.0426
4261.00,1.0482
4260.00,1.0539
4259.00,1.0598
4258.00,1.0657
4257.00,1.0717
4256.00,1.0778
4255.00,1.0840
4254.00,1.0903
4253.00,1.0967
4252.00,1.1032
4251.00,1.1098
4250.00,1.1165
4249.00,1.1233
4248.00,1.1301
4247.00,1.1370
4246.00,1.1438
4245.00,1.1508
4244.00,1.1579
4243.00,1.1650
4242.00,1.1722
4241.00,1.1795
4240.00,1.1868
4239.00,1.1942
4238.00,1.2016
4237.00,1.2091
4236.00,1.2166
4235.00,1.2241
4234.00,1.2317
4233.00,1.2392
4232.00,1.2467
4231.00,1.2541
4230.00,1.2615
4229.00,1.2689
4228.00,1.2763
4227.00,1.2836
4226.00,1.2910
4225.00,1.2983
4224.00,1.3056
4223.00,1.3130
4222.00,1.3203
4221.00,1.3275
4220.00,1.3346
4219.00,1.3416
4218.00,1.3487
4217.00,1.3556
4216.00,1.3624
4215.00,1.3691
4214.00,1.3756
4213.00,1.3821
4212.00,1.3886
4211.00,1.3951
4210.00,1.4016
4209.00,1.4081
4208.00,1.4144
4207.00,1.4206
4206.00,1.4266
4205.00,1.4326
4204.00,1.4385
4203.00,1.4444
4202.00,1.4502
4201.00,1.4561
4200.00,1.4619
4199.00,1.4676
4198.00,1.4732
4197.00,1.4788
4196.00,1.4843
4195.00,1.4897
4194.00,1.4950
4193.00,1.5002
4192.00,1.5054
4191.00,1.5105
4190.00,1.5157
4189.00,1.5208
4188.00,1.5259
4187.00,1.5310
4186.00,1.5358
4185.00,1.5404
4184.00,1.5447
4183.00,1.5488
4182.00,1.5530
4181.00,1.5572
4180.00,1.5615
4179.00,1.5657
4178.00,1.5698
4177.00,1.5737
4176.00,1.5774
4175.00,1.5811
4174.00,1.5849
4173.00,1.5887
4172.00,1.5924
4171.00,1.5961
4170.00,1.5995
4169.00,1.6028
4168.00,1.6060
4167.00,1.6091
4166.00,1.6121
4165.00,1.6151
4164.00,1.6180
4163.00,1.6211
4162.00,1.6242
4161.00,1.6272
4160.00,1.6302
4159.00,1.6331
4158.00,1.6358
4157.00,1.6382
4156.00,1.6404
4155.00,1.6425
4154.00,1.6446
4153.00,1.6465
4152.00,1.6485
4151.00,1.6507
4150.00,1.6529
4149.00,1.6552
4148.00,1.6573
4147.00,1.6592
4146.00,1.6609
4145.00,1.6625
4144.00,1.6642
4143.00,1.6658
4142.00,1.6674
4141.00,1.6688
4140.00,1.6702
4139.00,1.6714
4138.00,1.6727
4137.00,1.6742
4136.00,1.6757
4135.00,1.6771
4134.00,1.6783
4133.00,1.6791
4132.00,1.6798
4131.00,1.6804
4130.00,1.6811
4129.00,1.6819
4128.00,1.6826
4127.00,1.6832
4126.00,1.6838
4125.00,1.6844
4124.00,1.6849
4123.00,1.6852
4122.00,1.6855
4121.00,1.6857
4120.00,1.6860
4119.00,1.6862
4118.00,1.6862
4117.00,1.6860
4116.00,1.6856
4115.00,1.6852
4114.00,1.6850
4113.00,1.6849
4112.00,1.6846
4111.00,1.6842
4110.00,1.6836
4109.00,1.6829
4108.00,1.6822
4107.00,1.6815
4106.00,1.6809
4105.00,1.6804
4104.00,1.6797
4103.00,1.6788
4102.00,1.6776
4101.00,1.6764
4100.00,1.6753
4099.00,1.6743
4098.00,1.6733
4097.00,1.6721
4096.00,1.6707
4095.00,1.6691
4094.00,1.6675
4093.00,1.6658
4092.00,1.6640
4091.00,1.6623
4090.00,1.6606
4089.00,1.6589
4088.00,1.6570
4087.00,1.6547
4086.00,1.6523
4085.00,1.6499
4084.00,1.6478
4083.00,1.6458
4082.00,1.6437
4081.00,1.6415
4080.00,1.6390
4079.00,1.6365
4078.00,1.6340
4077.00,1.6314
4076.00,1.6287
4075.00,1.6259
4074.00,1.6229
4073.00,1.6196
4072.00,1.6163
4071.00,1.6129
4070.00,1.6096
4069.00,1.6062
4068.00,1.6028
4067.00,1.5992
4066.00,1.5954
4065.00,1.5915
4064.00,1.5876
4063.00,1.5837
4062.00,1.5799
4061.00,1.5761
4060.00,1.5722
4059.00,1.5682
4058.00,1.5640
4057.00,1.5596
4056.00,1.5551
4055.00,1.5504
4054.00,1.5457
4053.00,1.5409
4052.00,1.5361
4051.00,1.5313
4050.00,1.5264
4049.00,1.5214
4048.00,1.5163
4047.00,1.5112
4046.00,1.5060
4045.00,1.5007
4044.00,1.4953
4043.00,1.4898
4042.00,1.4842
4041.00,1.4785
4040.00,1.4725
4039.00,1.4665
4038.00,1.4604
4037.00,1.4543
4036.00,1.4482
4035.00,1.4420
4034.00,1.4359
4033.00,1.4296
4032.00,1.4231
4031.00,1.4165
4030.00,1.4097
4029.00,1.4029
4028.00,1.3961
4027.00,1.3892
4026.00,1.3823
4025.00,1.3753
4024.00,1.3683
4023.00,1.3613
4022.00,1.3542
4021.00,1.3470
4020.00,1.3398
4019.00,1.3326
4018.00,1.3255
4017.00,1.3183
4016.00,1.3113
4015.00,1.3042
4014.00,1.2970
4013.00,1.2898
4012.00,1.2825
4011.00,1.2751
4010.00,1.2677
4009.00,1.2603
4008.00,1.2530
4007.00,1.2456
4006.00,1.2383
4005.00,1.2309
4004.00,1.2236
4003.00,1.2162
4002.00,1.2090
4001.00,1.2018
4000.00,1.1946
3999.00,1.1874
3998.00,1.1803
3997.00,1.1731
3996.00,1.1660
3995.00,1.1589
3994.00,1.1519
3993.00,1.1451
3992.00,1.1382
3991.00,1.1314
3990.00,1.1247
3989.00,1.1182
3988.00,1.1118
3987.00,1.1055
3986.00,1.0993
3985.00,1.0932
3984.00,1.0871
3983.00,1.0811
3982.00,1.0751
3981.00,1.0692
3980.00,1.0634
3979.00,1.0577
3978.00,1.0522
3977.00,1.0467
3976.00,1.0413
3975.00,1.0359
3974.00,1.0306
3973.00,1.0253
3972.00,1.0201
3971.00,1.0149
3970.00,1.0098
3969.00,1.0047
3968.00,0.9998
3967.00,0.9951
3966.00,0.9905
3965.00,0.9859
3964.00,0.9813
3963.00,0.9768
3962.00,0.9724
3961.00,0.9681
3960.00,0.9639
3959.00,0.9599
3958.00,0.9559
3957.00,0.9521
3956.00,0.9484
3955.00,0.9448
3954.00,0.9414
3953.00,0.9380
3952.00,0.9345
3951.00,0.9311
3950.00,0.9276
3949.00,0.9241
3948.00,0.9207
3947.00,0.9174
3946.00,0.9143
3945.00,0.9113
3944.00,0.9083
3943.00,0.9053
3942.00,0.9024
3941.00,0.8995
3940.00,0.8969
3939.00,0.8946
3938.00,0.8925
3937.00,0.8907
3936.00,0.8890
3935.00,0.8874
3934.00,0.8858
3933.00,0.8841
3932.00,0.8824
3931.00,0.8808
3930.00,0.8795
3929.00,0.8786
3928.00,0.8780
3927.00,0.8778
3926.00,0.8776
3925.00,0.8775
3924.00,0.8775
3923.00,0.8776
3922.00,0.8780
3921.00,0.8786
3920.00,0.8794
3919.00,0.8804
3918.00,0.8814
3917.00,0.8825
3916.00,0.8837
3915.00,0.8852
3914.00,0.8870
3913.00,0.8893
3912.00,0.8919
3911.00,0.8948
3910.00,0.8977
3909.00,0.9009
3908.00,0.9041
3907.00,0.9075
3906.00,0.9111
3905.00,0.9146
3904.00,0.9180
3903.00,0.9213
3902.00,0.9246
3901.00,0.9280
3900.00,0.9317
3899.00,0.9359
3898.00,0.9404
3897.00,0.9454
3896.00,0.9505
3895.00,0.9559
3894.00,0.9615
3893.00,0.9672
3892.00,0.9730
3891.00,0.9789
3890.00,0.9848
3889.00,0.9906
3888.00,0.9962
3887.00,1.0019
3886.00,1.0080
3885.00,1.0145
3884.00,1.0211
3883.00,1.0274
3882.00,1.0334
3881.00,1.0398
3880.00,1.0468
3879.00,1.0543
3878.00,1.0619
3877.00,1.0691
3876.00,1.0761
3875.00,1.0832
3874.00,1.0907
3873.00,1.0984
3872.00,1.1060
3871.00,1.1135
3870.00,1.1215
3869.00,1.1301
3868.00,1.1388
3867.00,1.1470
3866.00,1.1547
3865.00,1.1626
3864.00,1.1712
3863.00,1.1801
3862.00,1.1892
3861.00,1.1981
3860.00,1.2071
3859.00,1.2158
3858.00,1.2243
3857.00,1.2323
3856.00,1.2400
3855.00,1.2480
3854.00,1.2570
3853.00,1.2677
3852.00,1.2792
3851.00,1.2901
3850.00,1.2997
3849.00,1.3084
3848.00,1.3169
3847.00,1.3253
3846.00,1.3336
3845.00,1.3420
3844.00,1.3505
3843.00,1.3592
3842.00,1.3680
3841.00,1.3768
3840.00,1.3856
3839.00,1.3945
3838.00,1.4037
3837.00,1.4132
3836.00,1.4226
3835.00,1.4315
3834.00,1.4399
3833.00,1.4481
3832.00,1.4563
3831.00,1.4647
3830.00,1.4733
3829.00,1.4817
3828.00,1.4899
3827.00,1.4980
3826.00,1.5059
3825.00,1.5137
3824.00,1.5212
3823.00,1.5282
3822.00,1.5353
3821.00,1.5428
3820.00,1.5508
3819.00,1.5587
3818.00,1.5659
3817.00,1.5727
3816.00,1.5797
3815.00,1.5869
3814.00,1.5940
3813.00,1.6005
3812.00,1.6068
3811.00,1.6131
3810.00,1.6195
3809.00,1.6258
3808.00,1.6318
3807.00,1.6378
3806.00,1.6437
3805.00,1.6495
3804.00,1.6549
3803.00,1.6600
3802.00,1.6655
3801.00,1.6714
3800.00,1.6774
3799.00,1.6826
3798.00,1.6871
3797.00,1.6915
3796.00,1.6961
3795.00,1.7011
3794.00,1.7062
3793.00,1.7111
3792.00,1.7159
3791.00,1.7204
3790.00,1.7249
3789.00,1.7293
3788.00,1.7336
3787.00,1.7378
3786.00,1.7417
3785.00,1.7455
3784.00,1.7493
3783.00,1.7532
3782.00,1.7571
3781.00,1.7608
3780.00,1.7642
3779.00,1.7676
3778.00,1.7711
3777.00,1.7748
3776.00,1.7786
3775.00,1.7823
3774.00,1.7860
3773.00,1.7894
3772.00,1.7923
3771.00,1.7947
3770.00,1.7968
3769.00,1.7990
3768.00,1.8012
3767.00,1.8037
3766.00,1.8062
3765.00,1.8091
3764.00,1.8121
3763.00,1.8150
3762.00,1.8175
3761.00,1.8199
3760.00,1.8222
3759.00,1.8243
3758.00,1.8263
3757.00,1.8282
3756.00,1.8301
3755.00,1.8319
3754.00,1.8338
3753.00,1.8358
3752.00,1.8379
3751.00,1.8398
3750.00,1.8413
3749.00,1.8423
3748.00,1.8430
3747.00,1.8437
3746.00,1.8446
3745.00,1.8457
3744.00,1.8470
3743.00,1.8484
3742.00,1.8494
3741.00,1.8503
3740.00,1.8515
3739.00,1.8531
3738.00,1.8546
3737.00,1.8555
3736.00,1.8559
3735.00,1.8562
3734.00,1.8570
3733.00,1.8582
3732.00,1.8595
3731.00,1.8607
3730.00,1.8617
3729.00,1.8622
3728.00,1.8624
3727.00,1.8626
3726.00,1.8630
3725.00,1.8636
3724.00,1.8640
3723.00,1.8642
3722.00,1.8640
3721.00,1.8637
3720.00,1.8632
3719.00,1.8627
3718.00,1.8621
3717.00,1.8613
3716.00,1.8604
3715.00,1.8594
3714.00,1.8585
3713.00,1.8575
3712.00,1.8562
3711.00,1.8545
3710.00,1.8527
3709.00,1.8514
3708.00,1.8507
3707.00,1.8505
3706.00,1.8504
3705.00,1.8500
3704.00,1.8492
3703.00,1.8478
3702.00,1.8462
3701.00,1.8442
3700.00,1.8422
3699.00,1.8400
3698.00,1.8378
3697.00,1.8358
3696.00,1.8341
3695.00,1.8324
3694.00,1.8306
3693.00,1.8286
3692.00,1.8265
3691.00,1.8244
3690.00,1.8223
3689.00,1.8197
3688.00,1.8163
3687.00,1.8124
3686.00,1.8082
3685.00,1.8044
3684.00,1.8013
3683.00,1.7989
3682.00,1.7967
3681.00,1.7942
3680.00,1.7914
3679.00,1.7884
3678.00,1.7854
3677.00,1.7821
3676.00,1.7781
3675.00,1.7736
3674.00,1.7691
3673.00,1.7645
3672.00,1.7599
3671.00,1.7553
3670.00,1.7511
3669.00,1.7470
3668.00,1.7426
3667.00,1.7378
3666.00,1.7331
3665.00,1.7286
3664.00,1.7245
3663.00,1.7204
3662.00,1.7162
3661.00,1.7116
3660.00,1.7067
3659.00,1.7017
3658.00,1.6964
3657.00,1.6910
3656.00,1.6855
3655.00,1.6799
3654.00,1.6743
3653.00,1.6685
3652.00,1.6625
3651.00,1.6565
3650.00,1.6504
3649.00,1.6441
3648.00,1.6373
3647.00,1.6301
3646.00,1.6231
3645.00,1.6164
3644.00,1.6099
3643.00,1.6037
3642.00,1.5975
3641.00,1.5913
3640.00,1.5851
3639.00,1.5787
3638.00,1.5723
3637.00,1.5656
3636.00,1.5585
3635.00,1.5513
3634.00,1.5440
3633.00,1.5369
3632.00,1.5298
3631.00,1.5225
3630.00,1.5148
3629.00,1.5072
3628.00,1.4996
3627.00,1.4919
3626.00,1.4839
3625.00,1.4758
3624.00,1.4680
3623.00,1.4605
3622.00,1.4531
3621.00,1.4453
3620.00,1.4373
3619.00,1.4290
3618.00,1.4207
3617.00,1.4123
3616.00,1.4037
3615.00,1.3950
3614.00,1.3865
3613.00,1.3783
3612.00,1.3704
3611.00,1.3624
3610.00,1.3542
3609.00,1.3460
3608.00,1.3379
3607.00,1.3302
3606.00,1.3227
3605.00,1.3153
3604.00,1.3080
3603.00,1.3007
3602.00,1.2935
3601.00,1.2862
3600.00,1.2788
3599.00,1.2713
3598.00,1.2638
3597.00,1.2562
3596.00,1.2487
3595.00,1.2412
3594.00,1.2338
3593.00,1.2266
3592.00,1.2196
3591.00,1.2126
3590.00,1.2057
3589.00,1.1985
3588.00,1.1912
3587.00,1.1839
3586.00,1.1768
3585.00,1.1701
3584.00,1.1638
3583.00,1.1578
3582.00,1.1521
3581.00,1.1465
3580.00,1.1408
3579.00,1.1351
3578.00,1.1294
3577.00,1.1238
3576.00,1.1182
3575.00,1.1127
3574.00,1.1072
3573.00,1.1019
3572.00,1.0967
3571.00,1.0917
3570.00,1.0868
3569.00,1.0818
3568.00,1.0766
3567.00,1.0711
3566.00,1.0658
3565.00,1.0608
3564.00,1.0564
3563.00,1.0526
3562.00,1.0491
3561.00,1.0457
3560.00,1.0425
3559.00,1.0393
3558.00,1.0363
3557.00,1.0333
3556.00,1.0305
3555.00,1.0279
3554.00,1.0253
3553.00,1.0228
3552.00,1.0205
3551.00,1.0183
3550.00,1.0163
3549.00,1.0146
3548.00,1.0131
3547.00,1.0116
3546.00,1.0103
3545.00,1.0092
3544.00,1.0085
3543.00,1.0081
3542.00,1.0080
3541.00,1.0083
3540.00,1.0088
3539.00,1.0095
3538.00,1.0104
3537.00,1.0114
3536.00,1.0125
3535.00,1.0138
3534.00,1.0154
3533.00,1.0172
3532.00,1.0192
3531.00,1.0215
3530.00,1.0239
3529.00,1.0264
3528.00,1.0291
3527.00,1.0319
3526.00,1.0348
3525.00,1.0380
3524.00,1.0414
3523.00,1.0451
3522.00,1.0490
3521.00,1.0532
3520.00,1.0574
3519.00,1.0617
3518.00,1.0662
3517.00,1.0708
3516.00,1.0757
3515.00,1.0806
3514.00,1.0857
3513.00,1.0909
3512.00,1.0962
3511.00,1.1016
3510.00,1.1072
3509.00,1.1129
3508.00,1.1187
3507.00,1.1246
3506.00,1.1306
3505.00,1.1368
3504.00,1.1431
3503.00,1.1496
3502.00,1.1564
3501.00,1.1634
3500.00,1.1706
3499.00,1.1779
3498.00,1.1853
3497.00,1.1928
3496.00,1.2003
3495.00,1.2081
3494.00,1.2160
3493.00,1.2241
3492.00,1.2324
3491.00,1.2408
3490.00,1.2492
3489.00,1.2578
3488.00,1.2665
3487.00,1.2754
3486.00,1.2844
3485.00,1.2935
3484.00,1.3027
3483.00,1.3120
3482.00,1.3214
3481.00,1.3309
3480.00,1.3406
3479.00,1.3503
3478.00,1.3601
3477.00,1.3698
3476.00,1.3796
3475.00,1.3896
3474.00,1.3996
3473.00,1.4097
3472.00,1.4198
3471.00,1.4299
3470.00,1.4400
3469.00,1.4501
3468.00,1.4603
3467.00,1.4705
3466.00,1.4807
3465.00,1.4908
3464.00,1.5009
3463.00,1.5109
3462.00,1.5210
3461.00,1.5311
3460.00,1.5412
3459.00,1.5513
3458.00,1.5612
3457.00,1.5710
3456.00,1.5808
3455.00,1.5905
3454.00,1.6003
3453.00,1.6098
3452.00,1.6191
3451.00,1.6280
3450.00,1.6366
3449.00,1.6453
3448.00,1.6542
3447.00,1.6631
3446.00,1.6720
3445.00,1.6808
3444.00,1.6894
3443.00,1.6979
3442.00,1.7063
3441.00,1.7147
3440.00,1.7230
3439.00,1.7311
3438.00,1.7389
3437.00,1.7464
3436.00,1.7535
3435.00,1.7605
3434.00,1.7677
3433.00,1.7751
3432.00,1.7826
3431.00,1.7900
3430.00,1.7970
3429.00,1.8038
3428.00,1.8106
3427.00,1.8174
3426.00,1.8243
3425.00,1.8312
3424.00,1.8380
3423.00,1.8445
3422.00,1.8506
3421.00,1.8565
3420.00,1.8622
3419.00,1.8680
3418.00,1.8739
3417.00,1.8799
3416.00,1.8855
3415.00,1.8907
3414.00,1.8954
3413.00,1.8997
3412.00,1.9036
3411.00,1.9074
3410.00,1.9114
3409.00,1.9154
3408.00,1.9194
3407.00,1.9233
3406.00,1.9270
3405.00,1.9305
3404.00,1.9338
3403.00,1.9366
3402.00,1.9392
3401.00,1.9415
3400.00,1.9439
3399.00,1.9466
3398.00,1.9497
3397.00,1.9529
3396.00,1.9562
3395.00,1.9592
3394.00,1.9620
3393.00,1.9648
3392.00,1.9676
3391.00,1.9703
3390.00,1.9730
3389.00,1.9758
3388.00,1.9787
3387.00,1.9817
3386.00,1.9845
3385.00,1.9871
3384.00,1.9898
3383.00,1.9928
3382.00,1.9960
3381.00,1.9993
3380.00,2.0024
3379.00,2.0051
3378.00,2.0073
3377.00,2.0094
3376.00,2.0116
3375.00,2.0139
3374.00,2.0161
3373.00,2.0181
3372.00,2.0200
3371.00,2.0217
3370.00,2.0236
3369.00,2.0256
3368.00,2.0279
3367.00,2.0303
3366.00,2.0327
3365.00,2.0349
3364.00,2.0369
3363.00,2.0387
3362.00,2.0401
3361.00,2.0410
3360.00,2.0416
3359.00,2.0422
3358.00,2.0430
3357.00,2.0440
3356.00,2.0451
3355.00,2.0463
3354.00,2.0476
3353.00,2.0489
3352.00,2.0499
3351.00,2.0504
3350.00,2.0507
3349.00,2.0511
3348.00,2.0518
3347.00,2.0526
3346.00,2.0533
3345.00,2.0539
3344.00,2.0543
3343.00,2.0547
3342.00,2.0547
3341.00,2.0546
3340.00,2.0543
3339.00,2.0542
3338.00,2.0542
3337.00,2.0542
3336.00,2.0542
3335.00,2.0542
3334.00,2.0540
3333.00,2.0536
3332.00,2.0531
3331.00,2.0523
3330.00,2.0514
3329.00,2.0504
3328.00,2.0495
3327.00,2.0488
3326.00,2.0483
3325.00,2.0480
3324.00,2.0477
3323.00,2.0472
3322.00,2.0464
3321.00,2.0453
3320.00,2.0440
3319.00,2.0428
3318.00,2.0418
3317.00,2.0406
3316.00,2.0392
3315.00,2.0377
3314.00,2.0363
3313.00,2.0350
3312.00,2.0336
3311.00,2.0318
3310.00,2.0295
3309.00,2.0270
3308.00,2.0247
3307.00,2.0227
3306.00,2.0208
3305.00,2.0189
3304.00,2.0169
3303.00,2.0146
3302.00,2.0120
3301.00,2.0092
3300.00,2.0063
3299.00,2.0033
3298.00,2.0005
3297.00,1.9980
3296.00,1.9955
3295.00,1.9928
3294.00,1.9897
3293.00,1.9863
3292.00,1.9829
3291.00,1.9797
3290.00,1.9767
3289.00,1.9737
3288.00,1.9706
3287.00,1.9671
3286.00,1.9634
3285.00,1.9595
3284.00,1.9555
3283.00,1.9514
3282.00,1.9470
3281.00,1.9426
3280.00,1.9381
3279.00,1.9338
3278.00,1.9296
3277.00,1.9254
3276.00,1.9212
3275.00,1.9167
3274.00,1.9119
3273.00,1.9069
3272.00,1.9019
3271.00,1.8969
3270.00,1.8919
3269.00,1.8865
3268.00,1.8809
3267.00,1.8752
3266.00,1.8697
3265.00,1.8642
3264.00,1.8584
3263.00,1.8524
3262.00,1.8461
3261.00,1.8398
3260.00,1.8332
3259.00,1.8266
3258.00,1.8200
3257.00,1.8135
3256.00,1.8070
3255.00,1.8002
3254.00,1.7930
3253.00,1.7856
3252.00,1.7781
3251.00,1.7705
3250.00,1.7629
3249.00,1.7551
3248.00,1.7471
3247.00,1.7391
3246.00,1.7310
3245.00,1.7228
3244.00,1.7144
3243.00,1.7059
3242.00,1.6973
3241.00,1.6886
3240.00,1.6797
3239.00,1.6706
3238.00,1.6613
3237.00,1.6520
3236.00,1.6426
3235.00,1.6333
3234.00,1.6238
3233.00,1.6142
3232.00,1.6044
3231.00,1.5945
3230.00,1.5844
3229.00,1.5744
3228.00,1.5644
3227.00,1.5543
3226.00,1.5440
3225.00,1.5337
3224.00,1.5232
3223.00,1.5126
3222.00,1.5022
3221.00,1.4918
3220.00,1.4815
3219.00,1.4712
3218.00,1.4608
3217.00,1.4505
3216.00,1.4402
3215.00,1.4300
3214.00,1.4198
3213.00,1.4096
3212.00,1.3994
3211.00,1.3893
3210.00,1.3794
3209.00,1.3696
3208.00,1.3600
3207.00,1.3504
3206.00,1.3408
3205.00,1.3313
3204.00,1.3220
3203.00,1.3129
3202.00,1.3038
3201.00,1.2949
3200.00,1.2862
3199.00,1.2777
3198.00,1.2693
3197.00,1.2610
3196.00,1.2528
3195.00,1.2447
3194.00,1.2368
3193.00,1.2291
3192.00,1.2216
3191.00,1.2143
3190.00,1.2070
3189.00,1.1999
3188.00,1.1929
3187.00,1.1861
3186.00,1.1793
3185.00,1.1727
3184.00,1.1662
3183.00,1.1600
3182.00,1.1539
3181.00,1.1480
3180.00,1.1422
3179.00,1.1366
3178.00,1.1311
3177.00,1.1258
3176.00,1.1206
3175.00,1.1156
3174.00,1.1108
3173.00,1.1061
3172.00,1.1017
3171.00,1.0975
3170.00,1.0935
3169.00,1.0897
3168.00,1.0861
3167.00,1.0827
3166.00,1.0796
3165.00,1.0767
3164.00,1.0742
3163.00,1.0719
3162.00,1.0699
3161.00,1.0683
3160.00,1.0669
3159.00,1.0659
3158.00,1.0651
3157.00,1.0647
3156.00,1.0647
3155.00,1.0650
3154.00,1.0657
3153.00,1.0667
3152.00,1.0679
3151.00,1.0694
3150.00,1.0713
3149.00,1.0735
3148.00,1.0761
3147.00,1.0790
3146.00,1.0822
3145.00,1.0857
3144.00,1.0894
3143.00,1.0934
3142.00,1.0976
3141.00,1.1022
3140.00,1.1070
3139.00,1.1122
3138.00,1.1176
3137.00,1.1232
3136.00,1.1292
3135.00,1.1353
3134.00,1.1418
3133.00,1.1485
3132.00,1.1555
3131.00,1.1627
3130.00,1.1702
3129.00,1.1779
3128.00,1.1859
3127.00,1.1940
3126.00,1.2023
3125.00,1.2110
3124.00,1.2200
3123.00,1.2293
3122.00,1.2389
3121.00,1.2488
3120.00,1.2589
3119.00,1.2693
3118.00,1.2799
3117.00,1.2907
3116.00,1.3016
3115.00,1.3127
3114.00,1.3238
3113.00,1.3352
3112.00,1.3469
3111.00,1.3588
3110.00,1.3711
3109.00,1.3834
3108.00,1.3959
3107.00,1.4085
3106.00,1.4212
3105.00,1.4340
3104.00,1.4470
3103.00,1.4601
3102.00,1.4734
3101.00,1.4868
3100.00,1.5002
3099.00,1.5137
3098.00,1.5272
3097.00,1.5407
3096.00,1.5542
3095.00,1.5675
3094.00,1.5809
3093.00,1.5942
3092.00,1.6076
3091.00,1.6210
3090.00,1.6344
3089.00,1.6475
3088.00,1.6604
3087.00,1.6732
3086.00,1.6859
3085.00,1.6986
3084.00,1.7111
3083.00,1.7235
3082.00,1.7356
3081.00,1.7476
3080.00,1.7595
3079.00,1.7713
3078.00,1.7828
3077.00,1.7939
3076.00,1.8046
3075.00,1.8151
3074.00,1.8255
3073.00,1.8361
3072.00,1.8468
3071.00,1.8573
3070.00,1.8677
3069.00,1.8779
3068.00,1.8880
3067.00,1.8979
3066.00,1.9076
3065.00,1.9170
3064.00,1.9259
3063.00,1.9342
3062.00,1.9424
3061.00,1.9507
3060.00,1.9592
3059.00,1.9678
3058.00,1.9761
3057.00,1.9839
3056.00,1.9914
3055.00,1.9987
3054.00,2.0059
3053.00,2.0133
3052.00,2.0207
3051.00,2.0280
3050.00,2.0350
3049.00,2.0417
3048.00,2.0484
3047.00,2.0552
3046.00,2.0620
3045.00,2.0686
3044.00,2.0747
3043.00,2.0805
3042.00,2.0863
3041.00,2.0925
3040.00,2.0990
3039.00,2.1053
3038.00,2.1113
3037.00,2.1168
3036.00,2.1221
3035.00,2.1274
3034.00,2.1329
3033.00,2.1384
3032.00,2.1436
3031.00,2.1482
3030.00,2.1527
3029.00,2.1573
3028.00,2.1623
3027.00,2.1670
3026.00,2.1710
3025.00,2.1745
3024.00,2.1779
3023.00,2.1816
3022.00,2.1857
3021.00,2.1901
3020.00,2.1944
3019.00,2.1984
3018.00,2.2020
3017.00,2.2052
3016.00,2.2082
3015.00,2.2108
3014.00,2.2131
3013.00,2.2156
3012.00,2.2185
3011.00,2.2217
3010.00,2.2248
3009.00,2.2272
3008.00,2.2289
3007.00,2.2303
3006.00,2.2318
3005.00,2.2338
3004.00,2.2359
3003.00,2.2379
3002.00,2.2396
3001.00,2.2410
3000.00,2.2420
2999.00,2.2426
2998.00,2.2430
2997.00,2.2435
2996.00,2.2438
2995.00,2.2438
2994.00,2.2436
2993.00,2.2432
2992.00,2.2427
2991.00,2.2420
2990.00,2.2410
2989.00,2.2397
2988.00,2.2379
2987.00,2.2355
2986.00,2.2325
2985.00,2.2295
2984.00,2.2266
2983.00,2.2240
2982.00,2.2214
2981.00,2.2186
2980.00,2.2159
2979.00,2.2137
2978.00,2.2120
2977.00,2.2110
2976.00,2.2111
2975.00,2.2129
2974.00,2.2169
2973.00,2.2232
2972.00,2.2318
2971.00,2.2429
2970.00,2.2570
2969.00,2.2745
2968.00,2.2958
2967.00,2.3207
2966.00,2.3486
2965.00,2.3790
2964.00,2.4111
2963.00,2.4447
2962.00,2.4796
2961.00,2.5150
2960.00,2.5497
2959.00,2.5826
2958.00,2.6135
2957.00,2.6425
2956.00,2.6693
2955.00,2.6936
2954.00,2.7159
2953.00,2.7372
2952.00,2.7591
2951.00,2.7825
2950.00,2.8080
2949.00,2.8357
2948.00,2.8653
2947.00,2.8964
2946.00,2.9283
2945.00,2.9595
2944.00,2.9881
2943.00,3.0133
2942.00,3.0357
2941.00,3.0562
2940.00,3.0737
2939.00,3.0865
2938.00,3.0931
2937.00,3.0939
2936.00,3.0895
2935.00,3.0805
2934.00,3.0673
2933.00,3.0497
2932.00,3.0274
2931.00,3.0001
2930.00,2.9683
2929.00,2.9335
2928.00,2.8968
2927.00,2.8588
2926.00,2.8198
2925.00,2.7807
2924.00,2.7427
2923.00,2.7072
2922.00,2.6758
2921.00,2.6483
2920.00,2.6236
2919.00,2.6004
2918.00,2.5780
2917.00,2.5564
2916.00,2.5365
2915.00,2.5191
2914.00,2.5050
2913.00,2.4941
2912.00,2.4857
2911.00,2.4789
2910.00,2.4730
2909.00,2.4676
2908.00,2.4621
2907.00,2.4566
2906.00,2.4514
2905.00,2.4471
2904.00,2.4436
2903.00,2.4401
2902.00,2.4363
2901.00,2.4323
2900.00,2.4290
2899.00,2.4263
2898.00,2.4235
2897.00,2.4199
2896.00,2.4156
2895.00,2.4116
2894.00,2.4086
2893.00,2.4065
2892.00,2.4045
2891.00,2.4017
2890.00,2.3980
2889.00,2.3936
2888.00,2.3893
2887.00,2.3856
2886.00,2.3827
2885.00,2.3803
2884.00,2.3783
2883.00,2.3770
2882.00,2.3769
2881.00,2.3778
2880.00,2.3793
2879.00,2.3811
2878.00,2.3833
2877.00,2.3864
2876.00,2.3912
2875.00,2.3979
2874.00,2.4071
2873.00,2.4192
2872.00,2.4344
2871.00,2.4531
2870.00,2.4750
2869.00,2.5001
2868.00,2.5274
2867.00,2.5555
2866.00,2.5825
2865.00,2.6060
2864.00,2.6236
2863.00,2.6342
2862.00,2.6384
2861.00,2.6372
2860.00,2.6312
2859.00,2.6204
2858.00,2.6048
2857.00,2.5852
2856.00,2.5627
2855.00,2.5388
2854.00,2.5152
2853.00,2.4926
2852.00,2.4715
2851.00,2.4522
2850.00,2.4349
2849.00,2.4196
2848.00,2.4059
2847.00,2.3931
2846.00,2.3806
2845.00,2.3686
2844.00,2.3574
2843.00,2.3471
2842.00,2.3378
2841.00,2.3291
2840.00,2.3210
2839.00,2.3135
2838.00,2.3063
2837.00,2.2993
2836.00,2.2922
2835.00,2.2850
2834.00,2.2778
2833.00,2.2710
2832.00,2.2646
2831.00,2.2586
2830.00,2.2527
2829.00,2.2467
2828.00,2.2406
2827.00,2.2343
2826.00,2.2281
2825.00,2.2218
2824.00,2.2153
2823.00,2.2086
2822.00,2.2013
2821.00,2.1934
2820.00,2.1849
2819.00,2.1760
2818.00,2.1672
2817.00,2.1582
2816.00,2.1486
2815.00,2.1385
2814.00,2.1280
2813.00,2.1173
2812.00,2.1066
2811.00,2.0959
2810.00,2.0853
2809.00,2.0747
2808.00,2.0639
2807.00,2.0527
2806.00,2.0409
2805.00,2.0287
2804.00,2.0162
2803.00,2.0034
2802.00,1.9909
2801.00,1.9788
2800.00,1.9672
2799.00,1.9558
2798.00,1.9445
2797.00,1.9331
2796.00,1.9215
2795.00,1.9094
2794.00,1.8969
2793.00,1.8839
2792.00,1.8704
2791.00,1.8560
2790.00,1.8409
2789.00,1.8253
2788.00,1.8094
2787.00,1.7932
2786.00,1.7770
2785.00,1.7606
2784.00,1.7442
2783.00,1.7277
2782.00,1.7112
2781.00,1.6947
2780.00,1.6783
2779.00,1.6622
2778.00,1.6463
2777.00,1.6305
2776.00,1.6148
2775.00,1.5992
2774.00,1.5837
2773.00,1.5683
2772.00,1.5530
2771.00,1.5380
2770.00,1.5233
2769.00,1.5090
2768.00,1.4953
2767.00,1.4821
2766.00,1.4691
2765.00,1.4565
2764.00,1.4442
2763.00,1.4322
2762.00,1.4204
2761.00,1.4089
2760.00,1.3975
2759.00,1.3860
2758.00,1.3744
2757.00,1.3627
2756.00,1.3510
2755.00,1.3394
2754.00,1.3279
2753.00,1.3167
2752.00,1.3058
2751.00,1.2952
2750.00,1.2851
2749.00,1.2753
2748.00,1.2660
2747.00,1.2572
2746.00,1.2486
2745.00,1.2405
2744.00,1.2327
2743.00,1.2253
2742.00,1.2182
2741.00,1.2116
2740.00,1.2053
2739.00,1.1994
2738.00,1.1940
2737.00,1.1890
2736.00,1.1845
2735.00,1.1804
2734.00,1.1767
2733.00,1.1735
2732.00,1.1706
2731.00,1.1682
2730.00,1.1662
2729.00,1.1646
2728.00,1.1635
2727.00,1.1629
2726.00,1.1629
2725.00,1.1634
2724.00,1.1646
2723.00,1.1665
2722.00,1.1689
2721.00,1.1721
2720.00,1.1759
2719.00,1.1803
2718.00,1.1852
2717.00,1.1907
2716.00,1.1966
2715.00,1.2029
2714.00,1.2094
2713.00,1.2163
2712.00,1.2235
2711.00,1.2311
2710.00,1.2392
2709.00,1.2477
2708.00,1.2566
2707.00,1.2660
2706.00,1.2758
2705.00,1.2861
2704.00,1.2968
2703.00,1.3079
2702.00,1.3196
2701.00,1.3316
2700.00,1.3440
2699.00,1.3567
2698.00,1.3698
2697.00,1.3833
2696.00,1.3972
2695.00,1.4114
2694.00,1.4259
2693.00,1.4408
2692.00,1.4561
2691.00,1.4718
2690.00,1.4879
2689.00,1.5044
2688.00,1.5213
2687.00,1.5386
2686.00,1.5563
2685.00,1.5743
2684.00,1.5926
2683.00,1.6109
2682.00,1.6292
2681.00,1.6473
2680.00,1.6651
2679.00,1.6822
2678.00,1.6985
2677.00,1.7140
2676.00,1.7284
2675.00,1.7419
2674.00,1.7547
2673.00,1.7670
2672.00,1.7789
2671.00,1.7903
2670.00,1.8010
2669.00,1.8114
2668.00,1.8216
2667.00,1.8318
2666.00,1.8419
2665.00,1.8520
2664.00,1.8621
2663.00,1.8724
2662.00,1.8832
2661.00,1.8947
2660.00,1.9066
2659.00,1.9187
2658.00,1.9309
2657.00,1.9435
2656.00,1.9563
2655.00,1.9691
2654.00,1.9814
2653.00,1.9931
2652.00,2.0047
2651.00,2.0161
2650.00,2.0271
2649.00,2.0376
2648.00,2.0474
2647.00,2.0567
2646.00,2.0660
2645.00,2.0757
2644.00,2.0858
2643.00,2.0956
2642.00,2.1048
2641.00,2.1137
2640.00,2.1227
2639.00,2.1318
2638.00,2.1410
2637.00,2.1500
2636.00,2.1590
2635.00,2.1676
2634.00,2.1761
2633.00,2.1845
2632.00,2.1930
2631.00,2.2017
2630.00,2.2103
2629.00,2.2185
2628.00,2.2264
2627.00,2.2341
2626.00,2.2418
2625.00,2.2494
2624.00,2.2569
2623.00,2.2640
2622.00,2.2706
2621.00,2.2768
2620.00,2.2828
2619.00,2.2889
2618.00,2.2952
2617.00,2.3018
2616.00,2.3082
2615.00,2.3143
2614.00,2.3199
2613.00,2.3253
2612.00,2.3310
2611.00,2.3368
2610.00,2.3425
2609.00,2.3478
2608.00,2.3528
2607.00,2.3578
2606.00,2.3625
2605.00,2.3668
2604.00,2.3708
2603.00,2.3750
2602.00,2.3797
2601.00,2.3848
2600.00,2.3895
2599.00,2.3937
2598.00,2.3973
2597.00,2.4008
2596.00,2.4046
2595.00,2.4092
2594.00,2.4146
2593.00,2.4203
2592.00,2.4256
2591.00,2.4297
2590.00,2.4328
2589.00,2.4352
2588.00,2.4377
2587.00,2.4407
2586.00,2.4443
2585.00,2.4479
2584.00,2.4509
2583.00,2.4530
2582.00,2.4547
2581.00,2.4572
2580.00,2.4608
2579.00,2.4651
2578.00,2.4692
2577.00,2.4724
2576.00,2.4750
2575.00,2.4772
2574.00,2.4797
2573.00,2.4825
2572.00,2.4853
2571.00,2.4879
2570.00,2.4904
2569.00,2.4930
2568.00,2.4951
2567.00,2.4965
2566.00,2.4972
2565.00,2.4981
2564.00,2.4995
2563.00,2.5014
2562.00,2.5035
2561.00,2.5056
2560.00,2.5077
2559.00,2.5098
2558.00,2.5119
2557.00,2.5138
2556.00,2.5151
2555.00,2.5157
2554.00,2.5162
2553.00,2.5172
2552.00,2.5189
2551.00,2.5208
2550.00,2.5223
2549.00,2.5233
2548.00,2.5240
2547.00,2.5244
2546.00,2.5245
2545.00,2.5245
2544.00,2.5249
2543.00,2.5261
2542.00,2.5280
2541.00,2.5300
2540.00,2.5316
2539.00,2.5323
2538.00,2.5323
2537.00,2.5320
2536.00,2.5316
2535.00,2.5312
2534.00,2.5307
2533.00,2.5302
2532.00,2.5299
2531.00,2.5300
2530.00,2.5302
2529.00,2.5303
2528.00,2.5298
2527.00,2.5286
2526.00,2.5271
2525.00,2.5259
2524.00,2.5251
2523.00,2.5244
2522.00,2.5238
2521.00,2.5234
2520.00,2.5233
2519.00,2.5231
2518.00,2.5225
2517.00,2.5214
2516.00,2.5203
2515.00,2.5197
2514.00,2.5194
2513.00,2.5185
2512.00,2.5167
2511.00,2.5142
2510.00,2.5121
2509.00,2.5107
2508.00,2.5098
2507.00,2.5088
2506.00,2.5078
2505.00,2.5068
2504.00,2.5055
2503.00,2.5036
2502.00,2.5011
2501.00,2.4985
2500.00,2.4960
2499.00,2.4933
2498.00,2.4904
2497.00,2.4877
2496.00,2.4853
2495.00,2.4827
2494.00,2.4796
2493.00,2.4761
2492.00,2.4725
2491.00,2.4692
2490.00,2.4660
2489.00,2.4633
2488.00,2.4613
2487.00,2.4598
2486.00,2.4579
2485.00,2.4548
2484.00,2.4507
2483.00,2.4465
2482.00,2.4428
2481.00,2.4395
2480.00,2.4359
2479.00,2.4315
2478.00,2.4267
2477.00,2.4220
2476.00,2.4176
2475.00,2.4135
2474.00,2.4094
2473.00,2.4051
2472.00,2.4001
2471.00,2.3947
2470.00,2.3894
2469.00,2.3846
2468.00,2.3802
2467.00,2.3759
2466.00,2.3713
2465.00,2.3664
2464.00,2.3613
2463.00,2.3561
2462.00,2.3508
2461.00,2.3452
2460.00,2.3392
2459.00,2.3327
2458.00,2.3263
2457.00,2.3201
2456.00,2.3140
2455.00,2.3078
2454.00,2.3014
2453.00,2.2950
2452.00,2.2883
2451.00,2.2815
2450.00,2.2745
2449.00,2.2672
2448.00,2.2594
2447.00,2.2512
2446.00,2.2431
2445.00,2.2351
2444.00,2.2274
2443.00,2.2195
2442.00,2.2114
2441.00,2.2029
2440.00,2.1940
2439.00,2.1846
2438.00,2.1749
2437.00,2.1651
2436.00,2.1552
2435.00,2.1449
2434.00,2.1345
2433.00,2.1239
2432.00,2.1132
2431.00,2.1023
2430.00,2.0915
2429.00,2.0808
2428.00,2.0702
2427.00,2.0594
2426.00,2.0480
2425.00,2.0361
2424.00,2.0237
2423.00,2.0109
2422.00,1.9979
2421.00,1.9851
2420.00,1.9724
2419.00,1.9596
2418.00,1.9464
2417.00,1.9327
2416.00,1.9185
2415.00,1.9039
2414.00,1.8889
2413.00,1.8738
2412.00,1.8586
2411.00,1.8431
2410.00,1.8275
2409.00,1.8116
2408.00,1.7958
2407.00,1.7799
2406.00,1.7641
2405.00,1.7484
2404.00,1.7326
2403.00,1.7169
2402.00,1.7011
2401.00,1.6857
2400.00,1.6706
2399.00,1.6558
2398.00,1.6413
2397.00,1.6269
2396.00,1.6128
2395.00,1.5990
2394.00,1.5855
2393.00,1.5724
2392.00,1.5597
2391.00,1.5474
2390.00,1.5353
2389.00,1.5234
2388.00,1.5118
2387.00,1.5004
2386.00,1.4893
2385.00,1.4785
2384.00,1.4679
2383.00,1.4577
2382.00,1.4478
2381.00,1.4384
2380.00,1.4296
2379.00,1.4214
2378.00,1.4140
2377.00,1.4072
2376.00,1.4010
2375.00,1.3951
2374.00,1.3895
2373.00,1.3840
2372.00,1.3785
2371.00,1.3729
2370.00,1.3673
2369.00,1.3621
2368.00,1.3572
2367.00,1.3530
2366.00,1.3496
2365.00,1.3468
2364.00,1.3445
2363.00,1.3427
2362.00,1.3414
2361.00,1.3402
2360.00,1.3392
2359.00,1.3383
2358.00,1.3375
2357.00,1.3372
2356.00,1.3374
2355.00,1.3381
2354.00,1.3391
2353.00,1.3401
2352.00,1.3410
2351.00,1.3421
2350.00,1.3451
2349.00,1.3493
2348.00,1.3532
2347.00,1.3559
2346.00,1.3586
2345.00,1.3641
2344.00,1.3717
2343.00,1.3798
2342.00,1.3863
2341.00,1.3913
2340.00,1.3964
2339.00,1.4018
2338.00,1.4079
2337.00,1.4139
2336.00,1.4202
2335.00,1.4267
2334.00,1.4341
2333.00,1.4423
2332.00,1.4515
2331.00,1.4610
2330.00,1.4715
2329.00,1.4820
2328.00,1.4930
2327.00,1.5041
2326.00,1.5155
2325.00,1.5273
2324.00,1.5392
2323.00,1.5519
2322.00,1.5655
2321.00,1.5799
2320.00,1.5947
2319.00,1.6093
2318.00,1.6240
2317.00,1.6388
2316.00,1.6545
2315.00,1.6705
2314.00,1.6872
2313.00,1.7041
2312.00,1.7214
2311.00,1.7384
2310.00,1.7554
2309.00,1.7724
2308.00,1.7897
2307.00,1.8072
2306.00,1.8249
2305.00,1.8426
2304.00,1.8605
2303.00,1.8783
2302.00,1.8960
2301.00,1.9135
2300.00,1.9309
2299.00,1.9482
2298.00,1.9653
2297.00,1.9821
2296.00,1.9986
2295.00,2.0148
2294.00,2.0305
2293.00,2.0457
2292.00,2.0605
2291.00,2.0749
2290.00,2.0890
2289.00,2.1030
2288.00,2.1169
2287.00,2.1306
2286.00,2.1440
2285.00,2.1570
2284.00,2.1698
2283.00,2.1823
2282.00,2.1949
2281.00,2.2077
2280.00,2.2209
2279.00,2.2341
2278.00,2.2469
2277.00,2.2592
2276.00,2.2710
2275.00,2.2824
2274.00,2.2930
2273.00,2.3029
2272.00,2.3128
2271.00,2.3231
2270.00,2.3338
2269.00,2.3447
2268.00,2.3555
2267.00,2.3657
2266.00,2.3752
2265.00,2.3837
2264.00,2.3919
2263.00,2.4000
2262.00,2.4081
2261.00,2.4162
2260.00,2.4243
2259.00,2.4326
2258.00,2.4413
2257.00,2.4502
2256.00,2.4588
2255.00,2.4668
2254.00,2.4743
2253.00,2.4817
2252.00,2.4890
2251.00,2.4955
2250.00,2.5011
2249.00,2.5065
2248.00,2.5130
2247.00,2.5210
2246.00,2.5296
2245.00,2.5378
2244.00,2.5450
2243.00,2.5511
2242.00,2.5560
2241.00,2.5605
2240.00,2.5655
2239.00,2.5717
2238.00,2.5783
2237.00,2.5842
2236.00,2.5895
2235.00,2.5949
2234.00,2.6008
2233.00,2.6062
2232.00,2.6110
2231.00,2.6158
2230.00,2.6211
2229.00,2.6269
2228.00,2.6325
2227.00,2.6375
2226.00,2.6419
2225.00,2.6462
2224.00,2.6503
2223.00,2.6540
2222.00,2.6572
2221.00,2.6599
2220.00,2.6625
2219.00,2.6659
2218.00,2.6705
2217.00,2.6759
2216.00,2.6814
2215.00,2.6862
2214.00,2.6901
2213.00,2.6934
2212.00,2.6967
2211.00,2.7008
2210.00,2.7055
2209.00,2.7103
2208.00,2.7141
2207.00,2.7168
2206.00,2.7191
2205.00,2.7215
2204.00,2.7244
2203.00,2.7275
2202.00,2.7302
2201.00,2.7323
2200.00,2.7344
2199.00,2.7374
2198.00,2.7415
2197.00,2.7458
2196.00,2.7496
2195.00,2.7528
2194.00,2.7557
2193.00,2.7577
2192.00,2.7584
2191.00,2.7586
2190.00,2.7596
2189.00,2.7622
2188.00,2.7658
2187.00,2.7690
2186.00,2.7713
2185.00,2.7729
2184.00,2.7743
2183.00,2.7760
2182.00,2.7783
2181.00,2.7812
2180.00,2.7843
2179.00,2.7871
2178.00,2.7887
2177.00,2.7884
2176.00,2.7866
2175.00,2.7850
2174.00,2.7851
2173.00,2.7868
2172.00,2.7890
2171.00,2.7907
2170.00,2.7923
2169.00,2.7941
2168.00,2.7959
2167.00,2.7976
2166.00,2.7992
2165.00,2.8008
2164.00,2.8018
2163.00,2.8022
2162.00,2.8023
2161.00,2.8027
2160.00,2.8033
2159.00,2.8035
2158.00,2.8027
2157.00,2.8012
2156.00,2.8002
2155.00,2.8005
2154.00,2.8020
2153.00,2.8033
2152.00,2.8026
2151.00,2.7998
2150.00,2.7970
2149.00,2.7964
2148.00,2.7986
2147.00,2.8020
2146.00,2.8041
2145.00,2.8035
2144.00,2.8009
2143.00,2.7983
2142.00,2.7973
2141.00,2.7980
2140.00,2.7989
2139.00,2.7990
2138.00,2.7981
2137.00,2.7965
2136.00,2.7945
2135.00,2.7928
2134.00,2.7918
2133.00,2.7917
2132.00,2.7915
2131.00,2.7904
2130.00,2.7883
2129.00,2.7858
2128.00,2.7832
2127.00,2.7809
2126.00,2.7792
2125.00,2.7780
2124.00,2.7774
2123.00,2.7772
2122.00,2.7771
2121.00,2.7762
2120.00,2.7739
2119.00,2.7704
2118.00,2.7670
2117.00,2.7648
2116.00,2.7633
2115.00,2.7620
2114.00,2.7608
2113.00,2.7600
2112.00,2.7592
2111.00,2.7575
2110.00,2.7543
2109.00,2.7503
2108.00,2.7465
2107.00,2.7438
2106.00,2.7419
2105.00,2.7396
2104.00,2.7357
2103.00,2.7303
2102.00,2.7247
2101.00,2.7196
2100.00,2.7153
2099.00,2.7119
2098.00,2.7092
2097.00,2.7070
2096.00,2.7048
2095.00,2.7021
2094.00,2.6988
2093.00,2.6945
2092.00,2.6890
2091.00,2.6826
2090.00,2.6764
2089.00,2.6717
2088.00,2.6683
2087.00,2.6655
2086.00,2.6622
2085.00,2.6580
2084.00,2.6527
2083.00,2.6469
2082.00,2.6411
2081.00,2.6355
2080.00,2.6299
2079.00,2.6240
2078.00,2.6178
2077.00,2.6116
2076.00,2.6051
2075.00,2.5979
2074.00,2.5904
2073.00,2.5832
2072.00,2.5769
2071.00,2.5715
2070.00,2.5664
2069.00,2.5609
2068.00,2.5544
2067.00,2.5465
2066.00,2.5382
2065.00,2.5306
2064.00,2.5246
2063.00,2.5195
2062.00,2.5141
2061.00,2.5075
2060.00,2.4998
2059.00,2.4917
2058.00,2.4839
2057.00,2.4760
2056.00,2.4673
2055.00,2.4575
2054.00,2.4472
2053.00,2.4371
2052.00,2.4269
2051.00,2.4163
2050.00,2.4056
2049.00,2.3948
2048.00,2.3836
2047.00,2.3718
2046.00,2.3593
2045.00,2.3465
2044.00,2.3335
2043.00,2.3204
2042.00,2.3072
2041.00,2.2943
2040.00,2.2815
2039.00,2.2683
2038.00,2.2545
2037.00,2.2403
2036.00,2.2257
2035.00,2.2107
2034.00,2.1951
2033.00,2.1793
2032.00,2.1633
2031.00,2.1472
2030.00,2.1307
2029.00,2.1138
2028.00,2.0966
2027.00,2.0791
2026.00,2.0613
2025.00,2.0434
2024.00,2.0253
2023.00,2.0071
2022.00,1.9888
2021.00,1.9704
2020.00,1.9516
2019.00,1.9324
2018.00,1.9130
2017.00,1.8943
2016.00,1.8767
2015.00,1.8599
2014.00,1.8434
2013.00,1.8268
2012.00,1.8100
2011.00,1.7935
2010.00,1.7771
2009.00,1.7609
2008.00,1.7450
2007.00,1.7293
2006.00,1.7139
2005.00,1.6988
2004.00,1.6841
2003.00,1.6699
2002.00,1.6559
2001.00,1.6422
2000.00,1.6289
1999.00,1.6160
1998.00,1.6034
1997.00,1.5914
1996.00,1.5797
1995.00,1.5679
1994.00,1.5554
1993.00,1.5427
1992.00,1.5313
1991.00,1.5222
1990.00,1.5151
1989.00,1.5088
1988.00,1.5027
1987.00,1.4973
1986.00,1.4929
1985.00,1.4895
1984.00,1.4866
1983.00,1.4844
1982.00,1.4831
1981.00,1.4827
1980.00,1.4831
1979.00,1.4840
1978.00,1.4854
1977.00,1.4872
1976.00,1.4894
1975.00,1.4918
1974.00,1.4944
1973.00,1.4971
1972.00,1.5004
1971.00,1.5040
1970.00,1.5077
1969.00,1.5113
1968.00,1.5153
1967.00,1.5209
1966.00,1.5287
1965.00,1.5386
1964.00,1.5492
1963.00,1.5598
1962.00,1.5704
1961.00,1.5817
1960.00,1.5938
1959.00,1.6066
1958.00,1.6200
1957.00,1.6342
1956.00,1.6492
1955.00,1.6650
1954.00,1.6819
1953.00,1.6995
1952.00,1.7176
1951.00,1.7360
1950.00,1.7546
1949.00,1.7732
1948.00,1.7919
1947.00,1.8108
1946.00,1.8297
1945.00,1.8478
1944.00,1.8650
1943.00,1.8822
1942.00,1.9017
1941.00,1.9239
1940.00,1.9471
1939.00,1.9692
1938.00,1.9899
1937.00,2.0104
1936.00,2.0315
1935.00,2.0529
1934.00,2.0740
1933.00,2.0950
1932.00,2.1157
1931.00,2.1360
1930.00,2.1558
1929.00,2.1754
1928.00,2.1950
1927.00,2.2147
1926.00,2.2337
1925.00,2.2511
1924.00,2.2667
1923.00,2.2828
1922.00,2.3014
1921.00,2.3219
1920.00,2.3414
1919.00,2.3582
1918.00,2.3738
1917.00,2.3904
1916.00,2.4077
1915.00,2.4235
1914.00,2.4374
1913.00,2.4506
1912.00,2.4637
1911.00,2.4761
1910.00,2.4876
1909.00,2.4993
1908.00,2.5126
1907.00,2.5270
1906.00,2.5412
1905.00,2.5544
1904.00,2.5665
1903.00,2.5779
1902.00,2.5894
1901.00,2.6011
1900.00,2.6130
1899.00,2.6244
1898.00,2.6347
1897.00,2.6442
1896.00,2.6539
1895.00,2.6646
1894.00,2.6764
1893.00,2.6879
1892.00,2.6969
1891.00,2.7028
1890.00,2.7078
1889.00,2.7157
1888.00,2.7275
1887.00,2.7405
1886.00,2.7520
1885.00,2.7615
1884.00,2.7699
1883.00,2.7776
1882.00,2.7847
1881.00,2.7917
1880.00,2.7991
1879.00,2.8068
1878.00,2.8144
1877.00,2.8219
1876.00,2.8292
1875.00,2.8360
1874.00,2.8427
1873.00,2.8499
1872.00,2.8566
1871.00,2.8609
1870.00,2.8620
1869.00,2.8627
1868.00,2.8673
1867.00,2.8763
1866.00,2.8866
1865.00,2.8956
1864.00,2.9029
1863.00,2.9088
1862.00,2.9134
1861.00,2.9170
1860.00,2.9208
1859.00,2.9257
1858.00,2.9316
1857.00,2.9378
1856.00,2.9436
1855.00,2.9488
1854.00,2.9537
1853.00,2.9590
1852.00,2.9643
1851.00,2.9677
1850.00,2.9683
1849.00,2.9682
1848.00,2.9714
1847.00,2.9794
1846.00,2.9898
1845.00,2.9992
1844.00,3.0062
1843.00,3.0115
1842.00,3.0142
1841.00,3.0142
1840.00,3.0130
1839.00,3.0128
1838.00,3.0149
1837.00,3.0193
1836.00,3.0247
1835.00,3.0303
1834.00,3.0366
1833.00,3.0436
1832.00,3.0492
1831.00,3.0508
1830.00,3.0491
1829.00,3.0483
1828.00,3.0507
1827.00,3.0545
1826.00,3.0584
1825.00,3.0631
1824.00,3.0691
1823.00,3.0738
1822.00,3.0745
1821.00,3.0719
1820.00,3.0684
1819.00,3.0656
1818.00,3.0649
1817.00,3.0679
1816.00,3.0754
1815.00,3.0846
1814.00,3.0903
1813.00,3.0897
1812.00,3.0850
1811.00,3.0819
1810.00,3.0837
1809.00,3.0881
1808.00,3.0912
1807.00,3.0920
1806.00,3.0924
1805.00,3.0933
1804.00,3.0930
1803.00,3.0911
1802.00,3.0899
1801.00,3.0927
1800.00,3.0979
1799.00,3.1002
1798.00,3.0973
1797.00,3.0937
1796.00,3.0946
1795.00,3.0993
1794.00,3.1016
1793.00,3.0973
1792.00,3.0893
1791.00,3.0836
1790.00,3.0821
1789.00,3.0828
1788.00,3.0833
1787.00,3.0823
1786.00,3.0796
1785.00,3.0767
1784.00,3.0747
1783.00,3.0725
1782.00,3.0676
1781.00,3.0601
1780.00,3.0525
1779.00,3.0460
1778.00,3.0394
1777.00,3.0320
1776.00,3.0262
1775.00,3.0242
1774.00,3.0242
1773.00,3.0231
1772.00,3.0204
1771.00,3.0175
1770.00,3.0145
1769.00,3.0116
1768.00,3.0099
1767.00,3.0096
1766.00,3.0086
1765.00,3.0040
1764.00,2.9942
1763.00,2.9801
1762.00,2.9647
1761.00,2.9514
1760.00,2.9398
1759.00,2.9265
1758.00,2.9094
1757.00,2.8903
1756.00,2.8735
1755.00,2.8608
1754.00,2.8496
1753.00,2.8356
1752.00,2.8162
1751.00,2.7924
1750.00,2.7681
1749.00,2.7448
1748.00,2.7213
1747.00,2.6953
1746.00,2.6645
1745.00,2.6289
1744.00,2.5905
1743.00,2.5530
1742.00,2.5186
1741.00,2.4873
1740.00,2.4598
1739.00,2.4416
1738.00,2.4375
1737.00,2.4484
1736.00,2.4736
1735.00,2.5158
1734.00,2.5829
1733.00,2.6768
1732.00,2.7826
1731.00,2.8894
1730.00,3.0040
1729.00,3.1354
1728.00,3.2832
1727.00,3.4401
1726.00,3.5984
1725.00,3.7563
1724.00,3.9177
1723.00,4.0945
1722.00,4.2981
1721.00,4.5126
1720.00,4.6993
1719.00,4.7917
1718.00,4.7212
1717.00,4.6217
1716.00,4.5820
1715.00,4.6176
1714.00,4.8143
1713.00,5.3738
1712.00,5.0200
1711.00,4.8538
1710.00,5.0209
1709.00,4.8879
1708.00,4.6617
1707.00,4.5981
1706.00,4.5917
1705.00,4.5349
1704.00,4.4047
1703.00,4.2573
1702.00,4.0667
1701.00,3.8137
1700.00,3.5649
1699.00,3.3776
1698.00,3.2477
1697.00,3.1519
1696.00,3.0799
1695.00,3.0341
1694.00,3.0140
1693.00,3.0114
1692.00,3.0205
1691.00,3.0377
1690.00,3.0581
1689.00,3.0791
1688.00,3.1018
1687.00,3.1259
1686.00,3.1477
1685.00,3.1636
1684.00,3.1775
1683.00,3.1921
1682.00,3.1992
1681.00,3.1969
1680.00,3.1939
1679.00,3.1947
1678.00,3.1963
1677.00,3.1955
1676.00,3.1947
1675.00,3.1994
1674.00,3.2087
1673.00,3.2137
1672.00,3.2090
1671.00,3.1975
1670.00,3.1859
1669.00,3.1808
1668.00,3.1832
1667.00,3.1869
1666.00,3.1856
1665.00,3.1781
1664.00,3.1672
1663.00,3.1568
1662.00,3.1499
1661.00,3.1458
1660.00,3.1431
1659.00,3.1419
1658.00,3.1416
1657.00,3.1419
1656.00,3.1437
1655.00,3.1465
1654.00,3.1466
1653.00,3.1468
1652.00,3.1498
1651.00,3.1433
1650.00,3.1245
1649.00,3.1045
1648.00,3.0885
1647.00,3.0769
1646.00,3.0709
1645.00,3.0684
1644.00,3.0637
1643.00,3.0548
1642.00,3.0434
1641.00,3.0318
1640.00,3.0219
1639.00,3.0152
1638.00,3.0115
1637.00,3.0081
1636.00,3.0028
1635.00,2.9968
1634.00,2.9900
1633.00,2.9815
1632.00,2.9727
1631.00,2.9652
1630.00,2.9566
1629.00,2.9444
1628.00,2.9302
1627.00,2.9171
1626.00,2.9061
1625.00,2.8960
1624.00,2.8859
1623.00,2.8759
1622.00,2.8655
1621.00,2.8533
1620.00,2.8409
1619.00,2.8307
1618.00,2.8215
1617.00,2.8093
1616.00,2.7921
1615.00,2.7712
1614.00,2.7497
1613.00,2.7314
1612.00,2.7180
1611.00,2.7076
1610.00,2.6972
1609.00,2.6848
1608.00,2.6705
1607.00,2.6552
1606.00,2.6397
1605.00,2.6235
1604.00,2.6061
1603.00,2.5869
1602.00,2.5661
1601.00,2.5446
1600.00,2.5229
1599.00,2.5013
1598.00,2.4795
1597.00,2.4571
1596.00,2.4340
1595.00,2.4103
1594.00,2.3866
1593.00,2.3633
1592.00,2.3405
1591.00,2.3182
1590.00,2.2964
1589.00,2.2751
1588.00,2.2538
1587.00,2.2321
1586.00,2.2097
1585.00,2.1867
1584.00,2.1636
1583.00,2.1414
1582.00,2.1208
1581.00,2.1022
1580.00,2.0863
1579.00,2.0736
1578.00,2.0624
1577.00,2.0484
1576.00,2.0278
1575.00,2.0010
1574.00,1.9711
1573.00,1.9421
1572.00,1.9165
1571.00,1.8927
1570.00,1.8694
1569.00,1.8488
1568.00,1.8324
1567.00,1.8179
1566.00,1.8037
1565.00,1.7907
1564.00,1.7819
1563.00,1.7794
1562.00,1.7828
1561.00,1.7862
1560.00,1.7811
1559.00,1.7713
1558.00,1.7702
1557.00,1.7732
1556.00,1.7713
1555.00,1.7693
1554.00,1.7721
1553.00,1.7789
1552.00,1.7850
1551.00,1.7900
1550.00,1.7989
1549.00,1.8154
1548.00,1.8365
1547.00,1.8560
1546.00,1.8718
1545.00,1.9021
1544.00,1.9223
1543.00,1.9354
1542.00,1.9681
1541.00,2.0025
1540.00,2.0379
1539.00,2.0742
1538.00,2.1051
1537.00,2.1259
1536.00,2.1412
1535.00,2.1581
1534.00,2.1809
1533.00,2.2122
1532.00,2.2492
1531.00,2.2854
1530.00,2.3172
1529.00,2.3449
1528.00,2.3699
1527.00,2.3953
1526.00,2.4238
1525.00,2.4549
1524.00,2.4847
1523.00,2.5098
1522.00,2.5296
1521.00,2.5454
1520.00,2.5572
1519.00,2.5627
1518.00,2.5643
1517.00,2.5684
1516.00,2.5797
1515.00,2.5974
1514.00,2.6162
1513.00,2.6323
1512.00,2.6450
1511.00,2.6786
1510.00,2.6950
1509.00,2.7128
1508.00,2.7323
1507.00,2.7538
1506.00,2.7772
1505.00,2.7991
1504.00,2.8172
1503.00,2.8336
1502.00,2.8523
1501.00,2.8665
1500.00,2.8820
1499.00,2.8954
1498.00,2.9081
1497.00,2.9229
1496.00,2.9396
1495.00,2.9562
1494.00,2.9710
1493.00,2.9827
1492.00,2.9903
1491.00,2.9950
1490.00,3.0033
1489.00,3.0196
1488.00,3.0391
1487.00,3.0546
1486.00,3.0652
1485.00,3.0740
1484.00,3.0839
1483.00,3.0957
1482.00,3.1091
1481.00,3.1229
1480.00,3.1353
1479.00,3.1455
1478.00,3.1545
1477.00,3.1639
1476.00,3.1755
1475.00,3.1906
1474.00,3.2072
1473.00,3.2222
1472.00,3.2353
1471.00,3.2493
1470.00,3.2669
1469.00,3.2874
1468.00,3.3064
1467.00,3.3187
1466.00,3.3232
1465.00,3.3239
1464.00,3.3278
1463.00,3.3373
1462.00,3.3485
1461.00,3.3551
1460.00,3.3548
1459.00,3.3527
1458.00,3.3578
1457.00,3.3789
1456.00,3.4164
1455.00,3.4580
1454.00,3.4956
1453.00,3.5302
1452.00,3.5587
1451.00,3.5739
1450.00,3.5682
1449.00,3.5349
1448.00,3.4748
1447.00,3.4060
1446.00,3.3486
1445.00,3.3098
1444.00,3.2862
1443.00,3.2744
1442.00,3.2749
1441.00,3.2887
1440.00,3.3139
1439.00,3.3447
1438.00,3.3750
1437.00,3.4000
1436.00,3.4177
1435.00,3.4283
1434.00,3.4340
1433.00,3.4381
1432.00,3.4404
1431.00,3.4402
1430.00,3.4427
1429.00,3.4538
1428.00,3.4703
1427.00,3.4795
1426.00,3.4699
1425.00,3.4455
1424.00,3.4221
1423.00,3.4118
1422.00,3.4135
1421.00,3.4161
1420.00,3.4092
1419.00,3.3927
1418.00,3.3762
1417.00,3.3666
1416.00,3.3648
1415.00,3.3679
1414.00,3.3694
1413.00,3.3648
1412.00,3.3577
1411.00,3.3552
1410.00,3.3588
1409.00,3.3632
1408.00,3.3644
1407.00,3.3662
1406.00,3.3748
1405.00,3.3907
1404.00,3.4076
1403.00,3.4195
1402.00,3.4256
1401.00,3.4274
1400.00,3.4274
1399.00,3.4284
1398.00,3.4307
1397.00,3.4307
1396.00,3.4263
1395.00,3.4207
1394.00,3.4191
1393.00,3.4222
1392.00,3.4261
1391.00,3.4282
1390.00,3.4283
1389.00,3.4278
1388.00,3.4290
1387.00,3.4360
1386.00,3.4494
1385.00,3.4638
1384.00,3.4728
1383.00,3.4744
1382.00,3.4712
1381.00,3.4684
1380.00,3.4707
1379.00,3.4806
1378.00,3.4956
1377.00,3.5083
1376.00,3.5124
1375.00,3.5071
1374.00,3.4991
1373.00,3.4980
1372.00,3.5077
1371.00,3.5210
1370.00,3.5256
1369.00,3.5180
1368.00,3.5077
1367.00,3.5052
1366.00,3.5092
1365.00,3.5098
1364.00,3.5033
1363.00,3.4969
1362.00,3.4982
1361.00,3.5052
1360.00,3.5111
1359.00,3.5141
1358.00,3.5173
1357.00,3.5220
1356.00,3.5270
1355.00,3.5304
1354.00,3.5287
1353.00,3.5201
1352.00,3.5097
1351.00,3.5086
1350.00,3.5238
1349.00,3.5522
1348.00,3.5839
1347.00,3.6083
1346.00,3.6183
1345.00,3.6114
1344.00,3.5933
1343.00,3.5759
1342.00,3.5677
1341.00,3.5703
1340.00,3.5825
1339.00,3.6033
1338.00,3.6250
1337.00,3.6332
1336.00,3.6204
1335.00,3.5983
1334.00,3.5827
1333.00,3.5777
1332.00,3.5778
1331.00,3.5797
1330.00,3.5850
1329.00,3.5927
1328.00,3.5967
1327.00,3.5918
1326.00,3.5789
1325.00,3.5622
1324.00,3.5449
1323.00,3.5294
1322.00,3.5165
1321.00,3.5050
1320.00,3.4960
1319.00,3.4938
1318.00,3.5010
1317.00,3.5173
1316.00,3.5425
1315.00,3.5797
1314.00,3.6292
1313.00,3.6803
1312.00,3.7140
1311.00,3.7199
1310.00,3.7051
1309.00,3.6834
1308.00,3.6665
1307.00,3.6609
1306.00,3.6625
1305.00,3.6567
1304.00,3.6347
1303.00,3.6064
1302.00,3.5868
1301.00,3.5792
1300.00,3.5774
1299.00,3.5775
1298.00,3.5810
1297.00,3.5864
1296.00,3.5872
1295.00,3.5808
1294.00,3.5727
1293.00,3.5677
1292.00,3.5633
1291.00,3.5541
1290.00,3.5383
1289.00,3.5177
1288.00,3.4975
1287.00,3.4857
1286.00,3.4879
1285.00,3.5011
1284.00,3.5147
1283.00,3.5192
1282.00,3.5124
1281.00,3.4962
1280.00,3.4744
1279.00,3.4547
1278.00,3.4461
1277.00,3.4504
1276.00,3.4563
1275.00,3.4499
1274.00,3.4309
1273.00,3.4116
1272.00,3.4012
1271.00,3.4000
1270.00,3.4029
1269.00,3.4049
1268.00,3.4047
1267.00,3.4028
1266.00,3.4001
1265.00,3.3978
1264.00,3.3972
1263.00,3.3993
1262.00,3.4044
1261.00,3.4109
1260.00,3.4138
1259.00,3.4073
1258.00,3.3894
1257.00,3.3639
1256.00,3.3375
1255.00,3.3150
1254.00,3.2960
1253.00,3.2785
1252.00,3.2616
1251.00,3.2466
1250.00,3.2344
1249.00,3.2242
1248.00,3.2158
1247.00,3.2093
1246.00,3.2023
1245.00,3.1907
1244.00,3.1729
1243.00,3.1530
1242.00,3.1357
1241.00,3.1212
1240.00,3.1068
1239.00,3.0911
1238.00,3.0763
1237.00,3.0650
1236.00,3.0575
1235.00,3.0514
1234.00,3.0446
1233.00,3.0372
1232.00,3.0334
1231.00,3.0394
1230.00,3.0607
1229.00,3.0994
1228.00,3.1560
1227.00,3.2302
1226.00,3.3207
1225.00,3.4223
1224.00,3.5265
1223.00,3.6252
1222.00,3.7111
1221.00,3.7716
1220.00,3.7933
1219.00,3.7803
1218.00,3.7487
1217.00,3.7056
1216.00,3.6489
1215.00,3.5817
1214.00,3.5138
1213.00,3.4510
1212.00,3.3960
1211.00,3.3531
1210.00,3.3253
1209.00,3.3080
1208.00,3.2917
1207.00,3.2702
1206.00,3.2434
1205.00,3.2130
1204.00,3.1800
1203.00,3.1464
1202.00,3.1153
1201.00,3.0863
1200.00,3.0548
1199.00,3.0178
1198.00,2.9776
1197.00,2.9390
1196.00,2.9052
1195.00,2.8769
1194.00,2.8524
1193.00,2.8287
1192.00,2.8027
1191.00,2.7735
1190.00,2.7431
1189.00,2.7136
1188.00,2.6854
1187.00,2.6580
1186.00,2.6311
1185.00,2.6056
1184.00,2.5821
1183.00,2.5606
1182.00,2.5407
1181.00,2.5216
1180.00,2.5030
1179.00,2.4845
1178.00,2.4659
1177.00,2.4472
1176.00,2.4291
1175.00,2.4128
1174.00,2.3991
1173.00,2.3883
1172.00,2.3800
1171.00,2.3740
1170.00,2.3704
1169.00,2.3691
1168.00,2.3704
1167.00,2.3747
1166.00,2.3817
1165.00,2.3908
1164.00,2.4020
1163.00,2.4157
1162.00,2.4323
1161.00,2.4506
1160.00,2.4691
1159.00,2.4878
1158.00,2.5085
1157.00,2.5325
1156.00,2.5598
1155.00,2.5895
1154.00,2.6213
1153.00,2.6547
1152.00,2.6880
1151.00,2.7198
1150.00,2.7515
1149.00,2.7865
1148.00,2.8260
1147.00,2.8667
1146.00,2.9038
1145.00,2.9372
1144.00,2.9718
1143.00,3.0111
1142.00,3.0526
1141.00,3.0904
1140.00,3.1226
1139.00,3.1524
1138.00,3.1842
1137.00,3.2209
1136.00,3.2658
1135.00,3.3207
1134.00,3.3786
1133.00,3.4236
1132.00,3.4472
1131.00,3.4648
1130.00,3.4999
1129.00,3.5617
1128.00,3.6368
1127.00,3.7003
1126.00,3.7419
1125.00,3.7788
1124.00,3.8379
1123.00,3.9413
1122.00,4.0983
1121.00,4.2869
1120.00,4.4162
1119.00,4.3779
1118.00,4.1541
1117.00,3.9025
1116.00,3.7086
1115.00,3.5746
1114.00,3.4842
1113.00,3.4188
1112.00,3.3684
1111.00,3.3336
1110.00,3.3163
1109.00,3.3145
1108.00,3.3243
1107.00,3.3450
1106.00,3.3745
1105.00,3.4026
1104.00,3.4167
1103.00,3.4174
1102.00,3.4206
1101.00,3.4409
1100.00,3.4817
1099.00,3.5386
1098.00,3.6109
1097.00,3.7044
1096.00,3.8174
1095.00,3.9246
1094.00,3.9928
1093.00,4.0156
1092.00,3.9980
1091.00,3.9578
1090.00,3.9191
1089.00,3.8867
1088.00,3.8601
1087.00,3.8443
1086.00,3.8356
1085.00,3.8256
1084.00,3.8270
1083.00,3.8679
1082.00,3.9625
1081.00,4.0799
1080.00,4.1498
1079.00,4.1454
1078.00,4.0874
1077.00,4.0022
1076.00,3.9119
1075.00,3.8486
1074.00,3.8337
1073.00,3.8652
1072.00,3.9289
1071.00,4.0172
1070.00,4.1213
1069.00,4.2042
1068.00,4.2141
1067.00,4.1821
1066.00,4.1842
1065.00,4.2508
1064.00,4.3574
1063.00,4.3640
1062.00,4.2336
1061.00,4.0898
1060.00,3.9748
1059.00,3.9309
1058.00,3.9867
1057.00,4.1349
1056.00,4.2801
1055.00,4.1784
1054.00,3.9678
1053.00,3.8531
1052.00,3.8377
1051.00,3.8809
1050.00,3.9247
1049.00,3.9489
1048.00,3.9713
1047.00,3.9838
1046.00,3.9782
1045.00,3.9694
1044.00,3.9740
1043.00,3.9915
1042.00,4.0157
1041.00,4.0553
1040.00,4.1031
1039.00,4.1287
1038.00,4.1421
1037.00,4.1908
1036.00,4.2849
1035.00,4.3589
1034.00,4.3714
1033.00,4.3632
1032.00,4.3379
1031.00,4.2652
1030.00,4.1597
1029.00,4.1155
1028.00,4.1784
1027.00,4.3264
1026.00,4.4217
1025.00,4.4225
1024.00,4.4580
1023.00,4.5116
1022.00,4.4724
1021.00,4.3509
1020.00,4.2773
1019.00,4.3145
1018.00,4.4650
1017.00,4.6448
1016.00,4.6608
1015.00,4.5243
1014.00,4.4045
1013.00,4.3675
1012.00,4.3778
1011.00,4.3703
1010.00,4.3876
1009.00,4.3695
1008.00,4.2459
1007.00,4.1939
1006.00,4.2681
1005.00,4.4242
1004.00,4.4725
1003.00,4.4242
1002.00,4.4625
1001.00,4.6793
1000.00,4.8039
999.00,4.4838
998.00,4.3221
997.00,4.2730
996.00,4.3247
995.00,4.4536
994.00,4.5788
993.00,4.6134
992.00,4.6166
991.00,4.7695
990.00,5.0230
989.00,4.8257
988.00,4.6350
987.00,4.4456
986.00,4.2970
985.00,4.2415
984.00,4.3010
983.00,4.5299
982.00,5.3737
981.00,4.8377
980.00,4.8336
979.00,4.6032
978.00,4.3994
977.00,4.4558
976.00,4.9048
975.00,4.4969
974.00,4.2161
973.00,4.1430
972.00,4.1843
971.00,4.3224
970.00,4.5594
969.00,4.7359
968.00,4.6700
967.00,4.5572
966.00,4.4202
965.00,4.3536
964.00,4.3952
963.00,4.5752
962.00,5.1373
961.00,4.7873
960.00,4.5292
959.00,4.5121
958.00,4.5967
957.00,4.5287
956.00,4.4150
955.00,4.3515
954.00,4.3121
953.00,4.2650
952.00,4.1943
951.00,4.1557
950.00,4.2073
949.00,4.3471
948.00,4.4424
947.00,4.4266
946.00,4.4647
945.00,4.6212
944.00,4.8246
943.00,5.0026
942.00,5.2036
941.00,4.5204
940.00,4.2527
939.00,4.1789
938.00,4.2324
937.00,4.3296
936.00,4.3740
935.00,4.3807
934.00,4.3195
933.00,4.2252
932.00,4.1767
931.00,4.1833
930.00,4.2479
929.00,4.3492
928.00,4.3946
927.00,4.3343
926.00,4.2681
925.00,4.2790
924.00,4.3257
923.00,4.3684
922.00,4.4498
921.00,4.4884
920.00,4.3797
919.00,4.2874
918.00,4.2658
917.00,4.3133
916.00,4.4034
915.00,4.4555
914.00,4.5317
913.00,4.6956
912.00,4.8981
911.00,5.0585
910.00,4.9491
909.00,4.6765
908.00,4.4800
907.00,4.3734
906.00,4.3667
905.00,4.4334
904.00,4.4529
903.00,4.4436
902.00,4.4475
901.00,4.3303
900.00,4.2123
899.00,4.1585
898.00,4.1232
897.00,4.1238
896.00,4.2190
895.00,4.4431
894.00,4.7584
893.00,4.8271
892.00,4.6688
891.00,4.4914
890.00,4.3907
889.00,4.4254
888.00,4.6649
887.00,4.6650
886.00,4.4848
885.00,4.5959
884.00,4.4855
883.00,4.2467
882.00,4.2354
881.00,4.4458
880.00,5.0376
879.00,4.5122
878.00,4.4701
877.00,4.8273
876.00,4.6587
875.00,4.2368
874.00,4.0641
873.00,3.9937
872.00,3.9896
871.00,4.0414
870.00,4.1590
869.00,4.3860
868.00,4.8281
867.00,5.6856
866.00,4.9154
865.00,4.6288
864.00,4.4340
863.00,4.2866
862.00,4.1463
861.00,4.0430
860.00,3.9879
859.00,3.9543
858.00,3.9219
857.00,3.9001
856.00,3.9179
855.00,3.9862
854.00,4.0706
853.00,4.1522
852.00,4.2665
851.00,4.3738
850.00,4.3832
849.00,4.4830
848.00,4.7829
847.00,4.4724
846.00,4.3019
845.00,4.2443
844.00,4.1659
843.00,4.0671
842.00,4.0174
841.00,4.0461
840.00,4.1504
839.00,4.3071
838.00,4.3951
837.00,4.2590
836.00,4.1624
835.00,4.1836
834.00,4.2392
833.00,4.2212
832.00,4.1347
831.00,4.0348
830.00,3.9958
829.00,4.0400
828.00,4.1607
827.00,4.3920
826.00,4.9358
825.00,4.5249
824.00,4.3925
823.00,4.4231
822.00,4.3344
821.00,4.2247
820.00,4.0768
819.00,3.9537
818.00,3.9390
817.00,4.0373
816.00,4.1831
815.00,4.2683
814.00,4.3154
813.00,4.2534
812.00,4.0825
811.00,3.9907
810.00,4.0262
809.00,4.1533
808.00,4.2327
807.00,4.1682
806.00,4.0441
805.00,3.9522
804.00,3.9190
803.00,3.9443
802.00,4.0211
801.00,4.1348
800.00,4.2689
799.00,4.2897
798.00,4.1318
797.00,3.9924
796.00,3.9161
795.00,3.9040
794.00,3.9468
793.00,3.9773
792.00,3.9254
791.00,3.8686
790.00,3.8692
789.00,3.9288
788.00,4.0271
787.00,4.1526
786.00,4.3341
785.00,4.5834
784.00,4.9394
783.00,4.5124
782.00,4.1296
781.00,3.9762
780.00,3.9603
779.00,4.0327
778.00,4.1287
777.00,4.1665
776.00,4.1225
775.00,4.0617
774.00,4.0607
773.00,4.1611
772.00,4.3352
771.00,4.3281
770.00,4.2563
769.00,4.3305
768.00,4.5790
767.00,4.5951
766.00,4.4215
765.00,4.3123
764.00,4.1776
763.00,4.0553
762.00,4.0189
761.00,4.1063
760.00,4.3166
759.00,4.5210
758.00,4.4799
757.00,4.3038
756.00,4.1896
755.00,4.1863
754.00,4.2674
753.00,4.3315
752.00,4.3352
751.00,4.2829
750.00,4.1792
749.00,4.1092
748.00,4.0747
747.00,4.0524
746.00,4.0589
745.00,4.1160
744.00,4.2117
743.00,4.2828
742.00,4.2634
741.00,4.1785
740.00,4.1008
739.00,4.0971
738.00,4.1949
737.00,4.3132
736.00,4.3282
735.00,4.1876
734.00,4.0157
733.00,3.9567
732.00,3.9964
731.00,4.0632
730.00,4.0930
729.00,4.0787
728.00,4.0315
727.00,3.9891
726.00,4.0048
725.00,4.0885
724.00,4.0601
723.00,3.9145
722.00,3.8379
721.00,3.8396
720.00,3.8958
719.00,3.9592
718.00,3.9702
717.00,3.9721
716.00,4.0308
715.00,4.1158
714.00,4.1014
713.00,4.0297
712.00,3.9913
711.00,3.9875
710.00,3.9992
709.00,4.0128
708.00,4.0293
707.00,4.0535
706.00,4.0834
705.00,4.1437
704.00,4.2589
703.00,4.2166
702.00,4.0362
701.00,3.9565
700.00,4.0042
699.00,4.2140
698.00,4.6146
697.00,4.3500
696.00,4.2075
695.00,4.1872
694.00,4.1696
693.00,4.1129
692.00,4.0575
691.00,4.0512
690.00,4.1187
689.00,4.2255
688.00,4.2606
687.00,4.2648
686.00,4.3674
685.00,4.6235
684.00,4.8613
683.00,4.6157
682.00,4.2978
681.00,4.1001
680.00,4.0261
679.00,4.0449
678.00,4.0991
677.00,4.1268
676.00,4.1130
675.00,4.0859
674.00,4.0866
673.00,4.1343
672.00,4.1828
671.00,4.1818
670.00,4.0806
669.00,3.9619
668.00,3.9358
667.00,3.9881
666.00,4.0027
665.00,3.9387
664.00,3.8840
663.00,3.8465
662.00,3.8152
661.00,3.8084
660.00,3.8391
659.00,3.9115
658.00,4.0312
657.00,4.1642
656.00,4.2075
655.00,4.1074
654.00,3.9552
653.00,3.8453
652.00,3.8106
651.00,3.8572
650.00,4.0133
649.00,4.3503
648.00,4.7005
647.00,4.9341
646.00,4.5139
645.00,4.0063
644.00,3.7856
643.00,3.6960
642.00,3.6939
641.00,3.7412
640.00,3.8250
639.00,3.9890
638.00,4.1696
637.00,4.0894
636.00,4.0397
635.00,4.0845
634.00,4.1567
633.00,4.2800
632.00,4.5048
631.00,4.3636
630.00,4.1613
629.00,4.0122
628.00,3.8626
627.00,3.7778
626.00,3.7997
625.00,3.9111
624.00,3.9939
623.00,3.9603
622.00,3.8865
621.00,3.8344
620.00,3.8241
619.00,3.8360
618.00,3.8816
617.00,4.0211
616.00,4.2229
615.00,4.2856
614.00,4.4863
613.00,5.0459
612.00,4.2280
611.00,4.0762
610.00,4.0483
609.00,4.0919
608.00,4.2686
607.00,4.5130
606.00,4.4051
605.00,4.0928
604.00,3.8881
603.00,3.8198
602.00,3.8019
601.00,3.7687
600.00,3.7419
599.00,3.7870
598.00,3.9958
597.00,4.2936
596.00,3.9737
595.00,3.8038
594.00,3.7411
593.00,3.7444
592.00,3.8211
591.00,3.9907
590.00,4.3194
589.00,4.8897
588.00,4.2037
587.00,3.9925
586.00,3.9384
585.00,3.9735
584.00,4.0228
583.00,4.0002
582.00,3.9210
581.00,3.8962
580.00,3.9225
579.00,3.9181
578.00,3.9042
577.00,3.8404
576.00,3.7313
575.00,3.6739
574.00,3.6736
573.00,3.6995
572.00,3.7338
571.00,3.7695
570.00,3.7881
569.00,3.8006
568.00,3.8571
567.00,3.9979
566.00,4.3196
565.00,4.7455
564.00,4.1213
563.00,4.1368
562.00,4.5153
561.00,3.9564
560.00,3.7356
559.00,3.7388
558.00,3.9023
557.00,4.1078
556.00,4.0208
555.00,3.8468
554.00,3.7983
553.00,3.8900
552.00,3.9510
551.00,3.8474
550.00,3.8215
549.00,3.8754
548.00,3.9443
547.00,4.0646
546.00,4.2242
545.00,4.2061
544.00,3.8378
543.00,3.5991
542.00,3.5117
541.00,3.5378
540.00,3.6470
539.00,3.7940
538.00,3.9153
537.00,3.9821
536.00,3.9790
535.00,4.0024
534.00,4.0677
533.00,3.9100
532.00,3.7591
531.00,3.7385
530.00,3.8470
529.00,4.0822
528.00,4.3840
527.00,4.8878
526.00,3.9930
525.00,3.7947
524.00,3.7100
523.00,3.6532
522.00,3.6720
521.00,3.7767
520.00,3.9738
519.00,4.5433
518.00,4.0480
517.00,3.7207
516.00,3.6257
515.00,3.6056
514.00,3.5533
513.00,3.5061
512.00,3.5224
511.00,3.6100
510.00,3.7931
509.00,4.2241
508.00,4.7081
507.00,4.3196
506.00,4.1739
505.00,4.0110
504.00,4.0602
503.00,4.4136
502.00,4.3481
501.00,4.1004
500.00,3.8931
499.00,3.6643
498.00,3.5116
497.00,3.4565
496.00,3.4939
495.00,3.6229
494.00,3.8670
493.00,4.3658
492.00,3.9613
491.00,3.6533
490.00,3.5004
489.00,3.4797
488.00,3.6401
487.00,3.9369
486.00,3.6553
485.00,3.5181
484.00,3.4887
483.00,3.5160
482.00,3.5808
481.00,3.6175
480.00,3.6323
479.00,3.6629
478.00,3.6281
477.00,3.5717
476.00,3.5460
475.00,3.5458
474.00,3.5475
473.00,3.4388
472.00,3.2846
471.00,3.1961
470.00,3.1784
469.00,3.2276
468.00,3.3817
467.00,3.8701
466.00,3.6551
465.00,3.3884
464.00,3.3756
463.00,3.4388
462.00,3.3987
461.00,3.3247
460.00,3.3340
459.00,3.5060
458.00,4.1005
457.00,4.1864
456.00,3.9194
455.00,3.4476
454.00,3.2057
453.00,3.1455
452.00,3.2391
451.00,3.4893
450.00,3.8733
449.00,4.1579
448.00,3.5073
447.00,3.1534
446.00,3.0124
445.00,3.0334
444.00,3.1924
443.00,3.4852
442.00,3.8255
441.00,3.5958
440.00,3.4885
439.00,3.5442
438.00,3.5395
437.00,3.3294
436.00,3.1557
435.00,3.0539
434.00,3.0148
433.00,3.0217
432.00,3.0541
431.00,3.0941
430.00,3.1130
429.00,3.1188
428.00,3.1522
427.00,3.2037
426.00,3.2310
425.00,3.2314
424.00,3.2053
423.00,3.1583
422.00,3.0987
421.00,3.0083
420.00,2.9057
419.00,2.8501
418.00,2.8833
417.00,2.9758
416.00,3.0199
415.00,2.9610
414.00,2.8983
413.00,2.9082
412.00,2.9691
411.00,2.9884
410.00,2.9420
409.00,2.9205
408.00,2.9695
407.00,3.0363
406.00,3.0246
405.00,2.9326
404.00,2.8350
403.00,2.7619
402.00,2.7157
401.00,2.7062
400.00,2.7422
